Folder: textile_sorting_NIRSCAN_/ML/samples/Test_Label

Note: ML/README.md
# Machine Learning for Textile Sorting

This project focuses on using machine learning techniques to sort textiles based on their material composition. The goal is to develop a model that can accurately classify different types of textiles using data from NIR (Near-Infrared) scans.

## Requirements

To run the source code for this project, you need to install the required dependencies listed in the `requirements.txt` file. You can download and install these dependencies using the following bash command:

```bash
pip install -r requirements.txt
```

## Getting Started

1. Clone the repository to your local machine.
2. Navigate to the project directory.
3. Install the required dependencies using the command above.
4. Run the provided scripts to train and evaluate the machine learning models.

File: Column 1_073001_20241119_093331.csv
Method:,Column 1,,
Host Date-Time:,19/11/24 @ 9:33:31,,
Header Version:,1,,
System Temp (C):,37.31,,
Detector Temp (C):,39.38,,
Humidity (%):,3,,
Lamp PD:,3803,,
Shift Vector Coefficients:,-10.5391,0.0761263,-0.000134223,,
Pixel to Wavelength Coefficients:,1775.68,-0.916766,-0.000235065,,
Serial Number:,5510004,,
Scan Config Name:,Column 1,,
Scan Config Type:,Slew,,
Section 1,,
Start wavelength (nm):,900,,
End wavelength (nm):,1700,,
Pattern Pixel Width (nm):,   7.03,,,,
Exposure (ms):,  0.635,,,,
Digital Resolution:,228,,
Num Repeats:,6,,
PGA Gain:,64,,
Total Measurement Time in sec:,  2.488,,
Wavelength (nm),Absorbance (AU),Reference Signal (unitless),Sample Signal (unitless)
901.51,0.174092,108485,72657
905.376,0.175848,121306,80916
909.237,0.179648,131909,87222
913.095,0.179046,143299,94885
916.948,0.182532,156982,103114
922.079,0.182896,179937,118093
925.923,0.184097,200504,131228
929.762,0.182894,222660,146133
933.597,0.182507,244426,160561
937.427,0.179369,263972,174658
941.254,0.175795,281845,188025
945.076,0.173059,297271,199569
950.165,0.170701,315605,213031
953.978,0.168126,328029,222734
957.786,0.166073,340470,232277
961.59,0.165378,352317,240744
965.389,0.162947,363056,249475
969.185,0.162284,373162,256811
972.976,0.160479,382632,264425
976.763,0.159688,391202,270840
981.806,0.158894,400190,277570
985.583,0.157983,406088,282252
989.355,0.158098,410162,285008
993.124,0.157362,412868,287375
996.888,0.156323,414263,289037
1000.65,0.156606,415476,289694
1004.4,0.155940,415479,290141
1009.41,0.156386,414358,289061
1013.15,0.155526,412923,288631
1016.89,0.156638,411526,286919
1020.63,0.156315,409066,285416
1024.36,0.155529,406777,284333
1028.09,0.155195,404427,282908
1031.82,0.155227,401911,281127
1036.78,0.155655,398410,278404
1040.49,0.154493,396204,277604
1044.2,0.154157,394236,276439
1047.91,0.153607,392042,275249
1051.61,0.153442,389823,273795
1055.31,0.152347,388234,273367
1059,0.151281,387599,273591
1063.92,0.150229,386688,273610
1067.61,0.149115,386598,274249
1071.29,0.148569,387377,275147
1074.96,0.147832,388536,276439
1078.63,0.147294,389855,277721
1082.3,0.145582,391215,279791
1085.96,0.146038,393215,280926
1090.84,0.143842,396270,284544
1094.49,0.143226,398760,286738
1098.14,0.142968,400987,288511
1101.79,0.141496,403477,291288
1105.43,0.140660,406116,293758
1109.06,0.140295,407701,295153
1112.7,0.139535,409859,297235
1117.53,0.139534,412494,299146
1121.15,0.138900,414909,301337
1124.77,0.139585,416559,302059
1128.38,0.139816,418532,303328
1131.99,0.139979,419956,304246
1135.6,0.140971,421946,304990
1139.2,0.143543,423881,304580
1143.99,0.144255,426786,306165
1147.58,0.145034,428617,306927
1151.17,0.145909,431169,308133
1154.75,0.146353,433579,309539
1158.33,0.147530,436264,310613
1161.91,0.149663,439132,311123
1165.48,0.150681,442389,312697
1169.04,0.152843,446101,313755
1173.79,0.156028,451929,315531
1177.34,0.157153,456026,317568
1180.9,0.159331,461306,319638
1184.44,0.160265,467657,323342
1187.99,0.160825,473969,327284
1191.52,0.160185,479856,331838
1195.06,0.159092,487372,337885
1199.76,0.157626,497347,345966
1203.29,0.155884,504311,352220
1206.81,0.153900,511507,358882
1210.33,0.152556,519078,365323
1213.84,0.151924,527163,371553
1217.35,0.150607,534208,377662
1220.85,0.149419,540472,383137
1225.51,0.148594,549929,390582
1229.01,0.148049,556888,396022
1232.5,0.146910,562180,400835
1235.98,0.146344,567975,405495
1239.46,0.145444,574815,411229
1242.94,0.144583,582782,417756
1246.41,0.144139,591476,424422
1251.03,0.143197,604016,434362
1254.5,0.143525,612289,439979
1257.96,0.144246,619125,444153
1261.41,0.144682,624551,447596
1264.86,0.145034,629900,451063
1268.31,0.145534,634345,453724
1271.75,0.146450,638574,455786
1276.33,0.146886,642499,458128
1279.76,0.146958,645905,460480
1283.19,0.146644,648307,462527
1286.61,0.146176,650446,464553
1290.03,0.146460,652132,465453
1293.44,0.145798,653907,467432
1296.85,0.145537,655963,469183
1301.39,0.145874,657349,469810
1304.8,0.145658,657558,470193
1308.19,0.146148,658515,470346
1311.58,0.146329,658804,470357
1314.97,0.146650,659011,470157
1318.36,0.147176,658272,469061
1321.73,0.147092,658022,468974
1326.23,0.148194,657870,467677
1329.6,0.149044,656482,465778
1332.97,0.148958,654926,464766
1336.33,0.149750,653727,463070
1339.69,0.151091,652497,460774
1343.04,0.151615,649913,458395
1346.39,0.153289,647671,455057
1349.73,0.154772,645338,451872
1354.18,0.156854,641175,446810
1357.52,0.158421,638376,443257
1360.85,0.160006,635805,439864
1364.17,0.161792,633413,436410
1367.49,0.162904,631026,433654
1370.81,0.165422,628050,429114
1374.12,0.167112,625034,425394
1378.54,0.169645,620272,419698
1381.84,0.171725,616892,415417
1385.14,0.175677,613613,409466
1388.43,0.178380,611526,405541
1391.72,0.182886,610663,400789
1395.01,0.186617,610634,397342
1398.29,0.191138,611700,393913
1402.66,0.197003,614051,390123
1405.93,0.202146,616268,386922
1409.2,0.206781,617795,383763
1412.46,0.210716,618872,380965
1415.72,0.214594,619795,378141
1418.98,0.218008,620495,375604
1422.23,0.220606,621087,373720
1426.56,0.223743,621375,371202
1429.8,0.226212,621616,369241
1433.04,0.228212,622129,367848
1436.27,0.230207,621526,365807
1439.5,0.231291,621113,364653
1442.72,0.233946,620921,362318
1445.94,0.235745,620270,360442
1450.23,0.238949,618860,356980
1453.44,0.241138,617697,354517
1456.64,0.243517,616264,351763
1459.85,0.245363,614413,349219
1463.04,0.246850,612307,346832
1466.24,0.250009,610032,343039
1469.43,0.251751,607345,340161
1473.67,0.255248,603789,335457
1476.85,0.258832,601175,331260
1480.02,0.263935,597737,325518
1483.19,0.268468,594479,320382
1486.36,0.273671,591232,314838
1489.52,0.277935,587853,309980
1492.68,0.281592,583875,305301
1496.89,0.284389,578062,300321
1500.03,0.285783,574159,297337
1503.18,0.287259,570285,294329
1506.32,0.286595,565444,292277
1509.45,0.286907,560571,289550
1512.58,0.285997,555821,287699
1515.71,0.284359,550344,285940
1519.87,0.281943,543983,284212
1522.99,0.279713,538764,282934
1526.1,0.278164,533692,281272
1529.21,0.274743,527902,280421
1532.32,0.272197,521886,278855
1535.42,0.270189,515888,276928
1538.51,0.267788,509987,275278
1541.6,0.264511,503936,274072
1545.72,0.259776,494694,271995
1548.8,0.257241,488378,270094
1551.88,0.254656,481832,268065
1554.95,0.252292,474989,265700
1558.02,0.251312,467818,262280
1561.08,0.249554,460730,259354
1564.15,0.248024,454170,256563
1568.22,0.247485,444181,251232
1571.27,0.246804,436947,247528
1574.32,0.246303,429598,243646
1577.36,0.245022,422039,240066
1580.4,0.242777,414375,236928
1583.43,0.242342,406354,232575
1586.46,0.239352,398475,229641
1590.49,0.237774,388982,224986
1593.51,0.235348,380708,221434
1596.53,0.233451,372727,217741
1599.54,0.230595,365060,214669
1602.55,0.229285,357543,210884
1605.55,0.227483,349495,206994
1608.55,0.224901,341154,203259
1612.54,0.222857,330877,198066
1615.53,0.220527,322904,194333
1618.51,0.218295,315116,190623
1621.49,0.217193,307217,186317
1624.47,0.217347,299481,181561
1627.44,0.214505,292112,178256
1630.41,0.214318,284245,173530
1634.36,0.212585,274079,167993
1637.32,0.211478,266916,164020
1640.27,0.210487,259612,159896
1643.22,0.208108,251804,155939
1646.16,0.207826,244348,151420
1649.1,0.205680,236703,147409
1652.04,0.203450,228171,142827
1655.95,0.198976,215408,136234
1658.88,0.193852,204937,131150
1661.8,0.187708,193395,125527
1664.72,0.175902,179728,119871
1667.63,0.161944,163642,112707
1670.54,0.142027,146312,105500
1673.44,0.121433,128451,97119
1677.31,0.096688,105080,84107
1680.21,0.077498,88906,74376
1683.1,0.069161,75033,63987
1685.99,0.062666,63520,54985
1688.87,0.064647,53714,46285
1691.75,0.063885,45653,39408
1694.62,0.073075,39137,33076
1697.49,0.074526,33776,28450
1701.31,0.087155,28175,23052