Folder: textile_sorting_NIRSCAN_/ML/samples/unknown (part 30)

File: Column 1_078201_20241121_165026.csv
Method:,Column 1,,
Host Date-Time:,21/11/24 @ 16:50:26,,
Header Version:,1,,
System Temp (C):,33.85,,
Detector Temp (C):,30.66,,
Humidity (%):,3.03,,
Lamp PD:,3804,,
Shift Vector Coefficients:,-10.5391,0.0761263,-0.000134223,,
Pixel to Wavelength Coefficients:,1775.68,-0.916766,-0.000235065,,
Serial Number:,5510004,,
Scan Config Name:,Column 1,,
Scan Config Type:,Slew,,
Section 1,,
Start wavelength (nm):,900,,
End wavelength (nm):,1700,,
Pattern Pixel Width (nm):,   7.03,,,,
Exposure (ms):,  0.635,,,,
Digital Resolution:,228,,
Num Repeats:,6,,
PGA Gain:,64,,
Total Measurement Time in sec:,  2.708,,
Wavelength (nm),Absorbance (AU),Reference Signal (unitless),Sample Signal (unitless)
901.51,1.331133,108485,5061
905.376,1.323912,121306,5754
909.237,1.330130,131909,6168
913.095,1.341596,143299,6526
916.948,1.312643,156982,7642
922.079,1.329344,179937,8429
925.923,1.325406,200504,9478
929.762,1.309459,222660,10919
933.597,1.333266,244426,11347
937.427,1.317754,263972,12700
941.254,1.324139,281845,13362
945.076,1.319277,297271,14252
950.165,1.316929,315605,15213
953.978,1.313778,328029,15927
957.786,1.321332,340470,16246
961.59,1.336080,352317,16250
965.389,1.310726,363056,17752
969.185,1.318584,373162,17919
972.976,1.310986,382632,18698
976.763,1.306551,391202,19313
981.806,1.310387,400190,19583
985.583,1.311692,406088,19812
989.355,1.313121,410162,19945
993.124,1.307781,412868,20325
996.888,1.315530,414263,20033
1000.65,1.312915,415476,20213
1004.4,1.315915,415479,20074
1009.41,1.314763,414358,20073
1013.15,1.305218,412923,20448
1016.89,1.318478,411526,19766
1020.63,1.314164,409066,19844
1024.36,1.303575,406777,20220
1028.09,1.313654,404427,19642
1031.82,1.312162,401911,19587
1036.78,1.320139,398410,19063
1040.49,1.313782,396204,19237
1044.2,1.314905,394236,19092
1047.91,1.316871,392042,18900
1051.61,1.305625,389823,19286
1055.31,1.315121,388234,18792
1059,1.311990,387599,18897
1063.92,1.323890,386688,18343
1067.61,1.322867,386598,18382
1071.29,1.320141,387377,18535
1074.96,1.319848,388536,18603
1078.63,1.312904,389855,18967
1082.3,1.322249,391215,18628
1085.96,1.324674,393215,18619
1090.84,1.323003,396270,18836
1094.49,1.318974,398760,19131
1098.14,1.324743,400987,18984
1101.79,1.322201,403477,19214
1105.43,1.319887,406116,19443
1109.06,1.317687,407701,19618
1112.7,1.318256,409859,19696
1117.53,1.327974,412494,19384
1121.15,1.323046,414909,19720
1124.77,1.309791,416559,20412
1128.38,1.327042,418532,19710
1131.99,1.321241,419956,20043
1135.6,1.319390,421946,20224
1139.2,1.315448,423881,20502
1143.99,1.319177,426786,20466
1147.58,1.323185,428617,20365
1151.17,1.325358,431169,20384
1154.75,1.328354,433579,20357
1158.33,1.323423,436264,20717
1161.91,1.321681,439132,20937
1165.48,1.318445,442389,21250
1169.04,1.317662,446101,21467
1173.79,1.323764,451929,21444
1177.34,1.317120,456026,21972
1180.9,1.320029,461306,22078
1184.44,1.317957,467657,22489
1187.99,1.328752,473969,22233
1191.52,1.325928,479856,22656
1195.06,1.317496,487372,23462
1199.76,1.318916,497347,23864
1203.29,1.327877,504311,23704
1206.81,1.330708,511507,23886
1210.33,1.321289,519078,24771
1213.84,1.323779,527163,25013
1217.35,1.326379,534208,25196
1220.85,1.320582,540472,25834
1225.51,1.319691,549929,26340
1229.01,1.327367,556888,26206
1232.5,1.329375,562180,26333
1235.98,1.325450,567975,26846
1239.46,1.323923,574815,27265
1242.94,1.324188,582782,27626
1246.41,1.325649,591476,27944
1251.03,1.328449,604016,28353
1254.5,1.325368,612289,28946
1257.96,1.327453,619125,29129
1261.41,1.327250,624551,29398
1264.86,1.328053,629900,29595
1268.31,1.330345,634345,29647
1271.75,1.328901,638574,29944
1276.33,1.325928,642499,30335
1279.76,1.329128,645905,30272
1283.19,1.333258,648307,30097
1286.61,1.327518,650446,30598
1290.03,1.332936,652132,30297
1293.44,1.326134,653907,30859
1296.85,1.336571,655963,30221
1301.39,1.332302,657349,30584
1304.8,1.329948,657558,30760
1308.19,1.330918,658515,30736
1311.58,1.335212,658804,30447
1314.97,1.336763,659011,30348
1318.36,1.332996,658272,30578
1321.73,1.333016,658022,30565
1326.23,1.327732,657870,30932
1329.6,1.340102,656482,30000
1332.97,1.329818,654926,30646
1336.33,1.334155,653727,30286
1339.69,1.335349,652497,30146
1343.04,1.335691,649913,30003
1346.39,1.333192,647671,30072
1349.73,1.337323,645338,29680
1354.18,1.337995,641175,29443
1357.52,1.329260,638376,29910
1360.85,1.330041,635805,29736
1364.17,1.328653,633413,29719
1367.49,1.334382,631026,29219
1370.81,1.324113,628050,29777
1374.12,1.331086,625034,29162
1378.54,1.330529,620272,28977
1381.84,1.329597,616892,28881
1385.14,1.329106,613613,28760
1388.43,1.333204,611526,28393
1391.72,1.332697,610663,28386
1395.01,1.324808,610634,28905
1398.29,1.332548,611700,28444
1402.66,1.330762,614051,28671
1405.93,1.329037,616268,28889
1409.2,1.328162,617795,29019
1412.46,1.331034,618872,28878
1415.72,1.330180,619795,28978
1418.98,1.335235,620495,28675
1422.23,1.331069,621087,28979
1426.56,1.341184,621375,28325
1429.8,1.342827,621616,28229
1433.04,1.335893,622129,28707
1436.27,1.341965,621526,28281
1439.5,1.338737,621113,28473
1442.72,1.343836,620921,28132
1445.94,1.340212,620270,28338
1450.23,1.338305,618860,28398
1453.44,1.334394,617697,28601
1456.64,1.337996,616264,28299
1459.85,1.338735,614413,28166
1463.04,1.333819,612307,28389
1466.24,1.339173,610032,27937
1469.43,1.332479,607345,28246
1473.67,1.336216,603789,27840
1476.85,1.335707,601175,27752
1480.02,1.344953,597737,27012
1483.19,1.337195,594479,27349
1486.36,1.335389,591232,27313
1489.52,1.347517,587853,26409
1492.68,1.342845,583875,26514
1496.89,1.341309,578062,26343
1500.03,1.336377,574159,26464
1503.18,1.341637,570285,25969
1506.32,1.341359,565444,25765
1509.45,1.336271,560571,25844
1512.58,1.340700,555821,25365
1515.71,1.339354,550344,25193
1519.87,1.341361,543983,24787
1522.99,1.348410,538764,24154
1526.1,1.346392,533692,24038
1529.21,1.332024,527902,24577
1532.32,1.347525,521886,23445
1535.42,1.336892,515888,23750
1538.51,1.340464,509987,23286
1541.6,1.333141,503936,23401
1545.72,1.333119,494694,22973
1548.8,1.341485,488378,22247
1551.88,1.336308,481832,22212
1554.95,1.335447,474989,21940
1558.02,1.335603,467818,21601
1561.08,1.333947,460730,21355
1564.15,1.342109,454170,20659
1568.22,1.331191,444181,20719
1571.27,1.335723,436947,20170
1574.32,1.335367,429598,19847
1577.36,1.343025,422039,19157
1580.4,1.332760,414375,19259
1583.43,1.332696,406354,18889
1586.46,1.336812,398475,18348
1590.49,1.336955,388982,17905
1593.51,1.334315,380708,17631
1596.53,1.333495,372727,17294
1599.54,1.340585,365060,16664
1602.55,1.337876,357543,16423
1605.55,1.328915,349495,16388
1608.55,1.333195,341154,15840
1612.54,1.324182,330877,15685
1615.53,1.332751,322904,15008
1618.51,1.337102,315116,14500
1621.49,1.322468,307217,14621
1624.47,1.334637,299481,13859
1627.44,1.332394,292112,13588
1630.41,1.329678,284245,13305
1634.36,1.324367,274079,12987
1637.32,1.313133,266916,12979
1640.27,1.328285,259612,12191
1643.22,1.332246,251804,11717
1646.16,1.319786,244348,11701
1649.1,1.331589,236703,11031
1652.04,1.316513,228171,11009
1655.95,1.324747,215408,10198
1658.88,1.312055,204937,9990
1661.8,1.300660,193395,9678
1664.72,1.283572,179728,9355
1667.63,1.293615,163642,8323
1670.54,1.289120,146312,7519
1673.44,1.273364,128451,6845
1677.31,1.246128,105080,5962
1680.21,1.259001,88906,4897
1683.1,1.241481,75033,4303
1685.99,1.243004,63520,3630
1688.87,1.284795,53714,2788
1691.75,1.249367,45653,2571
1694.62,1.286806,39137,2022
1697.49,1.239912,33776,1944
1701.31,1.288496,28175,1450

File: Column 1_078202_20241121_165029.csv
Method:,Column 1,,
Host Date-Time:,21/11/24 @ 16:50:29,,
Header Version:,1,,
System Temp (C):,33.84,,
Detector Temp (C):,30.71,,
Humidity (%):,3.03,,
Lamp PD:,3804,,
Shift Vector Coefficients:,-10.5391,0.0761263,-0.000134223,,
Pixel to Wavelength Coefficients:,1775.68,-0.916766,-0.000235065,,
Serial Number:,5510004,,
Scan Config Name:,Column 1,,
Scan Config Type:,Slew,,
Section 1,,
Start wavelength (nm):,900,,
End wavelength (nm):,1700,,
Pattern Pixel Width (nm):,   7.03,,,,
Exposure (ms):,  0.635,,,,
Digital Resolution:,228,,
Num Repeats:,6,,
PGA Gain:,64,,
Total Measurement Time in sec:,  2.707,,
Wavelength (nm),Absorbance (AU),Reference Signal (unitless),Sample Signal (unitless)
901.51,1.294139,108485,5511
905.376,1.330529,121306,5667
909.237,1.346269,131909,5943
913.095,1.306701,143299,7072
916.948,1.310432,156982,7681
922.079,1.320067,179937,8611
925.923,1.308114,200504,9863
929.762,1.328609,222660,10448
933.597,1.317223,244426,11774
937.427,1.320189,263972,12629
941.254,1.314878,281845,13650
945.076,1.321997,297271,14163
950.165,1.307051,315605,15563
953.978,1.305620,328029,16229
957.786,1.309596,340470,16691
961.59,1.309692,352317,17268
965.389,1.303256,363056,18060
969.185,1.310444,373162,18258
972.976,1.316408,382632,18466
976.763,1.315824,391202,18905
981.806,1.303762,400190,19884
985.583,1.306549,406088,20048
989.355,1.302857,410162,20422
993.124,1.302999,412868,20550
996.888,1.302482,414263,20644
1000.65,1.312829,415476,20217
1004.4,1.302348,415479,20711
1009.41,1.312605,414358,20173
1013.15,1.314015,412923,20038
1016.89,1.316396,411526,19861
1020.63,1.308835,409066,20089
1024.36,1.316790,406777,19614
1028.09,1.322906,404427,19228
1031.82,1.312073,401911,19591
1036.78,1.305996,398410,19694
1040.49,1.305109,396204,19625
1044.2,1.309817,394236,19317
1047.91,1.306024,392042,19378
1051.61,1.306437,389823,19250
1055.31,1.316509,388234,18732
1059,1.313440,387599,18834
1063.92,1.306100,386688,19110
1067.61,1.314722,386598,18730
1071.29,1.310708,387377,18942
1074.96,1.311272,388536,18974
1078.63,1.313294,389855,18950
1082.3,1.307962,391215,19251
1085.96,1.314781,393215,19048
1090.84,1.312907,396270,19279
1094.49,1.313649,398760,19367
1098.14,1.309922,400987,19643
1101.79,1.322925,403477,19182
1105.43,1.318259,406116,19516
1109.06,1.316427,407701,19675
1112.7,1.318190,409859,19699
1117.53,1.312243,412494,20099
1121.15,1.308898,414909,20373
1124.77,1.312266,416559,20296
1128.38,1.325524,418532,19779
1131.99,1.315986,419956,20287
1135.6,1.324922,421946,19968
1139.2,1.323983,423881,20103
1143.99,1.316069,426786,20613
1147.58,1.319321,428617,20547
1151.17,1.319160,431169,20677
1154.75,1.314064,433579,21038
1158.33,1.311023,436264,21317
1161.91,1.311188,439132,21449
1165.48,1.316488,442389,21346
1169.04,1.325542,446101,21081
1173.79,1.322046,451929,21529
1177.34,1.322770,456026,21688
1180.9,1.316796,461306,22243
1184.44,1.321078,467657,22328
1187.99,1.319017,473969,22737
1191.52,1.321541,479856,22886
1195.06,1.316534,487372,23514
1199.76,1.327147,497347,23416
1203.29,1.325265,504311,23847
1206.81,1.314242,511507,24809
1210.33,1.317797,519078,24971
1213.84,1.323814,527163,25011
1217.35,1.316613,534208,25769
1220.85,1.320413,540472,25844
1225.51,1.322752,549929,26155
1229.01,1.321115,556888,26586
1232.5,1.326073,562180,26534
1235.98,1.328404,567975,26664
1239.46,1.324704,574815,27216
1242.94,1.316939,582782,28091
1246.41,1.319047,591476,28372
1251.03,1.325518,604016,28545
1254.5,1.323661,612289,29060
1257.96,1.331211,619125,28878
1261.41,1.325202,624551,29537
1264.86,1.325041,629900,29801
1268.31,1.330213,634345,29656
1271.75,1.331418,638574,29771
1276.33,1.331171,642499,29971
1279.76,1.324518,645905,30595
1283.19,1.328407,648307,30435
1286.61,1.328598,650446,30522
1290.03,1.330363,652132,30477
1293.44,1.324028,653907,31009
1296.85,1.327469,655963,30861
1301.39,1.330262,657349,30728
1304.8,1.324881,657558,31121
1308.19,1.330805,658515,30744
1311.58,1.333461,658804,30570
1314.97,1.331556,659011,30714
1318.36,1.334390,658272,30480
1321.73,1.326795,658022,31006
1326.23,1.331285,657870,30680
1329.6,1.328954,656482,30780
1332.97,1.330074,654926,30628
1336.33,1.333982,653727,30298
1339.69,1.334514,652497,30204
1343.04,1.330067,649913,30394
1346.39,1.329797,647671,30308
1349.73,1.330658,645338,30139
1354.18,1.335186,641175,29634
1357.52,1.332539,638376,29685
1360.85,1.325638,635805,30039
1364.17,1.319972,633413,30319
1367.49,1.326692,631026,29741
1370.81,1.326996,628050,29580
1374.12,1.322037,625034,29776
1378.54,1.325952,620272,29284
1381.84,1.332267,616892,28704
1385.14,1.331726,613613,28587
1388.43,1.327188,611526,28789
1391.72,1.323464,610663,28996
1395.01,1.324087,610634,28953
1398.29,1.332517,611700,28446
1402.66,1.332203,614051,28576
1405.93,1.328992,616268,28892
1409.2,1.328746,617795,28980
1412.46,1.329517,618872,28979
1415.72,1.326196,619795,29245
1418.98,1.333376,620495,28798
1422.23,1.331159,621087,28973
1426.56,1.333359,621375,28840
1429.8,1.332669,621616,28897
1433.04,1.329227,622129,29151
1436.27,1.335275,621526,28720
1439.5,1.331852,621113,28928
1442.72,1.331028,620921,28974
1445.94,1.337858,620270,28492
1450.23,1.343845,618860,28038
1453.44,1.328542,617697,28989
1456.64,1.333477,616264,28595
1459.85,1.329339,614413,28782
1463.04,1.337090,612307,28176
1466.24,1.334749,610032,28223
1469.43,1.337971,607345,27891
1473.67,1.340133,603789,27590
1476.85,1.338990,601175,27543
1480.02,1.336483,597737,27544
1483.19,1.339105,594479,27229
1486.36,1.340861,591232,26971
1489.52,1.331439,587853,27405
1492.68,1.333351,583875,27100
1496.89,1.335903,578062,26673
1500.03,1.340068,574159,26240
1503.18,1.330590,570285,26638
1506.32,1.335283,565444,26128
1509.45,1.338174,560571,25731
1512.58,1.335255,555821,25685
1515.71,1.336965,550344,25332
1519.87,1.334116,543983,25204
1522.99,1.340728,538764,24585
1526.1,1.335104,533692,24671
1529.21,1.339996,527902,24130
1532.32,1.331041,521886,24352
1535.42,1.339110,515888,23629
1538.51,1.337713,509987,23434
1541.6,1.333178,503936,23399
1545.72,1.332609,494694,23000
1548.8,1.337791,488378,22437
1551.88,1.337247,481832,22164
1554.95,1.336279,474989,21898
1558.02,1.334118,467818,21675
1561.08,1.325129,460730,21793
1564.15,1.331703,454170,21160
1568.22,1.333082,444181,20629
1571.27,1.327237,436947,20568
1574.32,1.338640,429598,19698
1577.36,1.333939,422039,19562
1580.4,1.338594,414375,19002
1583.43,1.334539,406354,18809
1586.46,1.325920,398475,18814
1590.49,1.337732,388982,17873
1593.51,1.332422,380708,17708
1596.53,1.330542,372727,17412
1599.54,1.333784,365060,16927
1602.55,1.323007,357543,16995
1605.55,1.325221,349495,16528
1608.55,1.331717,341154,15894
1612.54,1.329840,330877,15482
1615.53,1.320623,322904,15433
1618.51,1.326890,315116,14845
1621.49,1.317330,307217,14795
1624.47,1.329931,299481,14010
1627.44,1.315223,292112,14136
1630.41,1.315485,284245,13747
1634.36,1.330293,274079,12811
1637.32,1.325143,266916,12625
1640.27,1.314506,259612,12584
1643.22,1.334178,251804,11665
1646.16,1.308538,244348,12008
1649.1,1.311622,236703,11550
1652.04,1.317975,228171,10972
1655.95,1.306933,215408,10625
1658.88,1.299881,204937,10274
1661.8,1.299674,193395,9700
1664.72,1.292483,179728,9165
1667.63,1.282946,163642,8530
1670.54,1.264149,146312,7964
1673.44,1.248999,128451,7240
1677.31,1.251626,105080,5887
1680.21,1.258027,88906,4908
1683.1,1.193830,75033,4802
1685.99,1.221986,63520,3810
1688.87,1.200016,53714,3389
1691.75,1.241334,45653,2619
1694.62,1.205198,39137,2440
1697.49,1.259095,33776,1860
1701.31,1.112005,28175,2177

File: Column 1_078203_20241121_165032.csv
Method:,Column 1,,
Host Date-Time:,21/11/24 @ 16:50:32,,
Header Version:,1,,
System Temp (C):,33.82,,
Detector Temp (C):,30.75,,
Humidity (%):,3.03,,
Lamp PD:,3804,,
Shift Vector Coefficients:,-10.5391,0.0761263,-0.000134223,,
Pixel to Wavelength Coefficients:,1775.68,-0.916766,-0.000235065,,
Serial Number:,5510004,,
Scan Config Name:,Column 1,,
Scan Config Type:,Slew,,
Section 1,,
Start wavelength (nm):,900,,
End wavelength (nm):,1700,,
Pattern Pixel Width (nm):,   7.03,,,,
Exposure (ms):,  0.635,,,,
Digital Resolution:,228,,
Num Repeats:,6,,
PGA Gain:,64,,
Total Measurement Time in sec:,  2.708,,
Wavelength (nm),Absorbance (AU),Reference Signal (unitless),Sample Signal (unitless)
901.51,1.323057,108485,5156
905.376,1.335539,121306,5602
909.237,1.300796,131909,6599
913.095,1.301209,143299,7162
916.948,1.294337,156982,7971
922.079,1.310194,179937,8809
925.923,1.325865,200504,9468
929.762,1.323896,222660,10562
933.597,1.317113,244426,11777
937.427,1.322880,263972,12551
941.254,1.310982,281845,13773
945.076,1.321813,297271,14169
950.165,1.319161,315605,15135
953.978,1.307578,328029,16156
957.786,1.311997,340470,16599
961.59,1.317277,352317,16969
965.389,1.301241,363056,18144
969.185,1.301312,373162,18646
972.976,1.305172,382632,18950
976.763,1.303839,391202,19434
981.806,1.307293,400190,19723
985.583,1.311254,406088,19832
989.355,1.313252,410162,19939
993.124,1.312983,412868,20083
996.888,1.308925,414263,20340
1000.65,1.303984,415476,20633
1004.4,1.306689,415479,20505
1009.41,1.309046,414358,20339
1013.15,1.307390,412923,20346
1016.89,1.304001,411526,20436
1020.63,1.316050,409066,19758
1024.36,1.317122,406777,19599
1028.09,1.316806,404427,19500
1031.82,1.308057,401911,19773
1036.78,1.308784,398410,19568
1040.49,1.315138,396204,19177
1044.2,1.313860,394236,19138
1047.91,1.311436,392042,19138
1051.61,1.306392,389823,19252
1055.31,1.307379,388234,19130
1059,1.316727,387599,18692
1063.92,1.311911,386688,18856
1067.61,1.322088,386598,18415
1071.29,1.313491,387377,18821
1074.96,1.308807,388536,19082
1078.63,1.316260,389855,18821
1082.3,1.314417,391215,18967
1085.96,1.311351,393215,19199
1090.84,1.316685,396270,19112
1094.49,1.318452,398760,19154
1098.14,1.320010,400987,19192
1101.79,1.319924,403477,19315
1105.43,1.316416,406116,19599
1109.06,1.318152,407701,19597
1112.7,1.301474,409859,20472
1117.53,1.316063,412494,19923
1121.15,1.320170,414909,19851
1124.77,1.322529,416559,19822
1128.38,1.318360,418532,20108
1131.99,1.324416,419956,19897
1135.6,1.316245,421946,20371
1139.2,1.322237,423881,20184
1143.99,1.318965,426786,20476
1147.58,1.321397,428617,20449
1151.17,1.317399,431169,20761
1154.75,1.315532,433579,20967
1158.33,1.320914,436264,20837
1161.91,1.324323,439132,20810
1165.48,1.318098,442389,21267
1169.04,1.320503,446101,21327
1173.79,1.317072,451929,21777
1177.34,1.311835,456026,22241
1180.9,1.317206,461306,22222
1184.44,1.313959,467657,22697
1187.99,1.319112,473969,22732
1191.52,1.321275,479856,22900
1195.06,1.325378,487372,23040
1199.76,1.321563,497347,23719
1203.29,1.339670,504311,23069
1206.81,1.322727,511507,24329
1210.33,1.321307,519078,24770
1213.84,1.324492,527163,24972
1217.35,1.317963,534208,25689
1220.85,1.324194,540472,25620
1225.51,1.326789,549929,25913
1229.01,1.322096,556888,26526
1232.5,1.322990,562180,26723
1235.98,1.325401,567975,26849
1239.46,1.325007,574815,27197
1242.94,1.323356,582782,27679
1246.41,1.325198,591476,27973
1251.03,1.323742,604016,28662
1254.5,1.327881,612289,28779
1257.96,1.330190,619125,28946
1261.41,1.332407,624551,29051
1264.86,1.324575,629900,29833
1268.31,1.325450,634345,29983
1271.75,1.327887,638574,30014
1276.33,1.334911,642499,29714
1279.76,1.327138,645905,30411
1283.19,1.330481,648307,30290
1286.61,1.332357,650446,30259
1290.03,1.334415,652132,30194
1293.44,1.326233,653907,30852
1296.85,1.328145,655963,30813
1301.39,1.326476,657349,30997
1304.8,1.338143,657558,30185
1308.19,1.331979,658515,30661
1311.58,1.329726,658804,30834
1314.97,1.331754,659011,30700
1318.36,1.329150,658272,30850
1321.73,1.334596,658022,30454
1326.23,1.328998,657870,30842
1329.6,1.328137,656482,30838
1332.97,1.328135,654926,30765
1336.33,1.332494,653727,30402
1339.69,1.332363,652497,30354
1343.04,1.331470,649913,30296
1346.39,1.330514,647671,30258
1349.73,1.331134,645338,30106
1354.18,1.331334,641175,29898
1357.52,1.326496,638376,30101
1360.85,1.326840,635805,29956
1364.17,1.330865,633413,29568
1367.49,1.330535,631026,29479
1370.81,1.331735,628050,29259
1374.12,1.331265,625034,29150
1378.54,1.327393,620272,29187
1381.84,1.331783,616892,28736
1385.14,1.329725,613613,28719
1388.43,1.328276,611526,28717
1391.72,1.324799,610663,28907
1395.01,1.329142,610634,28618
1398.29,1.325280,611700,28924
1402.66,1.323998,614051,29121
1405.93,1.335291,616268,28476
1409.2,1.329751,617795,28913
1412.46,1.331214,618872,28866
1415.72,1.332403,619795,28830
1418.98,1.333678,620495,28778
1422.23,1.325781,621087,29334
1426.56,1.329565,621375,29093
1429.8,1.328854,621616,29152
1433.04,1.335303,622129,28746
1436.27,1.330328,621526,29049
1439.5,1.338097,621113,28515
1442.72,1.333855,620921,28786
1445.94,1.335002,620270,28680
1450.23,1.334604,618860,28641
1453.44,1.334015,617697,28626
1456.64,1.333249,616264,28610
1459.85,1.334668,614413,28431
1463.04,1.333422,612307,28415
1466.24,1.334073,610032,28267
1469.43,1.335952,607345,28021
1473.67,1.333867,603789,27991
1476.85,1.336898,601175,27676
1480.02,1.335192,597737,27626
1483.19,1.336941,594479,27365
1486.36,1.339687,591232,27044
1489.52,1.340066,587853,26866
1492.68,1.335938,583875,26939
1496.89,1.338810,578062,26495
1500.03,1.339853,574159,26253
1503.18,1.337691,570285,26206
1506.32,1.339341,565444,25885
1509.45,1.334929,560571,25924
1512.58,1.342897,555821,25237
1515.71,1.338665,550344,25233
1519.87,1.338776,543983,24935
1522.99,1.338579,538764,24707
1526.1,1.345905,533692,24065
1529.21,1.334257,527902,24451
1532.32,1.343047,521886,23688
1535.42,1.339496,515888,23608
1538.51,1.337009,509987,23472
1541.6,1.326858,503936,23742
1545.72,1.343256,494694,22443
1548.8,1.335109,488378,22576
1551.88,1.338936,481832,22078
1554.95,1.334142,474989,22006
1558.02,1.340923,467818,21338
1561.08,1.330241,460730,21538
1564.15,1.334958,454170,21002
1568.22,1.340749,444181,20268
1571.27,1.339160,436947,20011
1574.32,1.324733,429598,20339
1577.36,1.347011,422039,18982
1580.4,1.329905,414375,19386
1583.43,1.333110,406354,18871
1586.46,1.330538,398475,18615
1590.49,1.331364,388982,18137
1593.51,1.324765,380708,18023
1596.53,1.330093,372727,17430
1599.54,1.328683,365060,17127
1602.55,1.324646,357543,16931
1605.55,1.317796,349495,16813
1608.55,1.329292,341154,15983
1612.54,1.329391,330877,15498
1615.53,1.322795,322904,15356
1618.51,1.323249,315116,14970
1621.49,1.326767,307217,14477
1624.47,1.317525,299481,14416
1627.44,1.328544,292112,13709
1630.41,1.331608,284245,13246
1634.36,1.322865,274079,13032
1637.32,1.332078,266916,12425
1640.27,1.310932,259612,12688
1643.22,1.321339,251804,12015
1646.16,1.325765,244348,11541
1649.1,1.312714,236703,11521
1652.04,1.322991,228171,10846
1655.95,1.320425,215408,10300
1658.88,1.286274,204937,10601
1661.8,1.287576,193395,9974
1664.72,1.270133,179728,9649
1667.63,1.272334,163642,8741
1670.54,1.266062,146312,7929
1673.44,1.259318,128451,7070
1677.31,1.219020,105080,6346
1680.21,1.262652,88906,4856
1683.1,1.256577,75033,4156
1685.99,1.195241,63520,4052
1688.87,1.229988,53714,3163
1691.75,1.309998,45653,2236
1694.62,1.275151,39137,2077
1697.49,1.307194,33776,1665
1701.31,1.145158,28175,2017