Folder: textile_sorting_NIRSCAN_/ML/samples/unknown (part 110)

File: Column 1_078790_20241121_172218.csv
Method:,Column 1,,
Host Date-Time:,21/11/24 @ 17:22:18,,
Header Version:,1,,
System Temp (C):,36.4,,
Detector Temp (C):,35.21,,
Humidity (%):,0.68,,
Lamp PD:,3797,,
Shift Vector Coefficients:,-10.5391,0.0761263,-0.000134223,,
Pixel to Wavelength Coefficients:,1775.68,-0.916766,-0.000235065,,
Serial Number:,5510004,,
Scan Config Name:,Column 1,,
Scan Config Type:,Slew,,
Section 1,,
Start wavelength (nm):,900,,
End wavelength (nm):,1700,,
Pattern Pixel Width (nm):,   7.03,,,,
Exposure (ms):,  0.635,,,,
Digital Resolution:,228,,
Num Repeats:,6,,
PGA Gain:,64,,
Total Measurement Time in sec:,  2.724,,
Wavelength (nm),Absorbance (AU),Reference Signal (unitless),Sample Signal (unitless)
901.51,1.323562,108485,5150
905.376,1.308490,121306,5962
909.237,1.351932,131909,5866
913.095,1.302423,143299,7142
916.948,1.277295,156982,8290
922.079,1.315801,179937,8696
925.923,1.329088,200504,9398
929.762,1.314017,222660,10805
933.597,1.318294,244426,11745
937.427,1.312520,263972,12854
941.254,1.322841,281845,13402
945.076,1.309216,297271,14586
950.165,1.319420,315605,15126
953.978,1.306210,328029,16207
957.786,1.314095,340470,16519
961.59,1.304715,352317,17467
965.389,1.298092,363056,18276
969.185,1.306513,373162,18424
972.976,1.305975,382632,18915
976.763,1.299348,391202,19636
981.806,1.305316,400190,19813
985.583,1.294753,406088,20600
989.355,1.294579,410162,20815
993.124,1.305075,412868,20452
996.888,1.308392,414263,20365
1000.65,1.297445,415476,20946
1004.4,1.306202,415479,20528
1009.41,1.310908,414358,20252
1013.15,1.302107,412923,20595
1016.89,1.299162,411526,20665
1020.63,1.296369,409066,20674
1024.36,1.309261,406777,19957
1028.09,1.302328,404427,20161
1031.82,1.299295,401911,20176
1036.78,1.294571,398410,20219
1040.49,1.304645,396204,19646
1044.2,1.310807,394236,19273
1047.91,1.305285,392042,19411
1051.61,1.306617,389823,19242
1055.31,1.294716,388234,19696
1059,1.302555,387599,19312
1063.92,1.310669,386688,18910
1067.61,1.309398,386598,18961
1071.29,1.305398,387377,19175
1074.96,1.316731,388536,18737
1078.63,1.309165,389855,19131
1082.3,1.314188,391215,18977
1085.96,1.316448,393215,18975
1090.84,1.314012,396270,19230
1094.49,1.313156,398760,19389
1098.14,1.312984,400987,19505
1101.79,1.310538,403477,19737
1105.43,1.304569,406116,20141
1109.06,1.316736,407701,19661
1112.7,1.313825,409859,19898
1117.53,1.316346,412494,19910
1121.15,1.308621,414909,20386
1124.77,1.315208,416559,20159
1128.38,1.316549,418532,20192
1131.99,1.318606,419956,20165
1135.6,1.306005,421946,20857
1139.2,1.327628,423881,19935
1143.99,1.308301,426786,20985
1147.58,1.317381,428617,20639
1151.17,1.320675,431169,20605
1154.75,1.320071,433579,20749
1158.33,1.314295,436264,21157
1161.91,1.305935,439132,21710
1165.48,1.307169,442389,21809
1169.04,1.309426,446101,21878
1173.79,1.308619,451929,22205
1177.34,1.308160,456026,22430
1180.9,1.315139,461306,22328
1184.44,1.308672,467657,22975
1187.99,1.312458,473969,23083
1191.52,1.308181,479856,23601
1195.06,1.315317,487372,23580
1199.76,1.307086,497347,24523
1203.29,1.319637,504311,24158
1206.81,1.318977,511507,24540
1210.33,1.316130,519078,25067
1213.84,1.320355,527163,25211
1217.35,1.319097,534208,25622
1220.85,1.322570,540472,25716
1225.51,1.320202,549929,26309
1229.01,1.323753,556888,26425
1232.5,1.316986,562180,27095
1235.98,1.314271,567975,27546
1239.46,1.319627,574815,27536
1242.94,1.316522,582782,28118
1246.41,1.316925,591476,28511
1251.03,1.326997,604016,28448
1254.5,1.318979,612289,29375
1257.96,1.317591,619125,29798
1261.41,1.327590,624551,29375
1264.86,1.323005,629900,29941
1268.31,1.331283,634345,29583
1271.75,1.318398,638574,30677
1276.33,1.321314,642499,30659
1279.76,1.324192,645905,30618
1283.19,1.325237,648307,30658
1286.61,1.323745,650446,30865
1290.03,1.321059,652132,31137
1293.44,1.318683,653907,31393
1296.85,1.323603,655963,31137
1301.39,1.319499,657349,31499
1304.8,1.326180,657558,31028
1308.19,1.324731,658515,31177
1311.58,1.329586,658804,30844
1314.97,1.325058,659011,31177
1318.36,1.324822,658272,31159
1321.73,1.326431,658022,31032
1326.23,1.322013,657870,31342
1329.6,1.330523,656482,30669
1332.97,1.325504,654926,30952
1336.33,1.326973,653727,30791
1339.69,1.324789,652497,30888
1343.04,1.324544,649913,30783
1346.39,1.324584,647671,30674
1349.73,1.326814,645338,30407
1354.18,1.324103,641175,30400
1357.52,1.325977,638376,30137
1360.85,1.320879,635805,30370
1364.17,1.318628,633413,30413
1367.49,1.322709,631026,30015
1370.81,1.323618,628050,29811
1374.12,1.322198,625034,29765
1378.54,1.324412,620272,29388
1381.84,1.321995,616892,29391
1385.14,1.324151,613613,29090
1388.43,1.320363,611526,29245
1391.72,1.326319,610663,28806
1395.01,1.317936,610634,29366
1398.29,1.325866,611700,28885
1402.66,1.329008,614051,28787
1405.93,1.324253,616268,29209
1409.2,1.323281,617795,29347
1412.46,1.321440,618872,29523
1415.72,1.326969,619795,29193
1418.98,1.324568,620495,29388
1422.23,1.328648,621087,29141
1426.56,1.324800,621375,29414
1429.8,1.334733,621616,28760
1433.04,1.331063,622129,29028
1436.27,1.329268,621526,29120
1439.5,1.327074,621113,29248
1442.72,1.325991,620921,29312
1445.94,1.329360,620270,29055
1450.23,1.330980,618860,28881
1453.44,1.333590,617697,28654
1456.64,1.332703,616264,28646
1459.85,1.328104,614413,28864
1463.04,1.334569,612307,28340
1466.24,1.334288,610032,28253
1469.43,1.328972,607345,28475
1473.67,1.325629,603789,28527
1476.85,1.328567,601175,28212
1480.02,1.329802,597737,27971
1483.19,1.330780,594479,27756
1486.36,1.334959,591232,27340
1489.52,1.333027,587853,27305
1492.68,1.333783,583875,27073
1496.89,1.340403,578062,26398
1500.03,1.329991,574159,26856
1503.18,1.334570,570285,26395
1506.32,1.333277,565444,26249
1509.45,1.330048,560571,26217
1512.58,1.328344,555821,26097
1515.71,1.330043,550344,25739
1519.87,1.329181,543983,25492
1522.99,1.334084,538764,24964
1526.1,1.329907,533692,24968
1529.21,1.336144,527902,24345
1532.32,1.336912,521886,24025
1535.42,1.325914,515888,24358
1538.51,1.333177,509987,23680
1541.6,1.336139,503936,23240
1545.72,1.338273,494694,22702
1548.8,1.326330,488378,23037
1551.88,1.332512,481832,22407
1554.95,1.329412,474989,22247
1558.02,1.336892,467818,21537
1561.08,1.326747,460730,21712
1564.15,1.336366,454170,20934
1568.22,1.324638,444181,21034
1571.27,1.335099,436947,20199
1574.32,1.334318,429598,19895
1577.36,1.333606,422039,19577
1580.4,1.331544,414375,19313
1583.43,1.327667,406354,19109
1586.46,1.327261,398475,18756
1590.49,1.324899,388982,18409
1593.51,1.332766,380708,17694
1596.53,1.320459,372727,17821
1599.54,1.324996,365060,17273
1602.55,1.320485,357543,17094
1605.55,1.327618,349495,16437
1608.55,1.317736,341154,16414
1612.54,1.324681,330877,15667
1615.53,1.326859,322904,15213
1618.51,1.324760,315116,14918
1621.49,1.326047,307217,14501
1624.47,1.325644,299481,14149
1627.44,1.304511,292112,14489
1630.41,1.313908,284245,13797
1634.36,1.306546,274079,13531
1637.32,1.317201,266916,12858
1640.27,1.311480,259612,12672
1643.22,1.302454,251804,12549
1646.16,1.316090,244348,11801
1649.1,1.299387,236703,11880
1652.04,1.314427,228171,11062
1655.95,1.319035,215408,10333
1658.88,1.286601,204937,10593
1661.8,1.285621,193395,10019
1664.72,1.249178,179728,10126
1667.63,1.244898,163642,9311
1670.54,1.225561,146312,8704
1673.44,1.205376,128451,8005
1677.31,1.177105,105080,6989
1680.21,1.148214,88906,6320
1683.1,1.153689,75033,5267
1685.99,1.138645,63520,4616
1688.87,1.147910,53714,3821
1691.75,1.159096,45653,3165
1694.62,1.140801,39137,2830
1697.49,1.150392,33776,2389
1701.31,1.102924,28175,2223

File: Column 1_078792_20241121_172224.csv
Method:,Column 1,,
Host Date-Time:,21/11/24 @ 17:22:24,,
Header Version:,1,,
System Temp (C):,36.52,,
Detector Temp (C):,35.25,,
Humidity (%):,0.83,,
Lamp PD:,3797,,
Shift Vector Coefficients:,-10.5391,0.0761263,-0.000134223,,
Pixel to Wavelength Coefficients:,1775.68,-0.916766,-0.000235065,,
Serial Number:,5510004,,
Scan Config Name:,Column 1,,
Scan Config Type:,Slew,,
Section 1,,
Start wavelength (nm):,900,,
End wavelength (nm):,1700,,
Pattern Pixel Width (nm):,   7.03,,,,
Exposure (ms):,  0.635,,,,
Digital Resolution:,228,,
Num Repeats:,6,,
PGA Gain:,64,,
Total Measurement Time in sec:,  2.708,,
Wavelength (nm),Absorbance (AU),Reference Signal (unitless),Sample Signal (unitless)
901.51,1.319868,108485,5194
905.376,1.313546,121306,5893
909.237,1.333807,131909,6116
913.095,1.336239,143299,6607
916.948,1.319113,156982,7529
922.079,1.325650,179937,8501
925.923,1.326921,200504,9445
929.762,1.335311,222660,10288
933.597,1.326921,244426,11514
937.427,1.313162,263972,12835
941.254,1.330589,281845,13165
945.076,1.314941,297271,14395
950.165,1.324851,315605,14938
953.978,1.306612,328029,16192
957.786,1.319545,340470,16313
961.59,1.306534,352317,17394
965.389,1.296859,363056,18328
969.185,1.316770,373162,17994
972.976,1.308554,382632,18803
976.763,1.300899,391202,19566
981.806,1.307249,400190,19725
985.583,1.311955,406088,19800
989.355,1.309198,410162,20126
993.124,1.309729,412868,20234
996.888,1.306647,414263,20447
1000.65,1.305798,415476,20547
1004.4,1.312596,415479,20228
1009.41,1.304479,414358,20554
1013.15,1.307668,412923,20333
1016.89,1.306367,411526,20325
1020.63,1.316336,409066,19745
1024.36,1.306506,406777,20084
1028.09,1.298874,404427,20322
1031.82,1.309267,401911,19718
1036.78,1.310697,398410,19482
1040.49,1.299830,396204,19865
1044.2,1.307955,394236,19400
1047.91,1.313073,392042,19066
1051.61,1.298545,389823,19603
1055.31,1.302278,388234,19356
1059,1.313348,387599,18838
1063.92,1.314406,386688,18748
1067.61,1.316977,386598,18633
1071.29,1.310089,387377,18969
1074.96,1.312878,388536,18904
1078.63,1.308258,389855,19171
1082.3,1.311246,391215,19106
1085.96,1.310673,393215,19229
1090.84,1.314509,396270,19208
1094.49,1.316507,398760,19240
1098.14,1.316225,400987,19360
1101.79,1.326540,403477,19023
1105.43,1.317703,406116,19541
1109.06,1.320196,407701,19505
1112.7,1.312278,409859,19969
1117.53,1.322387,412494,19635
1121.15,1.311421,414909,20255
1124.77,1.309982,416559,20403
1128.38,1.321351,418532,19970
1131.99,1.314853,419956,20340
1135.6,1.319841,421946,20203
1139.2,1.319855,423881,20295
1143.99,1.313255,426786,20747
1147.58,1.317044,428617,20655
1151.17,1.313795,431169,20934
1154.75,1.314911,433579,20997
1158.33,1.322271,436264,20772
1161.91,1.314930,439132,21265
1165.48,1.318732,442389,21236
1169.04,1.317358,446101,21482
1173.79,1.316016,451929,21830
1177.34,1.315305,456026,22064
1180.9,1.319067,461306,22127
1184.44,1.319854,467657,22391
1187.99,1.312872,473969,23061
1191.52,1.320858,479856,22922
1195.06,1.321251,487372,23260
1199.76,1.316629,497347,23990
1203.29,1.326432,504311,23783
1206.81,1.321408,511507,24403
1210.33,1.318092,519078,24954
1213.84,1.324561,527163,24968
1217.35,1.317963,534208,25689
1220.85,1.317099,540472,26042
1225.51,1.322437,549929,26174
1229.01,1.322915,556888,26476
1232.5,1.325075,562180,26595
1235.98,1.326924,567975,26755
1239.46,1.317503,574815,27671
1242.94,1.320556,582782,27858
1246.41,1.322089,591476,28174
1251.03,1.324804,604016,28592
1254.5,1.325098,612289,28964
1257.96,1.325281,619125,29275
1261.41,1.320304,624551,29872
1264.86,1.317485,629900,30324
1268.31,1.320596,634345,30320
1271.75,1.321924,638574,30429
1276.33,1.328312,642499,30169
1279.76,1.324561,645905,30592
1283.19,1.319887,648307,31038
1286.61,1.319391,650446,31176
1290.03,1.331291,652132,30412
1293.44,1.330121,653907,30577
1296.85,1.329274,655963,30733
1301.39,1.327472,657349,30926
1304.8,1.326376,657558,31014
1308.19,1.329634,658515,30827
1311.58,1.326163,658804,31088
1314.97,1.331867,659011,30692
1318.36,1.327156,658272,30992
1321.73,1.328085,658022,30914
1326.23,1.330662,657870,30724
1329.6,1.322053,656482,31273
1332.97,1.331323,654926,30540
1336.33,1.325832,653727,30872
1339.69,1.328049,652497,30657
1343.04,1.325703,649913,30701
1346.39,1.327710,647671,30454
1349.73,1.322635,645338,30701
1354.18,1.325849,641175,30278
1357.52,1.328694,638376,29949
1360.85,1.323705,635805,30173
1364.17,1.323221,633413,30093
1367.49,1.320515,631026,30167
1370.81,1.329455,628050,29413
1374.12,1.327970,625034,29372
1378.54,1.325640,620272,29305
1381.84,1.326555,616892,29084
1385.14,1.322928,613613,29172
1388.43,1.320467,611526,29238
1391.72,1.320240,610663,29212
1395.01,1.323099,610634,29019
1398.29,1.324051,611700,29006
1402.66,1.329597,614051,28748
1405.93,1.328962,616268,28894
1409.2,1.326802,617795,29110
1412.46,1.331937,618872,28818
1415.72,1.325262,619795,29308
1418.98,1.328935,620495,29094
1422.23,1.331369,621087,28959
1426.56,1.332727,621375,28882
1429.8,1.332820,621616,28887
1433.04,1.328602,622129,29193
1436.27,1.328746,621526,29155
1439.5,1.336046,621113,28650
1442.72,1.330085,620921,29037
1445.94,1.334729,620270,28698
1450.23,1.336854,618860,28493
1453.44,1.328632,617697,28983
1456.64,1.336433,616264,28401
1459.85,1.332565,614413,28569
1463.04,1.331774,612307,28523
1466.24,1.328546,610032,28629
1469.43,1.334050,607345,28144
1473.67,1.328179,603789,28360
1476.85,1.341488,601175,27385
1480.02,1.333278,597737,27748
1483.19,1.327134,594479,27990
1486.36,1.329874,591232,27662
1489.52,1.333377,587853,27283
1492.68,1.339272,583875,26733
1496.89,1.334148,578062,26781
1500.03,1.339142,574159,26296
1503.18,1.339235,570285,26113
1506.32,1.337550,565444,25992
1509.45,1.330810,560571,26171
1512.58,1.336169,555821,25631
1515.71,1.330076,550344,25737
1519.87,1.334737,543983,25168
1522.99,1.332626,538764,25048
1526.1,1.343996,533692,24171
1529.21,1.329892,527902,24698
1532.32,1.334982,521886,24132
1535.42,1.336490,515888,23772
1538.51,1.341080,509987,23253
1541.6,1.329243,503936,23612
1545.72,1.331383,494694,23065
1548.8,1.325708,488378,23070
1551.88,1.329749,481832,22550
1554.95,1.331663,474989,22132
1558.02,1.332238,467818,21769
1561.08,1.336251,460730,21242
1564.15,1.340493,454170,20736
1568.22,1.327102,444181,20915
1571.27,1.329268,436947,20472
1574.32,1.319448,429598,20588
1577.36,1.325214,422039,19959
1580.4,1.340472,414375,18920
1583.43,1.327621,406354,19111
1586.46,1.326798,398475,18776
1590.49,1.322805,388982,18498
1593.51,1.325199,380708,18005
1596.53,1.333998,372727,17274
1599.54,1.328810,365060,17122
1602.55,1.335476,357543,16514
1605.55,1.327618,349495,16437
1608.55,1.313183,341154,16587
1612.54,1.319966,330877,15838
1615.53,1.316088,322904,15595
1618.51,1.309570,315116,15449
1621.49,1.326377,307217,14490
1624.47,1.310858,299481,14639
1627.44,1.326742,292112,13766
1630.41,1.324067,284245,13478
1634.36,1.321966,274079,13059
1637.32,1.314810,266916,12929
1640.27,1.318354,259612,12473
1643.22,1.320941,251804,12026
1646.16,1.316090,244348,11801
1649.1,1.311359,236703,11557
1652.04,1.320396,228171,10911
1655.95,1.314853,215408,10433
1658.88,1.284965,204937,10633
1661.8,1.301648,193395,9656
1664.72,1.269998,179728,9652
1667.63,1.261538,163642,8961
1670.54,1.239968,146312,8420
1673.44,1.202187,128451,8064
1677.31,1.162382,105080,7230
1680.21,1.198577,88906,5628
1683.1,1.133313,75033,5520
1685.99,1.163026,63520,4364
1688.87,1.138689,53714,3903
1691.75,1.162263,45653,3142
1694.62,1.088525,39137,3192
1697.49,1.250312,33776,1898
1701.31,1.101559,28175,2230

File: Column 1_078800_20241121_172247.csv
Method:,Column 1,,
Host Date-Time:,21/11/24 @ 17:22:47,,
Header Version:,1,,
System Temp (C):,36.56,,
Detector Temp (C):,35.29,,
Humidity (%):,0.63,,
Lamp PD:,3797,,
Shift Vector Coefficients:,-10.5391,0.0761263,-0.000134223,,
Pixel to Wavelength Coefficients:,1775.68,-0.916766,-0.000235065,,
Serial Number:,5510004,,
Scan Config Name:,Column 1,,
Scan Config Type:,Slew,,
Section 1,,
Start wavelength (nm):,900,,
End wavelength (nm):,1700,,
Pattern Pixel Width (nm):,   7.03,,,,
Exposure (ms):,  0.635,,,,
Digital Resolution:,228,,
Num Repeats:,6,,
PGA Gain:,64,,
Total Measurement Time in sec:,  2.723,,
Wavelength (nm),Absorbance (AU),Reference Signal (unitless),Sample Signal (unitless)
901.51,1.315376,108485,5248
905.376,1.336005,121306,5596
909.237,1.322107,131909,6283
913.095,1.320870,143299,6845
916.948,1.325387,156982,7421
922.079,1.354098,179937,7962
925.923,1.336075,200504,9248
929.762,1.327322,222660,10479
933.597,1.330900,244426,11409
937.427,1.330032,263972,12346
941.254,1.319226,281845,13514
945.076,1.313646,297271,14438
950.165,1.314793,315605,15288
953.978,1.310059,328029,16064
957.786,1.329182,340470,15955
961.59,1.323516,352317,16727
965.389,1.322430,363056,17280
969.185,1.316528,373162,18004
972.976,1.313689,382632,18582
976.763,1.315755,391202,18908
981.806,1.306150,400190,19775
985.583,1.306462,406088,20052
989.355,1.305096,410162,20317
993.124,1.305033,412868,20454
996.888,1.308797,414263,20346
1000.65,1.304531,415476,20607
1004.4,1.302852,415479,20687
1009.41,1.298270,414358,20850
1013.15,1.311788,412923,20141
1016.89,1.313194,411526,20008
1020.63,1.299828,409066,20510
1024.36,1.300110,406777,20382
1028.09,1.309693,404427,19822
1031.82,1.308365,401911,19759
1036.78,1.301085,398410,19918
1040.49,1.309290,396204,19437
1044.2,1.311461,394236,19244
1047.91,1.309489,392042,19224
1051.61,1.309016,389823,19136
1055.31,1.302413,388234,19350
1059,1.307122,387599,19110
1063.92,1.308539,386688,19003
1067.61,1.304185,386598,19190
1071.29,1.303771,387377,19247
1074.96,1.312143,388536,18936
1078.63,1.310575,389855,19069
1082.3,1.307624,391215,19266
1085.96,1.318789,393215,18873
1090.84,1.314102,396270,19226
1094.49,1.312798,398760,19405
1098.14,1.314278,400987,19447
1101.79,1.311176,403477,19708
1105.43,1.324332,406116,19245
1109.06,1.315765,407701,19705
1112.7,1.316189,409859,19790
1117.53,1.312632,412494,20081
1121.15,1.322540,414909,19743
1124.77,1.325321,416559,19695
1128.38,1.323596,418532,19867
1131.99,1.313765,419956,20391
1135.6,1.320121,421946,20190
1139.2,1.320326,423881,20273
1143.99,1.324687,426786,20208
1147.58,1.321844,428617,20428
1151.17,1.323169,431169,20487
1154.75,1.324510,433579,20538
1158.33,1.316456,436264,21052
1161.91,1.310803,439132,21468
1165.48,1.319653,442389,21191
1169.04,1.315865,446101,21556
1173.79,1.316594,451929,21801
1177.34,1.316606,456026,21998
1180.9,1.315451,461306,22312
1184.44,1.315051,467657,22640
1187.99,1.318864,473969,22745
1191.52,1.315473,479856,23208
1195.06,1.309699,487372,23887
1199.76,1.318789,497347,23871
1203.29,1.314260,504311,24459
1206.81,1.321729,511507,24385
1210.33,1.322624,519078,24695
1213.84,1.317094,527163,25401
1217.35,1.318268,534208,25671
1220.85,1.318720,540472,25945
1225.51,1.323783,549929,26093
1229.01,1.321801,556888,26544
1232.5,1.317339,562180,27073
1235.98,1.318803,567975,27260
1239.46,1.320527,574815,27479
1242.94,1.320494,582782,27862
1246.41,1.316772,591476,28521
1251.03,1.315056,604016,29241
1254.5,1.320593,612289,29266
1257.96,1.324259,619125,29344
1261.41,1.320740,624551,29842
1264.86,1.325041,629900,29801
1268.31,1.319066,634345,30427
1271.75,1.328119,638574,29998
1276.33,1.326115,642499,30322
1279.76,1.326125,645905,30482
1283.19,1.323089,648307,30810
1286.61,1.335873,650446,30015
1290.03,1.329324,652132,30550
1293.44,1.325825,653907,30881
1296.85,1.327779,655963,30839
1301.39,1.325161,657349,31091
1304.8,1.323668,657558,31208
1308.19,1.324815,658515,31171
1311.58,1.328082,658804,30951
1314.97,1.322891,659011,31333
1318.36,1.323875,658272,31227
1321.73,1.327397,658022,30963
1326.23,1.333769,657870,30505
1329.6,1.329618,656482,30733
1332.97,1.327952,654926,30778
1336.33,1.330144,653727,30567
1339.69,1.329098,652497,30583
1343.04,1.330553,649913,30360
1346.39,1.327639,647671,30459
1349.73,1.333666,645338,29931
1354.18,1.327646,641175,30153
1357.52,1.328839,638376,29939
1360.85,1.322871,635805,30231
1364.17,1.327252,633413,29815
1367.49,1.324710,631026,29877
1370.81,1.325940,628050,29652
1374.12,1.329926,625034,29240
1378.54,1.327973,620272,29148
1381.84,1.325779,616892,29136
1385.14,1.323912,613613,29106
1388.43,1.325998,611526,28868
1391.72,1.324258,610663,28943
1395.01,1.317301,610634,29409
1398.29,1.327206,611700,28796
1402.66,1.324461,614051,29090
1405.93,1.325608,616268,29118
1409.2,1.335695,617795,28520
1412.46,1.325609,618872,29241
1415.72,1.331005,619795,28923
1418.98,1.321461,620495,29599
1422.23,1.328812,621087,29130
1426.56,1.325982,621375,29334
1429.8,1.328735,621616,29160
1433.04,1.322530,622129,29604
1436.27,1.327913,621526,29211
1439.5,1.336228,621113,28638
1442.72,1.331493,620921,28943
1445.94,1.335047,620270,28677
1450.23,1.330980,618860,28881
1453.44,1.334880,617697,28569
1456.64,1.330088,616264,28819
1459.85,1.328993,614413,28805
1463.04,1.331454,612307,28544
1466.24,1.333689,610032,28292
1469.43,1.332909,607345,28218
1473.67,1.329175,603789,28295
1476.85,1.333973,601175,27863
1480.02,1.332200,597737,27817
1483.19,1.332206,594479,27665
1486.36,1.336360,591232,27252
1489.52,1.338259,587853,26978
1492.68,1.335600,583875,26960
1496.89,1.326289,578062,27270
1500.03,1.338911,574159,26310
1503.18,1.327811,570285,26809
1506.32,1.334652,565444,26166
1509.45,1.330827,560571,26170
1512.58,1.336390,555821,25618
1515.71,1.331445,550344,25656
1519.87,1.333496,543983,25240
1522.99,1.338262,538764,24725
1526.1,1.333733,533692,24749
1529.21,1.332590,527902,24545
1532.32,1.334964,521886,24133
1535.42,1.330574,515888,24098
1538.51,1.330672,509987,23817
1541.6,1.333382,503936,23388
1545.72,1.333138,494694,22972
1548.8,1.334763,488378,22594
1551.88,1.341679,481832,21939
1554.95,1.332980,474989,22065
1558.02,1.339075,467818,21429
1561.08,1.324990,460730,21800
1564.15,1.333657,454170,21065
1568.22,1.337419,444181,20424
1571.27,1.330650,436947,20407
1574.32,1.336660,429598,19788
1577.36,1.332565,422039,19624
1580.4,1.334228,414375,19194
1583.43,1.336019,406354,18745
1586.46,1.327122,398475,18762
1590.49,1.324451,388982,18428
1593.51,1.324524,380708,18033
1596.53,1.328427,372727,17497
1599.54,1.334298,365060,16907
1602.55,1.325236,357543,16908
1605.55,1.323150,349495,16607
1608.55,1.320683,341154,16303
1612.54,1.314679,330877,16032
1615.53,1.322371,322904,15371
1618.51,1.315685,315116,15233
1621.49,1.317653,307217,14784
1624.47,1.318550,299481,14382
1627.44,1.329368,292112,13683
1630.41,1.317861,284245,13672
1634.36,1.305008,274079,13579
1637.32,1.314776,266916,12930
1640.27,1.317206,259612,12506
1643.22,1.317632,251804,12118
1646.16,1.313704,244348,11866
1649.1,1.302101,236703,11806
1652.04,1.312742,228171,11105
1655.95,1.292343,215408,10988
1658.88,1.276631,204937,10839
1661.8,1.292700,193395,9857
1664.72,1.260519,179728,9865
1667.63,1.240813,163642,9399
1670.54,1.241414,146312,8392
1673.44,1.220446,128451,7732
1677.31,1.187227,105080,6828
1680.21,1.174341,88906,5951
1683.1,1.129475,75033,5569
1685.99,1.176776,63520,4228
1688.87,1.177419,53714,3570
1691.75,1.114905,45653,3504
1694.62,1.204486,39137,2444
1697.49,1.170673,33776,2280
1701.31,1.191706,28175,1812