Folder: textile_sorting_NIRSCAN_/ML/samples/unknown (part 43)

File: Column 1_078266_20241121_165338.csv
Method:,Column 1,,
Host Date-Time:,21/11/24 @ 16:53:38,,
Header Version:,1,,
System Temp (C):,34.33,,
Detector Temp (C):,32.09,,
Humidity (%):,2.45,,
Lamp PD:,3802,,
Shift Vector Coefficients:,-10.5391,0.0761263,-0.000134223,,
Pixel to Wavelength Coefficients:,1775.68,-0.916766,-0.000235065,,
Serial Number:,5510004,,
Scan Config Name:,Column 1,,
Scan Config Type:,Slew,,
Section 1,,
Start wavelength (nm):,900,,
End wavelength (nm):,1700,,
Pattern Pixel Width (nm):,   7.03,,,,
Exposure (ms):,  0.635,,,,
Digital Resolution:,228,,
Num Repeats:,6,,
PGA Gain:,64,,
Total Measurement Time in sec:,  2.728,,
Wavelength (nm),Absorbance (AU),Reference Signal (unitless),Sample Signal (unitless)
901.51,1.311586,108485,5294
905.376,1.312148,121306,5912
909.237,1.329919,131909,6171
913.095,1.312948,143299,6971
916.948,1.310319,156982,7683
922.079,1.318506,179937,8642
925.923,1.319400,200504,9610
929.762,1.324266,222660,10553
933.597,1.321449,244426,11660
937.427,1.326598,263972,12444
941.254,1.308906,281845,13839
945.076,1.314579,297271,14407
950.165,1.308308,315605,15518
953.978,1.306612,328029,16192
957.786,1.318880,340470,16338
961.59,1.312543,352317,17155
965.389,1.318901,363056,17421
969.185,1.308735,373162,18330
972.976,1.308416,382632,18809
976.763,1.308399,391202,19231
981.806,1.310077,400190,19597
985.583,1.314154,406088,19700
989.355,1.312643,410162,19967
993.124,1.318357,412868,19836
996.888,1.315704,414263,20025
1000.65,1.315717,415476,20083
1004.4,1.311802,415479,20265
1009.41,1.303888,414358,20582
1013.15,1.307177,412923,20356
1016.89,1.308079,411526,20245
1020.63,1.317107,409066,19710
1024.36,1.307480,406777,20039
1028.09,1.310636,404427,19779
1031.82,1.306632,401911,19838
1036.78,1.308251,398410,19592
1040.49,1.317272,396204,19083
1044.2,1.307843,394236,19405
1047.91,1.305710,392042,19392
1051.61,1.307928,389823,19184
1055.31,1.310454,388234,18995
1059,1.315474,387599,18746
1063.92,1.305215,386688,19149
1067.61,1.302897,386598,19247
1071.29,1.307669,387377,19075
1074.96,1.323388,388536,18452
1078.63,1.321998,389855,18574
1082.3,1.316943,391215,18857
1085.96,1.314279,393215,19070
1090.84,1.313651,396270,19246
1094.49,1.310343,398760,19515
1098.14,1.324926,400987,18976
1101.79,1.321140,403477,19261
1105.43,1.315044,406116,19661
1109.06,1.323235,407701,19369
1112.7,1.315728,409859,19811
1117.53,1.325294,412494,19504
1121.15,1.323420,414909,19703
1124.77,1.319951,416559,19940
1128.38,1.321546,418532,19961
1131.99,1.321284,419956,20041
1135.6,1.316522,421946,20358
1139.2,1.318253,423881,20370
1143.99,1.322051,426786,20331
1147.58,1.305775,428617,21198
1151.17,1.330006,431169,20167
1154.75,1.320762,433579,20716
1158.33,1.317055,436264,21023
1161.91,1.324469,439132,20803
1165.48,1.329813,442389,20701
1169.04,1.316369,446101,21531
1173.79,1.320094,451929,21626
1177.34,1.325280,456026,21563
1180.9,1.319990,461306,22080
1184.44,1.311612,467657,22820
1187.99,1.322623,473969,22549
1191.52,1.320991,479856,22915
1195.06,1.318070,487372,23431
1199.76,1.313886,497347,24142
1203.29,1.322867,504311,23979
1206.81,1.320466,511507,24456
1210.33,1.324050,519078,24614
1213.84,1.326426,527163,24861
1217.35,1.320065,534208,25565
1220.85,1.328675,540472,25357
1225.51,1.328367,549929,25819
1229.01,1.332200,556888,25916
1232.5,1.322925,562180,26727
1235.98,1.323851,567975,26945
1239.46,1.327040,574815,27070
1242.94,1.327423,582782,27421
1246.41,1.326271,591476,27904
1251.03,1.327592,604016,28409
1254.5,1.325818,612289,28916
1257.96,1.326559,619125,29189
1261.41,1.331421,624551,29117
1264.86,1.335349,629900,29102
1268.31,1.326683,634345,29898
1271.75,1.326515,638574,30109
1276.33,1.328081,642499,30185
1279.76,1.329199,645905,30267
1283.19,1.333416,648307,30086
1286.61,1.332271,650446,30265
1290.03,1.330121,652132,30494
1293.44,1.330718,653907,30535
1296.85,1.327610,655963,30851
1301.39,1.336712,657349,30275
1304.8,1.334846,657558,30415
1308.19,1.339826,658515,30112
1311.58,1.330685,658804,30766
1314.97,1.334109,659011,30534
1318.36,1.338269,658272,30209
1321.73,1.335924,658022,30361
1326.23,1.336253,657870,30331
1329.6,1.334635,656482,30380
1332.97,1.332334,654926,30469
1336.33,1.333538,653727,30329
1339.69,1.330963,652497,30452
1343.04,1.337722,649913,29863
1346.39,1.335901,647671,29885
1349.73,1.332029,645338,30044
1354.18,1.332556,641175,29814
1357.52,1.327189,638376,30053
1360.85,1.333105,635805,29527
1364.17,1.336036,633413,29218
1367.49,1.330019,631026,29514
1370.81,1.327496,628050,29546
1374.12,1.332967,625034,29036
1378.54,1.325092,620272,29342
1381.84,1.330922,616892,28793
1385.14,1.331164,613613,28624
1388.43,1.327596,611526,28762
1391.72,1.333647,610663,28324
1395.01,1.332340,610634,28408
1398.29,1.329414,611700,28650
1402.66,1.328706,614051,28807
1405.93,1.330377,616268,28800
1409.2,1.326862,617795,29106
1412.46,1.330012,618872,28946
1415.72,1.331636,619795,28881
1418.98,1.337087,620495,28553
1422.23,1.328052,621087,29181
1426.56,1.332787,621375,28878
1429.8,1.332054,621616,28938
1433.04,1.335499,622129,28733
1436.27,1.334867,621526,28747
1439.5,1.334956,621113,28722
1442.72,1.331808,620921,28922
1445.94,1.337660,620270,28505
1450.23,1.332864,618860,28756
1453.44,1.329127,617697,28950
1456.64,1.341958,616264,28042
1459.85,1.330700,614413,28692
1463.04,1.335567,612307,28275
1466.24,1.335242,610032,28191
1469.43,1.342448,607345,27605
1473.67,1.334783,603789,27932
1476.85,1.337746,601175,27622
1480.02,1.338617,597737,27409
1483.19,1.332536,594479,27644
1486.36,1.338420,591232,27123
1489.52,1.337776,587853,27008
1492.68,1.333896,583875,27066
1496.89,1.338516,578062,26513
1500.03,1.338169,574159,26355
1503.18,1.339734,570285,26083
1506.32,1.336865,565444,26033
1509.45,1.344344,560571,25368
1512.58,1.337952,555821,25526
1515.71,1.341411,550344,25074
1519.87,1.344544,543983,24606
1522.99,1.335810,538764,24865
1526.1,1.336744,533692,24578
1529.21,1.334843,527902,24418
1532.32,1.334299,521886,24170
1535.42,1.338614,515888,23656
1538.51,1.343440,509987,23127
1541.6,1.333810,503936,23365
1545.72,1.337603,494694,22737
1548.8,1.334033,488378,22632
1551.88,1.345616,481832,21741
1554.95,1.338686,474989,21777
1558.02,1.329415,467818,21911
1561.08,1.338855,460730,21115
1564.15,1.335123,454170,20994
1568.22,1.346248,444181,20013
1571.27,1.339051,436947,20016
1574.32,1.336046,429598,19816
1577.36,1.335006,422039,19514
1580.4,1.328988,414375,19427
1583.43,1.340256,406354,18563
1586.46,1.330631,398475,18611
1590.49,1.328667,388982,18250
1593.51,1.333405,380708,17668
1596.53,1.347091,372727,16761
1599.54,1.340194,365060,16679
1602.55,1.327606,357543,16816
1605.55,1.328200,349495,16415
1608.55,1.323114,341154,16212
1612.54,1.327155,330877,15578
1615.53,1.319920,322904,15458
1618.51,1.327417,315116,14827
1621.49,1.334546,307217,14220
1624.47,1.320821,299481,14307
1627.44,1.334187,292112,13532
1630.41,1.319165,284245,13631
1634.36,1.331923,274079,12763
1637.32,1.324181,266916,12653
1640.27,1.314437,259612,12586
1643.22,1.318205,251804,12102
1646.16,1.319971,244348,11696
1649.1,1.319744,236703,11336
1652.04,1.302195,228171,11378
1655.95,1.312031,215408,10501
1658.88,1.304001,204937,10177
1661.8,1.294599,193395,9814
1664.72,1.286600,179728,9290
1667.63,1.273976,163642,8708
1670.54,1.255617,146312,8122
1673.44,1.234720,128451,7482
1677.31,1.236190,105080,6100
1680.21,1.254063,88906,4953
1683.1,1.226307,75033,4456
1685.99,1.237535,63520,3676
1688.87,1.189758,53714,3470
1691.75,1.188178,45653,2960
1694.62,1.245843,39137,2222
1697.49,1.179136,33776,2236
1701.31,1.272905,28175,1503

File: Column 1_078269_20241121_165347.csv
Method:,Column 1,,
Host Date-Time:,21/11/24 @ 16:53:47,,
Header Version:,1,,
System Temp (C):,34.22,,
Detector Temp (C):,32.09,,
Humidity (%):,2.45,,
Lamp PD:,3802,,
Shift Vector Coefficients:,-10.5391,0.0761263,-0.000134223,,
Pixel to Wavelength Coefficients:,1775.68,-0.916766,-0.000235065,,
Serial Number:,5510004,,
Scan Config Name:,Column 1,,
Scan Config Type:,Slew,,
Section 1,,
Start wavelength (nm):,900,,
End wavelength (nm):,1700,,
Pattern Pixel Width (nm):,   7.03,,,,
Exposure (ms):,  0.635,,,,
Digital Resolution:,228,,
Num Repeats:,6,,
PGA Gain:,64,,
Total Measurement Time in sec:,  2.728,,
Wavelength (nm),Absorbance (AU),Reference Signal (unitless),Sample Signal (unitless)
901.51,1.320621,108485,5185
905.376,1.335307,121306,5605
909.237,1.329637,131909,6175
913.095,1.315886,143299,6924
916.948,1.343553,156982,7117
922.079,1.325804,179937,8498
925.923,1.309084,200504,9841
929.762,1.337385,222660,10239
933.597,1.326846,244426,11516
937.427,1.334238,263972,12227
941.254,1.312087,281845,13738
945.076,1.312534,297271,14475
950.165,1.325142,315605,14928
953.978,1.311494,328029,16011
957.786,1.312390,340470,16584
961.59,1.324712,352317,16681
965.389,1.309895,363056,17786
969.185,1.308403,373162,18344
972.976,1.304554,382632,18977
976.763,1.304532,391202,19403
981.806,1.312053,400190,19508
985.583,1.310707,406088,19857
989.355,1.309867,410162,20095
993.124,1.302134,412868,20591
996.888,1.309866,414263,20296
1000.65,1.310750,415476,20314
1004.4,1.305547,415479,20559
1009.41,1.315565,414358,20036
1013.15,1.309616,412923,20242
1016.89,1.315152,411526,19918
1020.63,1.307669,409066,20143
1024.36,1.310372,406777,19906
1028.09,1.318747,404427,19413
1031.82,1.307355,401911,19805
1036.78,1.307255,398410,19637
1040.49,1.312564,396204,19291
1044.2,1.314291,394236,19119
1047.91,1.317768,392042,18861
1051.61,1.313144,389823,18955
1055.31,1.318159,388234,18661
1059,1.316100,387599,18719
1063.92,1.310164,386688,18932
1067.61,1.309375,386598,18962
1071.29,1.315411,387377,18738
1074.96,1.317683,388536,18696
1078.63,1.312104,389855,19002
1082.3,1.303764,391215,19438
1085.96,1.315808,393215,19003
1090.84,1.322150,396270,18873
1094.49,1.315267,398760,19295
1098.14,1.317776,400987,19291
1101.79,1.318712,403477,19369
1105.43,1.309972,406116,19892
1109.06,1.315942,407701,19697
1112.7,1.317353,409859,19737
1117.53,1.314974,412494,19973
1121.15,1.323751,414909,19688
1124.77,1.328530,416559,19550
1128.38,1.321546,418532,19961
1131.99,1.320851,419956,20061
1135.6,1.325205,421946,19955
1139.2,1.322603,423881,20167
1143.99,1.321667,426786,20349
1147.58,1.320040,428617,20513
1151.17,1.327387,431169,20289
1154.75,1.320553,433579,20726
1158.33,1.320060,436264,20878
1161.91,1.320376,439132,21000
1165.48,1.312942,442389,21521
1169.04,1.316107,446101,21544
1173.79,1.317811,451929,21740
1177.34,1.324817,456026,21586
1180.9,1.318929,461306,22134
1184.44,1.318827,467657,22444
1187.99,1.326181,473969,22365
1191.52,1.321370,479856,22895
1195.06,1.321456,487372,23249
1199.76,1.326683,497347,23441
1203.29,1.318722,504311,24209
1206.81,1.323245,511507,24300
1210.33,1.322852,519078,24682
1213.84,1.330410,527163,24634
1217.35,1.326362,534208,25197
1220.85,1.333757,540472,25062
1225.51,1.329007,549929,25781
1229.01,1.326258,556888,26273
1232.5,1.325860,562180,26547
1235.98,1.322805,567975,27010
1239.46,1.325742,574815,27151
1242.94,1.326268,582782,27494
1246.41,1.321796,591476,28193
1251.03,1.327104,604016,28441
1254.5,1.327112,612289,28830
1257.96,1.330280,619125,28940
1261.41,1.325658,624551,29506
1264.86,1.329553,629900,29493
1268.31,1.330638,634345,29627
1271.75,1.328438,638574,29976
1276.33,1.326817,642499,30273
1279.76,1.322762,645905,30719
1283.19,1.326556,648307,30565
1286.61,1.333650,650446,30169
1290.03,1.333969,652132,30225
1293.44,1.330079,653907,30580
1296.85,1.331016,655963,30610
1301.39,1.337099,657349,30248
1304.8,1.337783,657558,30210
1308.19,1.327695,658515,30965
1311.58,1.333461,658804,30570
1314.97,1.329609,659011,30852
1318.36,1.331295,658272,30698
1321.73,1.332846,658022,30577
1326.23,1.329307,657870,30820
1329.6,1.330438,656482,30675
1332.97,1.331053,654926,30559
1336.33,1.331282,653727,30487
1339.69,1.332034,652497,30377
1343.04,1.337984,649913,29845
1346.39,1.333019,647671,30084
1349.73,1.337719,645338,29653
1354.18,1.329378,641175,30033
1357.52,1.329246,638376,29911
1360.85,1.333222,635805,29519
1364.17,1.331865,633413,29500
1367.49,1.332484,631026,29347
1370.81,1.327672,628050,29534
1374.12,1.331563,625034,29130
1378.54,1.331654,620272,28902
1381.84,1.333115,616892,28648
1385.14,1.324793,613613,29047
1388.43,1.329533,611526,28634
1391.72,1.330241,610663,28547
1395.01,1.326388,610634,28800
1398.29,1.331907,611700,28486
1402.66,1.327908,614051,28860
1405.93,1.335748,616268,28446
1409.2,1.329977,617795,28898
1412.46,1.338588,618872,28380
1415.72,1.333338,619795,28768
1418.98,1.336220,620495,28610
1422.23,1.332721,621087,28869
1426.56,1.330387,621375,29038
1429.8,1.334990,621616,28743
1433.04,1.334639,622129,28790
1436.27,1.333660,621526,28827
1439.5,1.337565,621113,28550
1442.72,1.334308,620921,28756
1445.94,1.331788,620270,28893
1450.23,1.333257,618860,28730
1453.44,1.336770,617697,28445
1456.64,1.332324,616264,28671
1459.85,1.337042,614413,28276
1463.04,1.331865,612307,28517
1466.24,1.337157,610032,28067
1469.43,1.335178,607345,28071
1473.67,1.333619,603789,28007
1476.85,1.337620,601175,27630
1480.02,1.340873,597737,27267
1483.19,1.344368,594479,26901
1486.36,1.337365,591232,27189
1489.52,1.341588,587853,26772
1492.68,1.334506,583875,27028
1496.89,1.334196,578062,26778
1500.03,1.339622,574159,26267
1503.18,1.336235,570285,26294
1506.32,1.342321,565444,25708
1509.45,1.332323,560571,26080
1512.58,1.337510,555821,25552
1515.71,1.340545,550344,25124
1519.87,1.341169,543983,24798
1522.99,1.339670,538764,24645
1526.1,1.346591,533692,24027
1529.21,1.342541,527902,23989
1532.32,1.335757,521886,24089
1535.42,1.333322,515888,23946
1538.51,1.336288,509987,23511
1541.6,1.340780,503936,22993
1545.72,1.340651,494694,22578
1548.8,1.332826,488378,22695
1551.88,1.335819,481832,22237
1554.95,1.333452,474989,22041
1558.02,1.337255,467818,21519
1561.08,1.337972,460730,21158
1564.15,1.346929,454170,20431
1568.22,1.331569,444181,20701
1571.27,1.332804,436947,20306
1574.32,1.335236,429598,19853
1577.36,1.342708,422039,19171
1580.4,1.337521,414375,19049
1583.43,1.343473,406354,18426
1586.46,1.338021,398475,18297
1590.49,1.335720,388982,17956
1593.51,1.334512,380708,17623
1596.53,1.330368,372727,17419
1599.54,1.336151,365060,16835
1602.55,1.339120,357543,16376
1605.55,1.336669,349495,16098
1608.55,1.323677,341154,16191
1612.54,1.333898,330877,15338
1615.53,1.325234,322904,15270
1618.51,1.322350,315116,15001
1621.49,1.325239,307217,14528
1624.47,1.325889,299481,14141
1627.44,1.339548,292112,13366
1630.41,1.313468,284245,13811
1634.36,1.341035,274079,12498
1637.32,1.325591,266916,12612
1640.27,1.323855,259612,12316
1643.22,1.319319,251804,12071
1646.16,1.317823,244348,11754
1649.1,1.316956,236703,11409
1652.04,1.314152,228171,11069
1655.95,1.306974,215408,10624
1658.88,1.305839,204937,10134
1661.8,1.284106,193395,10054
1664.72,1.278174,179728,9472
1667.63,1.282488,163642,8539
1670.54,1.266774,146312,7916
1673.44,1.227182,128451,7613
1677.31,1.234485,105080,6124
1680.21,1.191383,88906,5722
1683.1,1.184790,75033,4903
1685.99,1.209071,63520,3925
1688.87,1.233435,53714,3138
1691.75,1.181336,45653,3007
1694.62,1.196737,39137,2488
1697.49,1.218127,33776,2044
1701.31,1.189793,28175,1820

File: Column 1_078273_20241121_165359.csv
Method:,Column 1,,
Host Date-Time:,21/11/24 @ 16:53:59,,
Header Version:,1,,
System Temp (C):,34.3,,
Detector Temp (C):,32.15,,
Humidity (%):,2.55,,
Lamp PD:,3802,,
Shift Vector Coefficients:,-10.5391,0.0761263,-0.000134223,,
Pixel to Wavelength Coefficients:,1775.68,-0.916766,-0.000235065,,
Serial Number:,5510004,,
Scan Config Name:,Column 1,,
Scan Config Type:,Slew,,
Section 1,,
Start wavelength (nm):,900,,
End wavelength (nm):,1700,,
Pattern Pixel Width (nm):,   7.03,,,,
Exposure (ms):,  0.635,,,,
Digital Resolution:,228,,
Num Repeats:,6,,
PGA Gain:,64,,
Total Measurement Time in sec:,  2.678,,
Wavelength (nm),Absorbance (AU),Reference Signal (unitless),Sample Signal (unitless)
901.51,1.284399,108485,5636
905.376,1.327551,121306,5706
909.237,1.306493,131909,6513
913.095,1.339472,143299,6558
916.948,1.289623,156982,8058
922.079,1.335938,179937,8302
925.923,1.305568,200504,9921
929.762,1.329483,222660,10427
933.597,1.323390,244426,11608
937.427,1.315435,263972,12768
941.254,1.309817,281845,13810
945.076,1.309395,297271,14580
950.165,1.306995,315605,15565
953.978,1.313424,328029,15940
957.786,1.307753,340470,16762
961.59,1.307885,352317,17340
965.389,1.308895,363056,17827
969.185,1.305878,373162,18451
972.976,1.314578,382632,18544
976.763,1.307091,391202,19289
981.806,1.311898,400190,19515
985.583,1.316054,406088,19614
989.355,1.311253,410162,20031
993.124,1.319827,412868,19769
996.888,1.309737,414263,20302
1000.65,1.305438,415476,20564
1004.4,1.310241,415479,20338
1009.41,1.312691,414358,20169
1013.15,1.312997,412923,20085
1016.89,1.313910,411526,19975
1020.63,1.310243,409066,20024
1024.36,1.314890,406777,19700
1028.09,1.312176,404427,19709
1031.82,1.307092,401911,19817
1036.78,1.318298,398410,19144
1040.49,1.312452,396204,19296
1044.2,1.307351,394236,19427
1047.91,1.308834,392042,19253
1051.61,1.311246,389823,19038
1055.31,1.310317,388234,19001
1059,1.313440,387599,18834
1063.92,1.303698,386688,19216
1067.61,1.308026,386598,19021
1071.29,1.315967,387377,18714
1074.96,1.312602,388536,18916
1078.63,1.308598,389855,19156
1082.3,1.320527,391215,18702
1085.96,1.315534,393215,19015
1090.84,1.315097,396270,19182
1094.49,1.314053,398760,19349
1098.14,1.313898,400987,19464
1101.79,1.317301,403477,19432
1105.43,1.311831,406116,19807
1109.06,1.315193,407701,19731
1112.7,1.321866,409859,19533
1117.53,1.315235,412494,19961
1121.15,1.320805,414909,19822
1124.77,1.318755,416559,19995
1128.38,1.325085,418532,19799
1131.99,1.314405,419956,20361
1135.6,1.322061,421946,20100
1139.2,1.323961,423881,20104
1143.99,1.321113,426786,20375
1147.58,1.316393,428617,20686
1151.17,1.314190,431169,20915
1154.75,1.318901,433579,20805
1158.33,1.314460,436264,21149
1161.91,1.314195,439132,21301
1165.48,1.319407,442389,21203
1169.04,1.306813,446101,22010
1173.79,1.316494,451929,21806
1177.34,1.326026,456026,21526
1180.9,1.317558,461306,22204
1184.44,1.311840,467657,22808
1187.99,1.321469,473969,22609
1191.52,1.309138,479856,23549
1195.06,1.326454,487372,22983
1199.76,1.320667,497347,23768
1203.29,1.326140,504311,23799
1206.81,1.320608,511507,24448
1210.33,1.321921,519078,24735
1213.84,1.324109,527163,24994
1217.35,1.325896,534208,25224
1220.85,1.330151,540472,25271
1225.51,1.317225,549929,26490
1229.01,1.323359,556888,26449
1232.5,1.322081,562180,26779
1235.98,1.322724,567975,27015
1239.46,1.318509,574815,27607
1242.94,1.327898,582782,27391
1246.41,1.322875,591476,28123
1251.03,1.327440,604016,28419
1254.5,1.329892,612289,28646
1257.96,1.328214,619125,29078
1261.41,1.320609,624551,29851
1264.86,1.325624,629900,29761
1268.31,1.326785,634345,29891
1271.75,1.325132,638574,30205
1276.33,1.325513,642499,30364
1279.76,1.325229,645905,30545
1283.19,1.330223,648307,30308
1286.61,1.326172,650446,30693
1290.03,1.327749,652132,30661
1293.44,1.334575,653907,30265
1296.85,1.330576,655963,30641
1301.39,1.326883,657349,30968
1304.8,1.330258,657558,30738
1308.19,1.331979,658515,30661
1311.58,1.328376,658804,30930
1314.97,1.329047,659011,30892
1318.36,1.329996,658272,30790
1321.73,1.332108,658022,30629
1326.23,1.329716,657870,30791
1329.6,1.326969,656482,30921
1332.97,1.332705,654926,30443
1336.33,1.332209,653727,30422
1339.69,1.330834,652497,30461
1343.04,1.333150,649913,30179
1346.39,1.326955,647671,30507
1349.73,1.326699,645338,30415
1354.18,1.332819,641175,29796
1357.52,1.329086,638376,29922
1360.85,1.324224,635805,30137
1364.17,1.329194,633413,29682
1367.49,1.330652,631026,29471
1370.81,1.324463,628050,29753
1374.12,1.332339,625034,29078
1378.54,1.326649,620272,29237
1381.84,1.328891,616892,28928
1385.14,1.327523,613613,28865
1388.43,1.330413,611526,28576
1391.72,1.329785,610663,28577
1395.01,1.325650,610634,28849
1398.29,1.326348,611700,28853
1402.66,1.328149,614051,28844
1405.93,1.331011,616268,28758
1409.2,1.324793,617795,29245
1412.46,1.332857,618872,28757
1415.72,1.335139,619795,28649
1418.98,1.334811,620495,28703
1422.23,1.332706,621087,28870
1426.56,1.329969,621375,29066
1429.8,1.334537,621616,28773
1433.04,1.333313,622129,28878
1436.27,1.333118,621526,28863
1439.5,1.330129,621113,29043
1442.72,1.334021,620921,28775
1445.94,1.337812,620270,28495
1450.23,1.335530,618860,28580
1453.44,1.335139,617697,28552
1456.64,1.335623,616264,28454
1459.85,1.338165,614413,28203
1463.04,1.333590,612307,28404
1466.24,1.340621,610032,27844
1469.43,1.337691,607345,27909
1473.67,1.335406,603789,27892
1476.85,1.334222,601175,27847
1480.02,1.335979,597737,27576
1483.19,1.337974,594479,27300
1486.36,1.338821,591232,27098
1489.52,1.333663,587853,27265
1492.68,1.339695,583875,26707
1496.89,1.341276,578062,26345
1500.03,1.340681,574159,26203
1503.18,1.338670,570285,26147
1506.32,1.341916,565444,25732
1509.45,1.337112,560571,25794
1512.58,1.330680,555821,25957
1515.71,1.341549,550344,25066
1519.87,1.336674,543983,25056
1522.99,1.332331,538764,25065
1526.1,1.338249,533692,24493
1529.21,1.337537,527902,24267
1532.32,1.328516,521886,24494
1535.42,1.333812,515888,23919
1538.51,1.339347,509987,23346
1541.6,1.335523,503936,23273
1545.72,1.331233,494694,23073
1548.8,1.334974,488378,22583
1551.88,1.339684,481832,22040
1554.95,1.337908,474989,21816
1558.02,1.339014,467818,21432
1561.08,1.333236,460730,21390
1564.15,1.335993,454170,20952
1568.22,1.337270,444181,20431
1571.27,1.330884,436947,20396
1574.32,1.338640,429598,19698
1577.36,1.336500,422039,19447
1580.4,1.340404,414375,18923
1583.43,1.345056,406354,18359
1586.46,1.332174,398475,18545
1590.49,1.327004,388982,18320
1593.51,1.333749,380708,17654
1596.53,1.332367,372727,17339
1599.54,1.329343,365060,17101
1602.55,1.329625,357543,16738
1605.55,1.337398,349495,16071
1608.55,1.321243,341154,16282
1612.54,1.317860,330877,15915
1615.53,1.322993,322904,15349
1618.51,1.317628,315116,15165
1621.49,1.329113,307217,14399
1624.47,1.318761,299481,14375
1627.44,1.312894,292112,14212
1630.41,1.313311,284245,13816
1634.36,1.320273,274079,13110
1637.32,1.329951,266916,12486
1640.27,1.311000,259612,12686
1643.22,1.311299,251804,12296
1646.16,1.311332,244348,11931
1649.1,1.301403,236703,11825
1652.04,1.314780,228171,11053
1655.95,1.304650,215408,10681
1658.88,1.290059,204937,10509
1661.8,1.285188,193395,10029
1664.72,1.278954,179728,9455
1667.63,1.259508,163642,9003
1670.54,1.236833,146312,8481
1673.44,1.227011,128451,7616
1677.31,1.235266,105080,6113
1680.21,1.208332,88906,5503
1683.1,1.175155,75033,5013
1685.99,1.212515,63520,3894
1688.87,1.189508,53714,3472
1691.75,1.193047,45653,2927
1694.62,1.259745,39137,2152
1697.49,1.222183,33776,2025
1701.31,1.161168,28175,1944