Folder: textile_sorting_NIRSCAN_/ML/samples/unknown (part 112)

File: Column 1_078806_20241121_172304.csv
Method:,Column 1,,
Host Date-Time:,21/11/24 @ 17:23:4,,
Header Version:,1,,
System Temp (C):,36.77,,
Detector Temp (C):,35.34,,
Humidity (%):,0.68,,
Lamp PD:,3797,,
Shift Vector Coefficients:,-10.5391,0.0761263,-0.000134223,,
Pixel to Wavelength Coefficients:,1775.68,-0.916766,-0.000235065,,
Serial Number:,5510004,,
Scan Config Name:,Column 1,,
Scan Config Type:,Slew,,
Section 1,,
Start wavelength (nm):,900,,
End wavelength (nm):,1700,,
Pattern Pixel Width (nm):,   7.03,,,,
Exposure (ms):,  0.635,,,,
Digital Resolution:,228,,
Num Repeats:,6,,
PGA Gain:,64,,
Total Measurement Time in sec:,  2.716,,
Wavelength (nm),Absorbance (AU),Reference Signal (unitless),Sample Signal (unitless)
901.51,1.321124,108485,5179
905.376,1.326334,121306,5722
909.237,1.332814,131909,6130
913.095,1.322077,143299,6826
916.948,1.314694,156982,7606
922.079,1.314355,179937,8725
925.923,1.320848,200504,9578
929.762,1.335269,222660,10289
933.597,1.311434,244426,11932
937.427,1.328171,263972,12399
941.254,1.319902,281845,13493
945.076,1.317119,297271,14323
950.165,1.313403,315605,15337
953.978,1.307552,328029,16157
957.786,1.310717,340470,16648
961.59,1.305910,352317,17419
965.389,1.310824,363056,17748
969.185,1.304749,373162,18499
972.976,1.314672,382632,18540
976.763,1.316192,391202,18889
981.806,1.305184,400190,19819
985.583,1.313956,406088,19709
989.355,1.306080,410162,20271
993.124,1.305160,412868,20448
996.888,1.301621,414263,20685
1000.65,1.301486,415476,20752
1004.4,1.301364,415479,20758
1009.41,1.306959,414358,20437
1013.15,1.306047,412923,20409
1016.89,1.302389,411526,20512
1020.63,1.303827,409066,20322
1024.36,1.309958,406777,19925
1028.09,1.300909,404427,20227
1031.82,1.307333,401911,19806
1036.78,1.316012,398410,19245
1040.49,1.315501,396204,19161
1044.2,1.301400,394236,19695
1047.91,1.303276,392042,19501
1051.61,1.293194,389823,19846
1055.31,1.312012,388234,18927
1059,1.310384,387599,18967
1063.92,1.314058,386688,18763
1067.61,1.313610,386598,18778
1071.29,1.305942,387377,19151
1074.96,1.306651,388536,19177
1078.63,1.307692,389855,19196
1082.3,1.304412,391215,19409
1085.96,1.308016,393215,19347
1090.84,1.317026,396270,19097
1094.49,1.315177,398760,19299
1098.14,1.311052,400987,19592
1101.79,1.314894,403477,19540
1105.43,1.315973,406116,19619
1109.06,1.316162,407701,19687
1112.7,1.301899,409859,20452
1117.53,1.316172,412494,19918
1121.15,1.318969,414909,19906
1124.77,1.314841,416559,20176
1128.38,1.311779,418532,20415
1131.99,1.317401,419956,20221
1135.6,1.308741,421946,20726
1139.2,1.317656,423881,20398
1143.99,1.315922,426786,20620
1147.58,1.314361,428617,20783
1151.17,1.316501,431169,20804
1154.75,1.322022,433579,20656
1158.33,1.321582,436264,20805
1161.91,1.309188,439132,21548
1165.48,1.311089,442389,21613
1169.04,1.315805,446101,21559
1173.79,1.314666,451929,21898
1177.34,1.315680,456026,22045
1180.9,1.311884,461306,22496
1184.44,1.317243,467657,22526
1187.99,1.320989,473969,22634
1191.52,1.313122,479856,23334
1195.06,1.314801,487372,23608
1199.76,1.316430,497347,24001
1203.29,1.310213,504311,24688
1206.81,1.320413,511507,24459
1210.33,1.325429,519078,24536
1213.84,1.318361,527163,25327
1217.35,1.327881,534208,25109
1220.85,1.317650,540472,26009
1225.51,1.321326,549929,26241
1229.01,1.325350,556888,26328
1232.5,1.322860,562180,26731
1235.98,1.321200,567975,27110
1239.46,1.314500,574815,27863
1242.94,1.322181,582782,27754
1246.41,1.314116,591476,28696
1251.03,1.321113,604016,28836
1254.5,1.325893,612289,28911
1257.96,1.318175,619125,29758
1261.41,1.327871,624551,29356
1264.86,1.325289,629900,29784
1268.31,1.326974,634345,29878
1271.75,1.323840,638574,30295
1276.33,1.329032,642499,30119
1279.76,1.318611,645905,31014
1283.19,1.318797,648307,31116
1286.61,1.322691,650446,30940
1290.03,1.331776,652132,30378
1293.44,1.325853,653907,30879
1296.85,1.325490,655963,31002
1301.39,1.328485,657349,30854
1304.8,1.325928,657558,31046
1308.19,1.329057,658515,30868
1311.58,1.326960,658804,31031
1314.97,1.331726,659011,30702
1318.36,1.330603,658272,30747
1321.73,1.328184,658022,30907
1326.23,1.327915,657870,30919
1329.6,1.333693,656482,30446
1332.97,1.323697,654926,31081
1336.33,1.331738,653727,30455
1339.69,1.332749,652497,30327
1343.04,1.322546,649913,30925
1346.39,1.326557,647671,30535
1349.73,1.323711,645338,30625
1354.18,1.327877,641175,30137
1357.52,1.326481,638376,30102
1360.85,1.328452,635805,29845
1364.17,1.323568,633413,30069
1367.49,1.324579,631026,29886
1370.81,1.323545,628050,29816
1374.12,1.325287,625034,29554
1378.54,1.327021,620272,29212
1381.84,1.327227,616892,29039
1385.14,1.327388,613613,28874
1388.43,1.328488,611526,28703
1391.72,1.326198,610663,28814
1395.01,1.325530,610634,28857
1398.29,1.325205,611700,28929
1402.66,1.327156,614051,28910
1405.93,1.333343,616268,28604
1409.2,1.329271,617795,28945
1412.46,1.323549,618872,29380
1415.72,1.327535,619795,29155
1418.98,1.333859,620495,28766
1422.23,1.336316,621087,28631
1426.56,1.325805,621375,29346
1429.8,1.332024,621616,28940
1433.04,1.328126,622129,29225
1436.27,1.334444,621526,28775
1439.5,1.326273,621113,29302
1442.72,1.334323,620921,28755
1445.94,1.326707,620270,29233
1450.23,1.331718,618860,28832
1453.44,1.329938,617697,28896
1456.64,1.328974,616264,28893
1459.85,1.337688,614413,28234
1463.04,1.324182,612307,29026
1466.24,1.329670,610032,28555
1469.43,1.337862,607345,27898
1473.67,1.336325,603789,27833
1476.85,1.333989,601175,27862
1480.02,1.338680,597737,27405
1483.19,1.333401,594479,27589
1486.36,1.329513,591232,27685
1489.52,1.332836,587853,27317
1492.68,1.333816,583875,27071
1496.89,1.329005,578062,27100
1500.03,1.334151,574159,26600
1503.18,1.353779,570285,25253
1506.32,1.333773,565444,26219
1509.45,1.331126,560571,26152
1512.58,1.336661,555821,25602
1515.71,1.337857,550344,25280
1519.87,1.328330,543983,25542
1522.99,1.333528,538764,24996
1526.1,1.325959,533692,25196
1529.21,1.328154,527902,24797
1532.32,1.328906,521886,24472
1535.42,1.331567,515888,24043
1538.51,1.332115,509987,23738
1541.6,1.333234,503936,23396
1545.72,1.328026,494694,23244
1548.8,1.337636,488378,22445
1551.88,1.328806,481832,22599
1554.95,1.328515,474989,22293
1558.02,1.336670,467818,21548
1561.08,1.332972,460730,21403
1564.15,1.328207,454170,21331
1568.22,1.323792,444181,21075
1571.27,1.328844,436947,20492
1574.32,1.327646,429598,20203
1577.36,1.323889,422039,20020
1580.4,1.330421,414375,19363
1583.43,1.324361,406354,19255
1586.46,1.326544,398475,18787
1590.49,1.334971,388982,17987
1593.51,1.326261,380708,17961
1596.53,1.326323,372727,17582
1599.54,1.329114,365060,17110
1602.55,1.319419,357543,17136
1605.55,1.318442,349495,16788
1608.55,1.326286,341154,16094
1612.54,1.325986,330877,15620
1615.53,1.325547,322904,15259
1618.51,1.319609,315116,15096
1621.49,1.321282,307217,14661
1624.47,1.316892,299481,14437
1627.44,1.304811,292112,14479
1630.41,1.301068,284245,14211
1634.36,1.318389,274079,13167
1637.32,1.306954,266916,13165
1640.27,1.305658,259612,12843
1643.22,1.307256,251804,12411
1646.16,1.300050,244348,12245
1649.1,1.310833,236703,11571
1652.04,1.290966,228171,11676
1655.95,1.299557,215408,10807
1658.88,1.288903,204937,10537
1661.8,1.285838,193395,10014
1664.72,1.278541,179728,9464
1667.63,1.245365,163642,9301
1670.54,1.239710,146312,8425
1673.44,1.246010,128451,7290
1677.31,1.186083,105080,6846
1680.21,1.157521,88906,6186
1683.1,1.154019,75033,5263
1685.99,1.116542,63520,4857
1688.87,1.160597,53714,3711
1691.75,1.129911,45653,3385
1694.62,1.169998,39137,2646
1697.49,1.152214,33776,2379
1701.31,1.170197,28175,1904

File: Column 1_078807_20241121_172307.csv
Method:,Column 1,,
Host Date-Time:,21/11/24 @ 17:23:7,,
Header Version:,1,,
System Temp (C):,36.75,,
Detector Temp (C):,35.37,,
Humidity (%):,0.68,,
Lamp PD:,3797,,
Shift Vector Coefficients:,-10.5391,0.0761263,-0.000134223,,
Pixel to Wavelength Coefficients:,1775.68,-0.916766,-0.000235065,,
Serial Number:,5510004,,
Scan Config Name:,Column 1,,
Scan Config Type:,Slew,,
Section 1,,
Start wavelength (nm):,900,,
End wavelength (nm):,1700,,
Pattern Pixel Width (nm):,   7.03,,,,
Exposure (ms):,  0.635,,,,
Digital Resolution:,228,,
Num Repeats:,6,,
PGA Gain:,64,,
Total Measurement Time in sec:,  2.718,,
Wavelength (nm),Absorbance (AU),Reference Signal (unitless),Sample Signal (unitless)
901.51,1.314549,108485,5258
905.376,1.303277,121306,6034
909.237,1.280859,131909,6909
913.095,1.296985,143299,7232
916.948,1.318824,156982,7534
922.079,1.298328,179937,9053
925.923,1.326875,200504,9446
929.762,1.307594,222660,10966
933.597,1.322493,244426,11632
937.427,1.321429,263972,12593
941.254,1.301253,281845,14085
945.076,1.306072,297271,14692
950.165,1.323632,315605,14980
953.978,1.309896,328029,16070
957.786,1.302397,340470,16970
961.59,1.311203,352317,17208
965.389,1.299902,363056,18200
969.185,1.306443,373162,18427
972.976,1.309132,382632,18778
976.763,1.308128,391202,19243
981.806,1.303653,400190,19889
985.583,1.293238,406088,20672
989.355,1.303773,410162,20379
993.124,1.300219,412868,20682
996.888,1.300970,414263,20716
1000.65,1.302303,415476,20713
1004.4,1.304429,415479,20612
1009.41,1.307788,414358,20398
1013.15,1.311185,412923,20169
1016.89,1.303853,411526,20443
1020.63,1.294733,409066,20752
1024.36,1.304629,406777,20171
1028.09,1.304726,404427,20050
1031.82,1.304143,401911,19952
1036.78,1.304609,398410,19757
1040.49,1.301407,396204,19793
1044.2,1.304210,394236,19568
1047.91,1.308090,392042,19286
1051.61,1.296445,389823,19698
1055.31,1.303806,388234,19288
1059,1.303073,387599,19289
1063.92,1.310302,386688,18926
1067.61,1.308552,386598,18998
1071.29,1.303590,387377,19255
1074.96,1.305520,388536,19227
1078.63,1.317717,389855,18758
1082.3,1.306701,391215,19307
1085.96,1.314667,393215,19053
1090.84,1.313132,396270,19269
1094.49,1.303498,398760,19825
1098.14,1.311961,400987,19551
1101.79,1.305789,403477,19954
1105.43,1.305670,406116,20090
1109.06,1.316162,407701,19687
1112.7,1.304711,409859,20320
1117.53,1.309121,412494,20244
1121.15,1.307961,414909,20417
1124.77,1.309621,416559,20420
1128.38,1.317626,418532,20142
1131.99,1.305956,419956,20761
1135.6,1.318575,421946,20262
1139.2,1.316848,423881,20436
1143.99,1.312147,426786,20800
1147.58,1.310657,428617,20961
1151.17,1.313982,431169,20925
1154.75,1.310589,433579,21207
1158.33,1.317840,436264,20985
1161.91,1.313767,439132,21322
1165.48,1.314478,442389,21445
1169.04,1.319263,446101,21388
1173.79,1.317791,451929,21741
1177.34,1.309809,456026,22345
1180.9,1.314478,461306,22362
1184.44,1.304421,467657,23201
1187.99,1.312439,473969,23084
1191.52,1.317424,479856,23104
1195.06,1.307233,487372,24023
1199.76,1.315021,497347,24079
1203.29,1.314579,504311,24441
1206.81,1.324516,511507,24229
1210.33,1.317188,519078,25006
1213.84,1.315865,527163,25473
1217.35,1.317980,534208,25688
1220.85,1.311993,540472,26350
1225.51,1.316700,549929,26522
1229.01,1.314645,556888,26985
1232.5,1.314955,562180,27222
1235.98,1.316801,567975,27386
1239.46,1.316610,574815,27728
1242.94,1.320494,582782,27862
1246.41,1.318496,591476,28408
1251.03,1.313278,604016,29361
1254.5,1.313718,612289,29733
1257.96,1.323815,619125,29374
1261.41,1.324599,624551,29578
1264.86,1.323092,629900,29935
1268.31,1.321672,634345,30245
1271.75,1.317338,638574,30752
1276.33,1.322961,642499,30543
1279.76,1.329486,645905,30247
1283.19,1.325563,648307,30635
1286.61,1.324802,650446,30790
1290.03,1.321785,652132,31085
1293.44,1.327233,653907,30781
1296.85,1.328893,655963,30760
1301.39,1.320617,657349,31418
1304.8,1.324811,657558,31126
1308.19,1.325038,658515,31155
1311.58,1.326890,658804,31036
1314.97,1.323848,659011,31264
1318.36,1.325785,658272,31090
1321.73,1.323905,658022,31213
1326.23,1.323999,657870,31199
1329.6,1.326464,656482,30957
1332.97,1.326853,654926,30856
1336.33,1.328753,653727,30665
1339.69,1.323904,652497,30951
1343.04,1.332259,649913,30241
1346.39,1.319363,647671,31045
1349.73,1.322112,645338,30738
1354.18,1.325591,641175,30296
1357.52,1.322446,638376,30383
1360.85,1.328933,635805,29812
1364.17,1.320187,633413,30304
1367.49,1.324013,631026,29925
1370.81,1.321105,628050,29984
1374.12,1.319289,625034,29965
1378.54,1.329406,620272,29052
1381.84,1.322779,616892,29338
1385.14,1.320953,613613,29305
1388.43,1.318201,611526,29391
1391.72,1.321089,610663,29155
1395.01,1.318350,610634,29338
1398.29,1.318916,611700,29351
1402.66,1.322495,614051,29222
1405.93,1.316516,616268,29734
1409.2,1.324555,617795,29261
1412.46,1.326739,618872,29165
1415.72,1.323015,619795,29460
1418.98,1.322387,620495,29536
1422.23,1.328023,621087,29183
1426.56,1.322223,621375,29589
1429.8,1.325751,621616,29361
1433.04,1.326716,622129,29320
1436.27,1.325925,621526,29345
1439.5,1.330339,621113,29029
1442.72,1.328756,620921,29126
1445.94,1.328658,620270,29102
1450.23,1.331462,618860,28849
1453.44,1.334242,617697,28611
1456.64,1.328148,616264,28948
1459.85,1.326437,614413,28975
1463.04,1.331607,612307,28534
1466.24,1.325523,610032,28829
1469.43,1.331572,607345,28305
1473.67,1.326620,603789,28462
1476.85,1.324095,601175,28504
1480.02,1.330408,597737,27932
1483.19,1.330185,594479,27794
1486.36,1.332662,591232,27485
1489.52,1.324927,587853,27819
1492.68,1.333703,583875,27078
1496.89,1.327789,578062,27176
1500.03,1.329845,574159,26865
1503.18,1.329304,570285,26717
1506.32,1.331510,565444,26356
1509.45,1.337146,560571,25792
1512.58,1.332743,555821,25834
1515.71,1.331276,550344,25666
1519.87,1.334754,543983,25167
1522.99,1.334920,538764,24916
1526.1,1.334154,533692,24725
1529.21,1.328049,527902,24803
1532.32,1.329510,521886,24438
1535.42,1.330286,515888,24114
1538.51,1.331914,509987,23749
1541.6,1.325488,503936,23817
1545.72,1.333176,494694,22970
1548.8,1.333266,488378,22672
1551.88,1.330212,481832,22526
1554.95,1.332272,474989,22101
1558.02,1.330387,467818,21862
1561.08,1.337521,460730,21180
1564.15,1.333554,454170,21070
1568.22,1.322928,444181,21117
1571.27,1.325635,436947,20644
1574.32,1.336419,429598,19799
1577.36,1.324975,422039,19970
1580.4,1.321014,414375,19787
1583.43,1.324632,406354,19243
1586.46,1.332127,398475,18547
1590.49,1.332251,388982,18100
1593.51,1.317382,380708,18332
1596.53,1.323516,372727,17696
1599.54,1.319277,365060,17502
1602.55,1.319825,357543,17120
1605.55,1.319193,349495,16759
1608.55,1.327151,341154,16062
1612.54,1.312382,330877,16117
1615.53,1.319527,322904,15472
1618.51,1.325430,315116,14895
1621.49,1.324135,307217,14565
1624.47,1.309762,299481,14676
1627.44,1.321973,292112,13918
1630.41,1.303458,284245,14133
1634.36,1.311192,274079,13387
1637.32,1.325246,266916,12622
1640.27,1.302290,259612,12943
1643.22,1.303632,251804,12515
1646.16,1.312535,244348,11898
1649.1,1.309372,236703,11610
1652.04,1.301508,228171,11396
1655.95,1.306524,215408,10635
1658.88,1.265672,204937,11116
1661.8,1.270206,193395,10381
1664.72,1.264099,179728,9784
1667.63,1.253757,163642,9123
1670.54,1.223719,146312,8741
1673.44,1.195719,128451,8185
1677.31,1.198698,105080,6650
1680.21,1.151664,88906,6270
1683.1,1.138219,75033,5458
1685.99,1.118155,63520,4839
1688.87,1.165185,53714,3672
1691.75,1.151209,45653,3223
1694.62,1.123355,39137,2946
1697.49,1.140152,33776,2446
1701.31,1.129925,28175,2089

File: Column 1_078810_20241121_172316.csv
Method:,Column 1,,
Host Date-Time:,21/11/24 @ 17:23:16,,
Header Version:,1,,
System Temp (C):,37.02,,
Detector Temp (C):,35.34,,
Humidity (%):,0.83,,
Lamp PD:,3797,,
Shift Vector Coefficients:,-10.5391,0.0761263,-0.000134223,,
Pixel to Wavelength Coefficients:,1775.68,-0.916766,-0.000235065,,
Serial Number:,5510004,,
Scan Config Name:,Column 1,,
Scan Config Type:,Slew,,
Section 1,,
Start wavelength (nm):,900,,
End wavelength (nm):,1700,,
Pattern Pixel Width (nm):,   7.03,,,,
Exposure (ms):,  0.635,,,,
Digital Resolution:,228,,
Num Repeats:,6,,
PGA Gain:,64,,
Total Measurement Time in sec:,  2.724,,
Wavelength (nm),Absorbance (AU),Reference Signal (unitless),Sample Signal (unitless)
901.51,1.296827,108485,5477
905.376,1.299336,121306,6089
909.237,1.339669,131909,6034
913.095,1.321060,143299,6842
916.948,1.327323,156982,7388
922.079,1.319512,179937,8622
925.923,1.316652,200504,9671
929.762,1.317488,222660,10719
933.597,1.320816,244426,11677
937.427,1.338019,263972,12121
941.254,1.311771,281845,13748
945.076,1.321783,297271,14170
950.165,1.307693,315605,15540
953.978,1.307283,328029,16167
957.786,1.314964,340470,16486
961.59,1.315082,352317,17055
965.389,1.313672,363056,17632
969.185,1.308972,373162,18320
972.976,1.314180,382632,18561
976.763,1.310323,391202,19146
981.806,1.311920,400190,19514
985.583,1.310838,406088,19851
989.355,1.309241,410162,20124
993.124,1.301144,412868,20638
996.888,1.308904,414263,20341
1000.65,1.299419,415476,20851
1004.4,1.310369,415479,20332
1009.41,1.306343,414358,20466
1013.15,1.297931,412923,20794
1016.89,1.309842,411526,20163
1020.63,1.312482,409066,19921
1024.36,1.310132,406777,19917
1028.09,1.296274,404427,20444
1031.82,1.324258,401911,19049
1036.78,1.314570,398410,19309
1040.49,1.305574,396204,19604
1044.2,1.314087,394236,19128
1047.91,1.305889,392042,19384
1051.61,1.299388,389823,19565
1055.31,1.306245,388234,19180
1059,1.321234,387599,18499
1063.92,1.319907,386688,18512
1067.61,1.309353,386598,18963
1071.29,1.313168,387377,18835
1074.96,1.306900,388536,19166
1078.63,1.312584,389855,18981
1082.3,1.305151,391215,19376
1085.96,1.314530,393215,19059
1090.84,1.309273,396270,19441
1094.49,1.310499,398760,19508
1098.14,1.311806,400987,19558
1101.79,1.319250,403477,19345
1105.43,1.314338,406116,19693
1109.06,1.312559,407701,19851
1112.7,1.316826,409859,19761
1117.53,1.326699,412494,19441
1121.15,1.318903,414909,19909
1124.77,1.319103,416559,19979
1128.38,1.317174,418532,20163
1131.99,1.319943,419956,20103
1135.6,1.314033,421946,20475
1139.2,1.324805,423881,20065
1143.99,1.323378,426786,20269
1147.58,1.323783,428617,20337
1151.17,1.313671,431169,20940
1154.75,1.316050,433579,20942
1158.33,1.320060,436264,20878
1161.91,1.311229,439132,21447
1165.48,1.314377,442389,21450
1169.04,1.315664,446101,21566
1173.79,1.318190,451929,21721
1177.34,1.319280,456026,21863
1180.9,1.314265,461306,22373
1184.44,1.310452,467657,22881
1187.99,1.310412,473969,23192
1191.52,1.313047,479856,23338
1195.06,1.318218,487372,23423
1199.76,1.321325,497347,23732
1203.29,1.320213,504311,24126
1206.81,1.318641,511507,24559
1210.33,1.324121,519078,24610
1213.84,1.325833,527163,24895
1217.35,1.317811,534208,25698
1220.85,1.317850,540472,25997
1225.51,1.320847,549929,26270
1229.01,1.322440,556888,26505
1232.5,1.324260,562180,26645
1235.98,1.323658,567975,26957
1239.46,1.324114,574815,27253
1242.94,1.321602,582782,27791
1246.41,1.320673,591476,28266
1251.03,1.319700,604016,28930
1254.5,1.320267,612289,29288
1257.96,1.324629,619125,29319
1261.41,1.321337,624551,29801
1264.86,1.330098,629900,29456
1268.31,1.323024,634345,30151
1271.75,1.326342,638574,30121
1276.33,1.325800,642499,30344
1279.76,1.329860,645905,30221
1283.19,1.325818,648307,30617
1286.61,1.327121,650446,30626
1290.03,1.329779,652132,30518
1293.44,1.330476,653907,30552
1296.85,1.323017,655963,31179
1301.39,1.321046,657349,31387
1304.8,1.326698,657558,30991
1308.19,1.332376,658515,30633
1311.58,1.329459,658804,30853
1314.97,1.325672,659011,31133
1318.36,1.332528,658272,30611
1321.73,1.327047,658022,30988
1326.23,1.330041,657870,30768
1329.6,1.336096,656482,30278
1332.97,1.329224,654926,30688
1336.33,1.325452,653727,30899
1339.69,1.328843,652497,30601
1343.04,1.324812,649913,30764
1346.39,1.328438,647671,30403
1349.73,1.330846,645338,30126
1354.18,1.324117,641175,30399
1357.52,1.321532,638376,30447
1360.85,1.330889,635805,29678
1364.17,1.323294,633413,30088
1367.49,1.329872,631026,29524
1370.81,1.327481,628050,29547
1374.12,1.327793,625034,29384
1378.54,1.331669,620272,28901
1381.84,1.324633,616892,29213
1385.14,1.325856,613613,28976
1388.43,1.325262,611526,28917
1391.72,1.326273,610663,28809
1395.01,1.325876,610634,28834
1398.29,1.327297,611700,28790
1402.66,1.325806,614051,29000
1405.93,1.333328,616268,28605
1409.2,1.325536,617795,29195
1412.46,1.327231,618872,29132
1415.72,1.330810,619795,28936
1418.98,1.333466,620495,28792
1422.23,1.333489,621087,28818
1426.56,1.330028,621375,29062
1429.8,1.331829,621616,28953
1433.04,1.334594,622129,28793
1436.27,1.328582,621526,29166
1439.5,1.329054,621113,29115
1442.72,1.329636,620921,29067
1445.94,1.328822,620270,29091
1450.23,1.331477,618860,28848
1453.44,1.333772,617697,28642
1456.64,1.329410,616264,28864
1459.85,1.335249,614413,28393
1463.04,1.330467,612307,28609
1466.24,1.327698,610032,28685
1469.43,1.327571,607345,28567
1473.67,1.333960,603789,27985
1476.85,1.329816,601175,28131
1480.02,1.333529,597737,27732
1483.19,1.326111,594479,28056
1486.36,1.335277,591232,27320
1489.52,1.326867,587853,27695
1492.68,1.340411,583875,26663
1496.89,1.338139,578062,26536
1500.03,1.334298,574159,26591
1503.18,1.340301,570285,26049
1506.32,1.329603,565444,26472
1509.45,1.340985,560571,25565
1512.58,1.332525,555821,25847
1515.71,1.330515,550344,25711
1519.87,1.333083,543983,25264
1522.99,1.336649,538764,24817
1526.1,1.334717,533692,24693
1529.21,1.341908,527902,24024
1532.32,1.327630,521886,24544
1535.42,1.329333,515888,24167
1538.51,1.331493,509987,23772
1541.6,1.334479,503936,23329
1545.72,1.332514,494694,23005
1548.8,1.332482,488378,22713
1551.88,1.339822,481832,22033
1554.95,1.333098,474989,22059
1558.02,1.330308,467818,21866
1561.08,1.335414,460730,21283
1564.15,1.333410,454170,21077
1568.22,1.335129,444181,20532
1571.27,1.332569,436947,20317
1574.32,1.329240,429598,20129
1577.36,1.326783,422039,19887
1580.4,1.329614,414375,19399
1583.43,1.331295,406354,18950
1586.46,1.333676,398475,18481
1590.49,1.321422,388982,18557
1593.51,1.331516,380708,17745
1596.53,1.323123,372727,17712
1599.54,1.334426,365060,16902
1602.55,1.326445,357543,16861
1605.55,1.320153,349495,16722
1608.55,1.312947,341154,16596
1612.54,1.319857,330877,15842
1615.53,1.323220,322904,15341
1618.51,1.324440,315116,14929
1621.49,1.319095,307217,14735
1624.47,1.311511,299481,14617
1627.44,1.318925,292112,14016
1630.41,1.308683,284245,13964
1634.36,1.316874,274079,13213
1637.32,1.332883,266916,12402
1640.27,1.309974,259612,12716
1643.22,1.308658,251804,12371
1646.16,1.311405,244348,11929
1649.1,1.319093,236703,11353
1652.04,1.309353,228171,11192
1655.95,1.303270,215408,10715
1658.88,1.274832,204937,10884
1661.8,1.295529,193395,9793
1664.72,1.269684,179728,9659
1667.63,1.232575,163642,9579
1670.54,1.232857,146312,8559
1673.44,1.233792,128451,7498
1677.31,1.192409,105080,6747
1680.21,1.151179,88906,6277
1683.1,1.197098,75033,4766
1685.99,1.139021,63520,4612
1688.87,1.165303,53714,3671
1691.75,1.116395,45653,3492
1694.62,1.159618,39137,2710
1697.49,1.203914,33776,2112
1701.31,1.135154,28175,2064