Folder: textile_sorting_NIRSCAN_/ML/samples/unknown (part 50)

File: Column 1_078325_20241121_165631.csv
Method:,Column 1,,
Host Date-Time:,21/11/24 @ 16:56:31,,
Header Version:,1,,
System Temp (C):,34.65,,
Detector Temp (C):,32.91,,
Humidity (%):,2.16,,
Lamp PD:,3802,,
Shift Vector Coefficients:,-10.5391,0.0761263,-0.000134223,,
Pixel to Wavelength Coefficients:,1775.68,-0.916766,-0.000235065,,
Serial Number:,5510004,,
Scan Config Name:,Column 1,,
Scan Config Type:,Slew,,
Section 1,,
Start wavelength (nm):,900,,
End wavelength (nm):,1700,,
Pattern Pixel Width (nm):,   7.03,,,,
Exposure (ms):,  0.635,,,,
Digital Resolution:,228,,
Num Repeats:,6,,
PGA Gain:,64,,
Total Measurement Time in sec:,  2.726,,
Wavelength (nm),Absorbance (AU),Reference Signal (unitless),Sample Signal (unitless)
901.51,1.315956,108485,5241
905.376,1.318288,121306,5829
909.237,1.324881,131909,6243
913.095,1.303397,143299,7126
916.948,1.326149,156982,7408
922.079,1.305145,179937,8912
925.923,1.342414,200504,9114
929.762,1.325296,222660,10528
933.597,1.330671,244426,11415
937.427,1.315061,263972,12779
941.254,1.329568,281845,13196
945.076,1.327645,297271,13980
950.165,1.322561,315605,15017
953.978,1.313043,328029,15954
957.786,1.299616,340470,17079
961.59,1.309616,352317,17271
965.389,1.311191,363056,17733
969.185,1.311039,373162,18233
972.976,1.303799,382632,19010
976.763,1.317205,391202,18845
981.806,1.308926,400190,19649
985.583,1.301360,406088,20289
989.355,1.302156,410162,20455
993.124,1.307781,412868,20325
996.888,1.308093,414263,20379
1000.65,1.304299,415476,20618
1004.4,1.308983,415479,20397
1009.41,1.309644,414358,20311
1013.15,1.312349,412923,20115
1016.89,1.309734,411526,20168
1020.63,1.315370,409066,19789
1024.36,1.310198,406777,19914
1028.09,1.309539,404427,19829
1031.82,1.310061,401911,19682
1036.78,1.309561,398410,19533
1040.49,1.308508,396204,19472
1044.2,1.304743,394236,19544
1047.91,1.310982,392042,19158
1051.61,1.314842,389823,18881
1055.31,1.302413,388234,19350
1059,1.314202,387599,18801
1063.92,1.315542,386688,18699
1067.61,1.314027,386598,18760
1071.29,1.313237,387377,18832
1074.96,1.303761,388536,19305
1078.63,1.313156,389855,18956
1082.3,1.313296,391215,19016
1085.96,1.313256,393215,19115
1090.84,1.319009,396270,19010
1094.49,1.319837,398760,19093
1098.14,1.318970,400987,19238
1101.79,1.316542,403477,19466
1105.43,1.309470,406116,19915
1109.06,1.313238,407701,19820
1112.7,1.312757,409859,19947
1117.53,1.311811,412494,20119
1121.15,1.312387,414909,20210
1124.77,1.315423,416559,20149
1128.38,1.322614,418532,19912
1131.99,1.314853,419956,20340
1135.6,1.313143,421946,20517
1139.2,1.313440,423881,20597
1143.99,1.313380,426786,20741
1147.58,1.316666,428617,20673
1151.17,1.310633,431169,21087
1154.75,1.321854,433579,20664
1158.33,1.318607,436264,20948
1161.91,1.318663,439132,21083
1165.48,1.318588,442389,21243
1169.04,1.313835,446101,21657
1173.79,1.316235,451929,21819
1177.34,1.320414,456026,21806
1180.9,1.318419,461306,22160
1184.44,1.324730,467657,22141
1187.99,1.315554,473969,22919
1191.52,1.322605,479856,22830
1195.06,1.320523,487372,23299
1199.76,1.321820,497347,23705
1203.29,1.314864,504311,24425
1206.81,1.318535,511507,24565
1210.33,1.324262,519078,24602
1213.84,1.320613,527163,25196
1217.35,1.320626,534208,25532
1220.85,1.327051,540472,25452
1225.51,1.323666,549929,26100
1229.01,1.323589,556888,26435
1232.5,1.324488,562180,26631
1235.98,1.322001,567975,27060
1239.46,1.324401,574815,27235
1242.94,1.317806,582782,28035
1246.41,1.327877,591476,27801
1251.03,1.328756,604016,28333
1254.5,1.328545,612289,28735
1257.96,1.323047,619125,29426
1261.41,1.324511,624551,29584
1264.86,1.329508,629900,29496
1268.31,1.328707,634345,29759
1271.75,1.331053,638574,29796
1276.33,1.332535,642499,29877
1279.76,1.331429,645905,30112
1283.19,1.323879,648307,30754
1286.61,1.328755,650446,30511
1290.03,1.329609,652132,30530
1293.44,1.328378,653907,30700
1296.85,1.333834,655963,30412
1301.39,1.332913,657349,30541
1304.8,1.335446,657558,30373
1308.19,1.338128,658515,30230
1311.58,1.330897,658804,30751
1314.97,1.332533,659011,30645
1318.36,1.329629,658272,30816
1321.73,1.335982,658022,30357
1326.23,1.336411,657870,30320
1329.6,1.328531,656482,30810
1332.97,1.330059,654926,30629
1336.33,1.332237,653727,30420
1339.69,1.330948,652497,30453
1343.04,1.329839,649913,30410
1346.39,1.328210,647671,30419
1349.73,1.330745,645338,30133
1354.18,1.328352,641175,30104
1357.52,1.330758,638376,29807
1360.85,1.329137,635805,29798
1364.17,1.327150,633413,29822
1367.49,1.329402,631026,29556
1370.81,1.329573,628050,29405
1374.12,1.333236,625034,29018
1378.54,1.333371,620272,28788
1381.84,1.330124,616892,28846
1385.14,1.329000,613613,28767
1388.43,1.334092,611526,28335
1391.72,1.327073,610663,28756
1395.01,1.330921,610634,28501
1398.29,1.328853,611700,28687
1402.66,1.331702,614051,28609
1405.93,1.331842,616268,28703
1409.2,1.336060,617795,28496
1412.46,1.328649,618872,29037
1415.72,1.330045,619795,28987
1418.98,1.335235,620495,28675
1422.23,1.332570,621087,28879
1426.56,1.331630,621375,28955
1429.8,1.333151,621616,28865
1433.04,1.330331,622129,29077
1436.27,1.336987,621526,28607
1439.5,1.338478,621113,28490
1442.72,1.336989,620921,28579
1445.94,1.336336,620270,28592
1450.23,1.330665,618860,28902
1453.44,1.336434,617697,28467
1456.64,1.334846,616264,28505
1459.85,1.338828,614413,28160
1463.04,1.342456,612307,27830
1466.24,1.337853,610032,28022
1469.43,1.336231,607345,28003
1473.67,1.332272,603789,28094
1476.85,1.331424,601175,28027
1480.02,1.332825,597737,27777
1483.19,1.338292,594479,27280
1486.36,1.338500,591232,27118
1489.52,1.341150,587853,26799
1492.68,1.336067,583875,26931
1496.89,1.335626,578062,26690
1500.03,1.344560,574159,25970
1503.18,1.335476,570285,26340
1506.32,1.335683,565444,26104
1509.45,1.340849,560571,25573
1512.58,1.336169,555821,25631
1515.71,1.339285,550344,25197
1519.87,1.333737,543983,25226
1522.99,1.334067,538764,24965
1526.1,1.337133,533692,24556
1529.21,1.332466,527902,24552
1532.32,1.337853,521886,23973
1535.42,1.333722,515888,23924
1538.51,1.336843,509987,23481
1541.6,1.334423,503936,23332
1545.72,1.337451,494694,22745
1548.8,1.335205,488378,22571
1551.88,1.341224,481832,21962
1554.95,1.335368,474989,21944
1558.02,1.342595,467818,21256
1561.08,1.334822,460730,21312
1564.15,1.329043,454170,21290
1568.22,1.326563,444181,20941
1571.27,1.323243,436947,20758
1574.32,1.328335,429598,20171
1577.36,1.328293,422039,19818
1580.4,1.333234,414375,19238
1583.43,1.327894,406354,19099
1586.46,1.338924,398475,18259
1590.49,1.327787,388982,18287
1593.51,1.334956,380708,17605
1596.53,1.324499,372727,17656
1599.54,1.334323,365060,16906
1602.55,1.327451,357543,16822
1605.55,1.327196,349495,16453
1608.55,1.319645,341154,16342
1612.54,1.319254,330877,15864
1615.53,1.312041,322904,15741
1618.51,1.319551,315116,15098
1621.49,1.315865,307217,14845
1624.47,1.320184,299481,14328
1627.44,1.324696,292112,13831
1630.41,1.319101,284245,13633
1634.36,1.317466,274079,13195
1637.32,1.318250,266916,12827
1640.27,1.315335,259612,12560
1643.22,1.302592,251804,12545
1646.16,1.303576,244348,12146
1649.1,1.311772,236703,11546
1652.04,1.306954,228171,11254
1655.95,1.302986,215408,10722
1658.88,1.294337,204937,10406
1661.8,1.288142,193395,9961
1664.72,1.269324,179728,9667
1667.63,1.267737,163642,8834
1670.54,1.238320,146312,8452
1673.44,1.242391,128451,7351
1677.31,1.207539,105080,6516
1680.21,1.189414,88906,5748
1683.1,1.166577,75033,5113
1685.99,1.232601,63520,3718
1688.87,1.211047,53714,3304
1691.75,1.143860,45653,3278
1694.62,1.109000,39137,3045
1697.49,1.194959,33776,2156
1701.31,1.218904,28175,1702

File: Column 1_078330_20241121_165645.csv
Method:,Column 1,,
Host Date-Time:,21/11/24 @ 16:56:45,,
Header Version:,1,,
System Temp (C):,34.75,,
Detector Temp (C):,32.99,,
Humidity (%):,2.25,,
Lamp PD:,3802,,
Shift Vector Coefficients:,-10.5391,0.0761263,-0.000134223,,
Pixel to Wavelength Coefficients:,1775.68,-0.916766,-0.000235065,,
Serial Number:,5510004,,
Scan Config Name:,Column 1,,
Scan Config Type:,Slew,,
Section 1,,
Start wavelength (nm):,900,,
End wavelength (nm):,1700,,
Pattern Pixel Width (nm):,   7.03,,,,
Exposure (ms):,  0.635,,,,
Digital Resolution:,228,,
Num Repeats:,6,,
PGA Gain:,64,,
Total Measurement Time in sec:,  2.727,,
Wavelength (nm),Absorbance (AU),Reference Signal (unitless),Sample Signal (unitless)
901.51,1.342523,108485,4930
905.376,1.315244,121306,5870
909.237,1.319832,131909,6316
913.095,1.307623,143299,7057
916.948,1.305764,156982,7764
922.079,1.319714,179937,8618
925.923,1.337063,200504,9227
929.762,1.319966,222660,10658
933.597,1.321114,244426,11669
937.427,1.328662,263972,12385
941.254,1.317719,281845,13561
945.076,1.314157,297271,14421
950.165,1.319678,315605,15117
953.978,1.320511,328029,15682
957.786,1.311971,340470,16600
961.59,1.323360,352317,16733
965.389,1.304894,363056,17992
969.185,1.311898,373162,18197
972.976,1.318058,382632,18396
976.763,1.320559,391202,18700
981.806,1.316754,400190,19298
985.583,1.311429,406088,19824
989.355,1.306530,410162,20250
993.124,1.306288,412868,20395
996.888,1.306286,414263,20464
1000.65,1.306474,415476,20515
1004.4,1.310412,415479,20330
1009.41,1.307086,414358,20431
1013.15,1.312479,412923,20109
1016.89,1.315043,411526,19923
1020.63,1.307260,409066,20162
1024.36,1.306290,406777,20094
1028.09,1.313876,404427,19632
1031.82,1.306939,401911,19824
1036.78,1.311723,398410,19436
1040.49,1.305951,396204,19587
1044.2,1.316021,394236,19043
1047.91,1.312208,392042,19104
1051.61,1.307521,389823,19202
1055.31,1.316649,388234,18726
1059,1.311530,387599,18917
1063.92,1.307010,386688,19070
1067.61,1.327212,386598,18199
1071.29,1.315921,387377,18716
1074.96,1.310701,388536,18999
1078.63,1.312836,389855,18970
1082.3,1.319414,391215,18750
1085.96,1.324557,393215,18624
1090.84,1.316640,396270,19114
1094.49,1.321501,398760,19020
1098.14,1.319400,400987,19219
1101.79,1.318017,403477,19400
1105.43,1.315111,406116,19658
1109.06,1.316648,407701,19665
1112.7,1.317441,409859,19733
1117.53,1.314627,412494,19989
1121.15,1.318838,414909,19912
1124.77,1.307901,416559,20501
1128.38,1.320395,418532,20014
1131.99,1.319857,419956,20107
1135.6,1.316906,421946,20340
1139.2,1.322926,423881,20152
1143.99,1.316469,426786,20594
1147.58,1.323676,428617,20342
1151.17,1.324528,431169,20423
1154.75,1.318462,433579,20826
1158.33,1.317117,436264,21020
1161.91,1.318601,439132,21086
1165.48,1.317629,442389,21290
1169.04,1.321707,446101,21268
1173.79,1.317072,451929,21777
1177.34,1.315680,456026,22045
1180.9,1.316347,461306,22266
1184.44,1.311269,467657,22838
1187.99,1.315175,473969,22939
1191.52,1.323805,479856,22767
1195.06,1.327400,487372,22933
1199.76,1.318134,497347,23907
1203.29,1.321024,504311,24081
1206.81,1.327935,511507,24039
1210.33,1.328074,519078,24387
1213.84,1.320837,527163,25183
1217.35,1.324762,534208,25290
1220.85,1.325978,540472,25515
1225.51,1.328283,549929,25824
1229.01,1.322899,556888,26477
1232.5,1.322730,562180,26739
1235.98,1.323416,567975,26972
1239.46,1.324496,574815,27229
1242.94,1.323827,582782,27649
1246.41,1.326131,591476,27913
1251.03,1.325518,604016,28545
1254.5,1.332066,612289,28503
1257.96,1.325296,619125,29274
1261.41,1.327797,624551,29361
1264.86,1.326486,629900,29702
1268.31,1.327541,634345,29839
1271.75,1.335787,638574,29473
1276.33,1.332841,642499,29856
1279.76,1.335545,645905,29828
1283.19,1.336851,648307,29849
1286.61,1.333550,650446,30176
1290.03,1.332778,652132,30308
1293.44,1.335293,653907,30215
1296.85,1.336355,655963,30236
1301.39,1.331848,657349,30616
1304.8,1.334361,657558,30449
1308.19,1.333768,658515,30535
1311.58,1.338419,658804,30223
1314.97,1.333327,659011,30589
1318.36,1.331465,658272,30686
1321.73,1.335753,658022,30373
1326.23,1.332887,657870,30567
1329.6,1.335565,656482,30315
1332.97,1.330244,654926,30616
1336.33,1.333682,653727,30319
1339.69,1.331905,652497,30386
1343.04,1.329525,649913,30432
1346.39,1.328981,647671,30365
1349.73,1.337236,645338,29686
1354.18,1.332396,641175,29825
1357.52,1.334020,638376,29584
1360.85,1.327929,635805,29881
1364.17,1.326917,633413,29838
1367.49,1.331080,631026,29442
1370.81,1.331794,628050,29255
1374.12,1.329303,625034,29282
1378.54,1.333356,620272,28789
1381.84,1.326107,616892,29114
1385.14,1.331741,613613,28586
1388.43,1.329821,611526,28615
1391.72,1.327496,610663,28728
1395.01,1.333259,610634,28348
1398.29,1.329611,611700,28637
1402.66,1.325163,614051,29043
1405.93,1.329594,616268,28852
1409.2,1.329226,617795,28948
1412.46,1.333326,618872,28726
1415.72,1.336566,619795,28555
1418.98,1.333180,620495,28811
1422.23,1.331354,621087,28960
1426.56,1.336942,621375,28603
1429.8,1.334507,621616,28775
1433.04,1.333043,622129,28896
1436.27,1.333871,621526,28813
1439.5,1.334669,621113,28741
1442.72,1.336427,620921,28616
1445.94,1.339033,620270,28415
1450.23,1.338243,618860,28402
1453.44,1.340881,617697,28177
1456.64,1.338042,616264,28296
1459.85,1.338304,614413,28194
1463.04,1.338479,612307,28086
1466.24,1.331179,610032,28456
1469.43,1.335936,607345,28022
1473.67,1.338484,603789,27695
1476.85,1.337180,601175,27658
1480.02,1.340443,597737,27294
1483.19,1.337465,594479,27332
1486.36,1.339398,591232,27062
1489.52,1.341880,587853,26754
1492.68,1.339337,583875,26729
1496.89,1.334099,578062,26784
1500.03,1.340333,574159,26224
1503.18,1.340084,570285,26062
1506.32,1.339912,565444,25851
1509.45,1.339780,560571,25636
1512.58,1.338327,555821,25504
1515.71,1.333073,550344,25560
1519.87,1.337732,543983,24995
1522.99,1.330930,538764,25146
1526.1,1.341399,533692,24316
1529.21,1.334648,527902,24429
1532.32,1.341126,521886,23793
1535.42,1.333776,515888,23921
1538.51,1.341248,509987,23244
1541.6,1.331455,503936,23492
1545.72,1.332533,494694,23004
1548.8,1.339517,488378,22348
1551.88,1.334493,481832,22305
1554.95,1.336557,474989,21884
1558.02,1.340984,467818,21335
1561.08,1.348526,460730,20650
1564.15,1.324820,454170,21498
1568.22,1.339081,444181,20346
1571.27,1.335594,436947,20176
1574.32,1.337056,429598,19770
1577.36,1.329346,422039,19770
1580.4,1.326469,414375,19540
1583.43,1.327235,406354,19128
1586.46,1.347766,398475,17891
1590.49,1.326222,388982,18353
1593.51,1.334956,380708,17605
1596.53,1.333621,372727,17289
1599.54,1.327948,365060,17156
1602.55,1.329547,357543,16741
1605.55,1.330348,349495,16334
1608.55,1.335808,341154,15745
1612.54,1.334833,330877,15305
1615.53,1.327144,322904,15203
1618.51,1.319666,315116,15094
1621.49,1.325898,307217,14506
1624.47,1.313297,299481,14557
1627.44,1.321380,292112,13937
1630.41,1.318147,284245,13663
1634.36,1.331039,274079,12789
1637.32,1.313200,266916,12977
1640.27,1.316929,259612,12514
1643.22,1.324677,251804,11923
1646.16,1.318156,244348,11745
1649.1,1.314527,236703,11473
1652.04,1.327377,228171,10737
1655.95,1.316187,215408,10401
1658.88,1.294545,204937,10401
1661.8,1.297262,193395,9754
1664.72,1.278954,179728,9455
1667.63,1.275075,163642,8686
1670.54,1.245000,146312,8323
1673.44,1.241329,128451,7369
1677.31,1.223491,105080,6281
1680.21,1.188659,88906,5758
1683.1,1.246659,75033,4252
1685.99,1.197713,63520,4029
1688.87,1.171139,53714,3622
1691.75,1.112310,45653,3525
1694.62,1.126462,39137,2925
1697.49,1.140329,33776,2445
1701.31,1.173172,28175,1891

File: Column 1_078331_20241121_165648.csv
Method:,Column 1,,
Host Date-Time:,21/11/24 @ 16:56:48,,
Header Version:,1,,
System Temp (C):,34.77,,
Detector Temp (C):,33.02,,
Humidity (%):,2.3,,
Lamp PD:,3802,,
Shift Vector Coefficients:,-10.5391,0.0761263,-0.000134223,,
Pixel to Wavelength Coefficients:,1775.68,-0.916766,-0.000235065,,
Serial Number:,5510004,,
Scan Config Name:,Column 1,,
Scan Config Type:,Slew,,
Section 1,,
Start wavelength (nm):,900,,
End wavelength (nm):,1700,,
Pattern Pixel Width (nm):,   7.03,,,,
Exposure (ms):,  0.635,,,,
Digital Resolution:,228,,
Num Repeats:,6,,
PGA Gain:,64,,
Total Measurement Time in sec:,  2.724,,
Wavelength (nm),Absorbance (AU),Reference Signal (unitless),Sample Signal (unitless)
901.51,1.318949,108485,5205
905.376,1.301123,121306,6064
909.237,1.316681,131909,6362
913.095,1.313634,143299,6960
916.948,1.311678,156982,7659
922.079,1.318707,179937,8638
925.923,1.337816,200504,9211
929.762,1.323773,222660,10565
933.597,1.316707,244426,11788
937.427,1.322257,263972,12569
941.254,1.314782,281845,13653
945.076,1.325940,297271,14035
950.165,1.318473,315605,15159
953.978,1.323875,328029,15561
957.786,1.314674,340470,16497
961.59,1.312492,352317,17157
965.389,1.304991,363056,17988
969.185,1.315950,373162,18028
972.976,1.312312,382632,18641
976.763,1.302701,391202,19485
981.806,1.308616,400190,19663
985.583,1.309985,406088,19890
989.355,1.313405,410162,19932
993.124,1.309665,412868,20237
996.888,1.305099,414263,20520
1000.65,1.307174,415476,20482
1004.4,1.314619,415479,20134
1009.41,1.310801,414358,20257
1013.15,1.316384,412923,19929
1016.89,1.312110,411526,20058
1020.63,1.305390,409066,20249
1024.36,1.306355,406777,20091
1028.09,1.310438,404427,19788
1031.82,1.311807,401911,19603
1036.78,1.311120,398410,19463
1040.49,1.312519,396204,19293
1044.2,1.309862,394236,19315
1047.91,1.309173,392042,19238
1051.61,1.313075,389823,18958
1055.31,1.303176,388234,19316
1059,1.307873,387599,19077
1063.92,1.307990,386688,19027
1067.61,1.310752,386598,18902
1071.29,1.313145,387377,18836
1074.96,1.309103,388536,19069
1078.63,1.312859,389855,18969
1082.3,1.308256,391215,19238
1085.96,1.311329,393215,19200
1090.84,1.313989,396270,19231
1094.49,1.313537,398760,19372
1098.14,1.314479,400987,19438
1101.79,1.322269,403477,19211
1105.43,1.318304,406116,19514
1109.06,1.318751,407701,19570
1112.7,1.314896,409859,19849
1117.53,1.313542,412494,20039
1121.15,1.321792,414909,19777
1124.77,1.320758,416559,19903
1128.38,1.323487,418532,19872
1131.99,1.316157,419956,20279
1135.6,1.315116,421946,20424
1139.2,1.323832,423881,20110
1143.99,1.317525,426786,20544
1147.58,1.322631,428617,20391
1151.17,1.318614,431169,20703
1154.75,1.324531,433579,20537
1158.33,1.314213,436264,21161
1161.91,1.324365,439132,20808
1165.48,1.321604,442389,21096
1169.04,1.314035,446101,21647
1173.79,1.323704,451929,21447
1177.34,1.323993,456026,21627
1180.9,1.314712,461306,22350
1184.44,1.322227,467657,22269
1187.99,1.324785,473969,22437
1191.52,1.317612,479856,23094
1195.06,1.319816,487372,23337
1199.76,1.324964,497347,23534
1203.29,1.318991,504311,24194
1206.81,1.319526,511507,24509
1210.33,1.325872,519078,24511
1213.84,1.322116,527163,25109
1217.35,1.325002,534208,25276
1220.85,1.324992,540472,25573
1225.51,1.316406,549929,26540
1229.01,1.326837,556888,26238
1232.5,1.325010,562180,26599
1235.98,1.323255,567975,26982
1239.46,1.324082,574815,27255
1242.94,1.321758,582782,27781
1246.41,1.326785,591476,27871
1251.03,1.322441,604016,28748
1254.5,1.327398,612289,28811
1257.96,1.321456,619125,29534
1261.41,1.324511,624551,29584
1264.86,1.332197,629900,29314
1268.31,1.326582,634345,29905
1271.75,1.331680,638574,29753
1276.33,1.326473,642499,30297
1279.76,1.330277,645905,30192
1283.19,1.326343,648307,30580
1286.61,1.325536,650446,30738
1290.03,1.326025,652132,30783
1293.44,1.327727,653907,30746
1296.85,1.333392,655963,30443
1301.39,1.335051,657349,30391
1304.8,1.331461,657558,30653
1308.19,1.332206,658515,30645
1311.58,1.333361,658804,30577
1314.97,1.333583,659011,30571
1318.36,1.331677,658272,30671
1321.73,1.335710,658022,30376
1326.23,1.329801,657870,30785
1329.6,1.334664,656482,30378
1332.97,1.335323,654926,30260
1336.33,1.330883,653727,30515
1339.69,1.333911,652497,30246
1343.04,1.330196,649913,30385
1346.39,1.325576,647671,30604
1349.73,1.335265,645338,29821
1354.18,1.324904,641175,30344
1357.52,1.324193,638376,30261
1360.85,1.334165,635805,29455
1364.17,1.325537,633413,29933
1367.49,1.325962,631026,29791
1370.81,1.326556,628050,29610
1374.12,1.326023,625034,29504
1378.54,1.323069,620272,29479
1381.84,1.328471,616892,28956
1385.14,1.329030,613613,28765
1388.43,1.324991,611526,28935
1391.72,1.327239,610663,28745
1395.01,1.326072,610634,28821
1398.29,1.320962,611700,29213
1402.66,1.331019,614051,28654
1405.93,1.329233,616268,28876
1409.2,1.333402,617795,28671
1412.46,1.331004,618872,28880
1415.72,1.331816,619795,28869
1418.98,1.330940,620495,28960
1422.23,1.335437,621087,28689
1426.56,1.334520,621375,28763
1429.8,1.330346,621616,29052
1433.04,1.334081,622129,28827
1436.27,1.333133,621526,28862
1439.5,1.340296,621113,28371
1442.72,1.334368,620921,28752
1445.94,1.335562,620270,28643
1450.23,1.335485,618860,28583
1453.44,1.332470,617697,28728
1456.64,1.331461,616264,28728
1459.85,1.333905,614413,28481
1463.04,1.330710,612307,28593
1466.24,1.336492,610032,28110
1469.43,1.334219,607345,28133
1473.67,1.334892,603789,27925
1476.85,1.337321,601175,27649
1480.02,1.339172,597737,27374
1483.19,1.336751,594479,27377
1486.36,1.332646,591232,27486
1489.52,1.339097,587853,26926
1492.68,1.336729,583875,26890
1496.89,1.334846,578062,26738
1500.03,1.341262,574159,26168
1503.18,1.335889,570285,26315
1506.32,1.334536,565444,26173
1509.45,1.340645,560571,25585
1512.58,1.342038,555821,25287
1515.71,1.339872,550344,25163
1519.87,1.336986,543983,25038
1522.99,1.337788,538764,24752
1526.1,1.339581,533692,24418
1529.21,1.339942,527902,24133
1532.32,1.334784,521886,24143
1535.42,1.335997,515888,23799
1538.51,1.332188,509987,23734
1541.6,1.339384,503936,23067
1545.72,1.339019,494694,22663
1548.8,1.334168,488378,22625
1551.88,1.333910,481832,22335
1554.95,1.337014,474989,21861
1558.02,1.336348,467818,21564
1561.08,1.341144,460730,21004
1564.15,1.336947,454170,20906
1568.22,1.338804,444181,20359
1571.27,1.332847,436947,20304
1574.32,1.338552,429598,19702
1577.36,1.330027,422039,19739
1580.4,1.334183,414375,19196
1583.43,1.334377,406354,18816
1586.46,1.330795,398475,18604
1590.49,1.329882,388982,18199
1593.51,1.328711,380708,17860
1596.53,1.328924,372727,17477
1599.54,1.332554,365060,16975
1602.55,1.328666,357543,16775
1605.55,1.331760,349495,16281
1608.55,1.327746,341154,16040
1612.54,1.314273,330877,16047
1615.53,1.327116,322904,15204
1618.51,1.322003,315116,15013
1621.49,1.328450,307217,14421
1624.47,1.320214,299481,14327
1627.44,1.324727,292112,13830
1630.41,1.325714,284245,13427
1634.36,1.320936,274079,13090
1637.32,1.311530,266916,13027
1640.27,1.309906,259612,12718
1643.22,1.315951,251804,12165
1646.16,1.309298,244348,11987
1649.1,1.301844,236703,11813
1652.04,1.300861,228171,11413
1655.95,1.297432,215408,10860
1658.88,1.307299,204937,10100
1661.8,1.279936,193395,10151
1664.72,1.271531,179728,9618
1667.63,1.262606,163642,8939
1670.54,1.263386,146312,7978
1673.44,1.234662,128451,7483
1677.31,1.197850,105080,6663
1680.21,1.190625,88906,5732
1683.1,1.229732,75033,4421
1685.99,1.239192,63520,3662
1688.87,1.157216,53714,3740
1691.75,1.207069,45653,2834
1694.62,1.160581,39137,2704
1697.49,1.241254,33776,1938
1701.31,1.187176,28175,1831