Folder: textile_sorting_NIRSCAN_/ML/samples/unknown (part 109)

File: Column 1_078780_20241121_172149.csv
Method:,Column 1,,
Host Date-Time:,21/11/24 @ 17:21:49,,
Header Version:,1,,
System Temp (C):,36.78,,
Detector Temp (C):,35.19,,
Humidity (%):,1.08,,
Lamp PD:,3798,,
Shift Vector Coefficients:,-10.5391,0.0761263,-0.000134223,,
Pixel to Wavelength Coefficients:,1775.68,-0.916766,-0.000235065,,
Serial Number:,5510004,,
Scan Config Name:,Column 1,,
Scan Config Type:,Slew,,
Section 1,,
Start wavelength (nm):,900,,
End wavelength (nm):,1700,,
Pattern Pixel Width (nm):,   7.03,,,,
Exposure (ms):,  0.635,,,,
Digital Resolution:,228,,
Num Repeats:,6,,
PGA Gain:,64,,
Total Measurement Time in sec:,  2.704,,
Wavelength (nm),Absorbance (AU),Reference Signal (unitless),Sample Signal (unitless)
901.51,1.310848,108485,5303
905.376,1.351167,121306,5404
909.237,1.303569,131909,6557
913.095,1.332313,143299,6667
916.948,1.339725,156982,7180
922.079,1.319261,179937,8627
925.923,1.313787,200504,9735
929.762,1.318543,222660,10693
933.597,1.322754,244426,11625
937.427,1.308618,263972,12970
941.254,1.314591,281845,13659
945.076,1.313044,297271,14458
950.165,1.320570,315605,15086
953.978,1.311955,328029,15994
957.786,1.318375,340470,16357
961.59,1.306659,352317,17389
965.389,1.311853,363056,17706
969.185,1.309921,373162,18280
972.976,1.307562,382632,18846
976.763,1.303414,391202,19453
981.806,1.307558,400190,19711
985.583,1.308721,406088,19948
989.355,1.307604,410162,20200
993.124,1.308936,412868,20271
996.888,1.303219,414263,20609
1000.65,1.312035,415476,20254
1004.4,1.306308,415479,20523
1009.41,1.307873,414358,20394
1013.15,1.310883,412923,20183
1016.89,1.305278,411526,20376
1020.63,1.306055,409066,20218
1024.36,1.315420,406777,19676
1028.09,1.307093,404427,19941
1031.82,1.298349,401911,20220
1036.78,1.316712,398410,19214
1040.49,1.306750,396204,19551
1044.2,1.300211,394236,19749
1047.91,1.300921,392042,19607
1051.61,1.307725,389823,19193
1055.31,1.308424,388234,19084
1059,1.303050,387599,19290
1063.92,1.317894,386688,18598
1067.61,1.312802,386598,18813
1071.29,1.313307,387377,18829
1074.96,1.307739,388536,19129
1078.63,1.305121,389855,19310
1082.3,1.307106,391215,19289
1085.96,1.308353,393215,19332
1090.84,1.311714,396270,19332
1094.49,1.307769,398760,19631
1098.14,1.311695,400987,19563
1101.79,1.312545,403477,19646
1105.43,1.307208,406116,20019
1109.06,1.316537,407701,19670
1112.7,1.312104,409859,19977
1117.53,1.316652,412494,19896
1121.15,1.309132,414909,20362
1124.77,1.314454,416559,20194
1128.38,1.321264,418532,19974
1131.99,1.308747,419956,20628
1135.6,1.311875,421946,20577
1139.2,1.313651,423881,20587
1143.99,1.311688,426786,20822
1147.58,1.311113,428617,20939
1151.17,1.317797,431169,20742
1154.75,1.319694,433579,20767
1158.33,1.317551,436264,20999
1161.91,1.311897,439132,21414
1165.48,1.311129,442389,21611
1169.04,1.321156,446101,21295
1173.79,1.305890,451929,22345
1177.34,1.319797,456026,21837
1180.9,1.311768,461306,22502
1184.44,1.316531,467657,22563
1187.99,1.309869,473969,23221
1191.52,1.313159,479856,23332
1195.06,1.316516,487372,23515
1199.76,1.312898,497347,24197
1203.29,1.317110,504311,24299
1206.81,1.316999,511507,24652
1210.33,1.317519,519078,24987
1213.84,1.324144,527163,24992
1217.35,1.315721,534208,25822
1220.85,1.323737,540472,25647
1225.51,1.323600,549929,26104
1229.01,1.322031,556888,26530
1232.5,1.313745,562180,27298
1235.98,1.317070,567975,27369
1239.46,1.318997,574815,27576
1242.94,1.319995,582782,27894
1246.41,1.319124,591476,28367
1251.03,1.324227,604016,28630
1254.5,1.324933,612289,28975
1257.96,1.323815,619125,29374
1261.41,1.320086,624551,29887
1264.86,1.324487,629900,29839
1268.31,1.320840,634345,30303
1271.75,1.321496,638574,30459
1276.33,1.320564,642499,30712
1279.76,1.328153,645905,30340
1283.19,1.326357,648307,30579
1286.61,1.328954,650446,30497
1290.03,1.325616,652132,30812
1293.44,1.322086,653907,31148
1296.85,1.323672,655963,31132
1301.39,1.327093,657349,30953
1304.8,1.324797,657558,31127
1308.19,1.323646,658515,31255
1311.58,1.326765,658804,31045
1314.97,1.328316,659011,30944
1318.36,1.327506,658272,30967
1321.73,1.325997,658022,31063
1326.23,1.326414,657870,31026
1329.6,1.325259,656482,31043
1332.97,1.328955,654926,30707
1336.33,1.324820,653727,30944
1339.69,1.329113,652497,30582
1343.04,1.327489,649913,30575
1346.39,1.329711,647671,30314
1349.73,1.322196,645338,30732
1354.18,1.327934,641175,30133
1357.52,1.324696,638376,30226
1360.85,1.325219,635805,30068
1364.17,1.323351,633413,30084
1367.49,1.318075,631026,30337
1370.81,1.320164,628050,30049
1374.12,1.327941,625034,29374
1378.54,1.323984,620272,29417
1381.84,1.320711,616892,29478
1385.14,1.322571,613613,29196
1388.43,1.327188,611526,28789
1391.72,1.323898,610663,28967
1395.01,1.320666,610634,29182
1398.29,1.325505,611700,28909
1402.66,1.325118,614051,29046
1405.93,1.328556,616268,28921
1409.2,1.326191,617795,29151
1412.46,1.336802,618872,28497
1415.72,1.326954,619795,29194
1418.98,1.332111,620495,28882
1422.23,1.329259,621087,29100
1426.56,1.328373,621375,29173
1429.8,1.324998,621616,29412
1433.04,1.330600,622129,29059
1436.27,1.329716,621526,29090
1439.5,1.326110,621113,29313
1442.72,1.330369,620921,29018
1445.94,1.331052,620270,28942
1450.23,1.324325,618860,29327
1453.44,1.332470,617697,28728
1456.64,1.330585,616264,28786
1459.85,1.331548,614413,28636
1463.04,1.330057,612307,28636
1466.24,1.330432,610032,28505
1469.43,1.336479,607345,27987
1473.67,1.329959,603789,28244
1476.85,1.331905,601175,27996
1480.02,1.336058,597737,27571
1483.19,1.329857,594479,27815
1486.36,1.336790,591232,27225
1489.52,1.323198,587853,27930
1492.68,1.332550,583875,27150
1496.89,1.328669,578062,27121
1500.03,1.336180,574159,26476
1503.18,1.333798,570285,26442
1506.32,1.338537,565444,25933
1509.45,1.336170,560571,25850
1512.58,1.334445,555821,25733
1515.71,1.335032,550344,25445
1519.87,1.333892,543983,25217
1522.99,1.330308,538764,25182
1526.1,1.335262,533692,24662
1529.21,1.334683,527902,24427
1532.32,1.332953,521886,24245
1535.42,1.329243,515888,24172
1538.51,1.328798,509987,23920
1541.6,1.332529,503936,23434
1545.72,1.336993,494694,22769
1548.8,1.333362,488378,22667
1551.88,1.328154,481832,22633
1554.95,1.337530,474989,21835
1558.02,1.336872,467818,21538
1561.08,1.328129,460730,21643
1564.15,1.329880,454170,21249
1568.22,1.327871,444181,20878
1571.27,1.337773,436947,20075
1574.32,1.327346,429598,20217
1577.36,1.329302,422039,19772
1580.4,1.331746,414375,19304
1583.43,1.333985,406354,18833
1586.46,1.327215,398475,18758
1590.49,1.322993,388982,18490
1593.51,1.324163,380708,18048
1596.53,1.324745,372727,17646
1599.54,1.316926,365060,17597
1602.55,1.330092,357543,16720
1605.55,1.315297,349495,16910
1608.55,1.330217,341154,15949
1612.54,1.319227,330877,15865
1615.53,1.313201,322904,15699
1618.51,1.334743,315116,14579
1621.49,1.323866,307217,14574
1624.47,1.308255,299481,14727
1627.44,1.322878,292112,13889
1630.41,1.315769,284245,13738
1634.36,1.312525,274079,13346
1637.32,1.317100,266916,12861
1640.27,1.307183,259612,12798
1643.22,1.295723,251804,12745
1646.16,1.314914,244348,11833
1649.1,1.310720,236703,11574
1652.04,1.310091,228171,11173
1655.95,1.294245,215408,10940
1658.88,1.294378,204937,10405
1661.8,1.270583,193395,10372
1664.72,1.285759,179728,9308
1667.63,1.266952,163642,8850
1670.54,1.236219,146312,8493
1673.44,1.203373,128451,8042
1677.31,1.179723,105080,6947
1680.21,1.153607,88906,6242
1683.1,1.158998,75033,5203
1685.99,1.165521,63520,4339
1688.87,1.153171,53714,3775
1691.75,1.206610,45653,2837
1694.62,1.132894,39137,2882
1697.49,1.123091,33776,2544
1701.31,1.169969,28175,1905

File: Column 1_078784_20241121_172201.csv
Method:,Column 1,,
Host Date-Time:,21/11/24 @ 17:22:1,,
Header Version:,1,,
System Temp (C):,36.64,,
Detector Temp (C):,35.17,,
Humidity (%):,0.83,,
Lamp PD:,3797,,
Shift Vector Coefficients:,-10.5391,0.0761263,-0.000134223,,
Pixel to Wavelength Coefficients:,1775.68,-0.916766,-0.000235065,,
Serial Number:,5510004,,
Scan Config Name:,Column 1,,
Scan Config Type:,Slew,,
Section 1,,
Start wavelength (nm):,900,,
End wavelength (nm):,1700,,
Pattern Pixel Width (nm):,   7.03,,,,
Exposure (ms):,  0.635,,,,
Digital Resolution:,228,,
Num Repeats:,6,,
PGA Gain:,64,,
Total Measurement Time in sec:,  2.724,,
Wavelength (nm),Absorbance (AU),Reference Signal (unitless),Sample Signal (unitless)
901.51,1.327885,108485,5099
905.376,1.347884,121306,5445
909.237,1.306093,131909,6519
913.095,1.319729,143299,6863
916.948,1.306941,156982,7743
922.079,1.334736,179937,8325
925.923,1.337439,200504,9219
929.762,1.334468,222660,10308
933.597,1.322568,244426,11630
937.427,1.320086,263972,12632
941.254,1.324074,281845,13364
945.076,1.320253,297271,14220
950.165,1.309513,315605,15475
953.978,1.315445,328029,15866
957.786,1.310586,340470,16653
961.59,1.322245,352317,16776
965.389,1.314732,363056,17589
969.185,1.307954,373162,18363
972.976,1.306802,382632,18879
976.763,1.305316,391202,19368
981.806,1.306194,400190,19773
985.583,1.303011,406088,20212
989.355,1.315064,410162,19856
993.124,1.314412,412868,20017
996.888,1.309502,414263,20313
1000.65,1.303416,415476,20660
1004.4,1.307643,415479,20460
1009.41,1.301657,414358,20688
1013.15,1.305197,412923,20449
1016.89,1.302771,411526,20494
1020.63,1.316512,409066,19737
1024.36,1.306744,406777,20073
1028.09,1.309058,404427,19851
1031.82,1.305823,401911,19875
1036.78,1.305335,398410,19724
1040.49,1.306084,396204,19581
1044.2,1.309929,394236,19312
1047.91,1.310144,392042,19195
1051.61,1.310608,389823,19066
1055.31,1.307856,388234,19109
1059,1.309629,387599,19000
1063.92,1.309958,386688,18941
1067.61,1.311327,386598,18877
1071.29,1.305761,387377,19159
1074.96,1.312395,388536,18925
1078.63,1.307127,389855,19221
1082.3,1.319298,391215,18755
1085.96,1.319157,393215,18857
1090.84,1.315120,396270,19181
1094.49,1.316868,398760,19224
1098.14,1.297585,400987,20209
1101.79,1.313651,403477,19596
1105.43,1.311459,406116,19824
1109.06,1.312778,407701,19841
1112.7,1.319338,409859,19647
1117.53,1.307494,412494,20320
1121.15,1.318141,414909,19944
1124.77,1.320235,416559,19927
1128.38,1.314297,418532,20297
1131.99,1.320332,419956,20085
1135.6,1.307611,421946,20780
1139.2,1.321506,423881,20218
1143.99,1.322222,426786,20323
1147.58,1.319638,428617,20532
1151.17,1.321033,431169,20588
1154.75,1.310876,433579,21193
1158.33,1.314644,436264,21140
1161.91,1.315522,439132,21236
1165.48,1.313750,442389,21481
1169.04,1.312493,446101,21724
1173.79,1.320415,451929,21610
1177.34,1.306614,456026,22510
1180.9,1.314013,461306,22386
1184.44,1.313443,467657,22724
1187.99,1.323664,473969,22495
1191.52,1.324722,479856,22719
1195.06,1.317773,487372,23447
1199.76,1.320064,497347,23801
1203.29,1.322469,504311,24001
1206.81,1.325377,511507,24181
1210.33,1.320851,519078,24796
1213.84,1.320786,527163,25186
1217.35,1.320524,534208,25538
1220.85,1.317566,540472,26014
1225.51,1.322337,549929,26180
1229.01,1.317633,556888,26800
1232.5,1.323136,562180,26714
1235.98,1.317817,567975,27322
1239.46,1.320385,574815,27488
1242.94,1.317357,582782,28064
1246.41,1.321642,591476,28203
1251.03,1.326326,604016,28492
1254.5,1.318860,612289,29383
1257.96,1.320575,619125,29594
1261.41,1.322694,624551,29708
1264.86,1.327643,629900,29623
1268.31,1.326161,634345,29934
1271.75,1.322638,638574,30379
1276.33,1.319886,642499,30760
1279.76,1.327195,645905,30407
1283.19,1.326414,648307,30575
1286.61,1.328499,650446,30529
1290.03,1.325376,652132,30829
1293.44,1.324617,653907,30967
1296.85,1.322474,655963,31218
1301.39,1.331351,657349,30651
1304.8,1.328285,657558,30878
1308.19,1.324383,658515,31202
1311.58,1.324518,658804,31206
1314.97,1.324668,659011,31205
1318.36,1.325729,658272,31094
1321.73,1.332775,658022,30582
1326.23,1.335424,657870,30389
1329.6,1.324756,656482,31079
1332.97,1.332391,654926,30465
1336.33,1.330926,653727,30512
1339.69,1.322629,652497,31042
1343.04,1.331699,649913,30280
1346.39,1.325505,647671,30609
1349.73,1.329809,645338,30198
1354.18,1.325720,641175,30287
1357.52,1.322904,638376,30351
1360.85,1.333900,635805,29473
1364.17,1.324797,633413,29984
1367.49,1.328697,631026,29604
1370.81,1.327540,628050,29543
1374.12,1.326656,625034,29461
1378.54,1.325359,620272,29324
1381.84,1.324886,616892,29196
1385.14,1.323435,613613,29138
1388.43,1.323822,611526,29013
1391.72,1.328738,610663,28646
1395.01,1.327990,610634,28694
1398.29,1.325701,611700,28896
1402.66,1.327126,614051,28912
1405.93,1.323792,616268,29240
1409.2,1.333174,617795,28686
1412.46,1.327991,618872,29081
1415.72,1.326761,619795,29207
1418.98,1.330940,620495,28960
1422.23,1.331699,621087,28937
1426.56,1.329386,621375,29105
1429.8,1.335005,621616,28742
1433.04,1.325799,622129,29382
1436.27,1.327200,621526,29259
1439.5,1.330608,621113,29011
1442.72,1.323097,620921,29508
1445.94,1.332299,620270,28859
1450.23,1.329344,618860,28990
1453.44,1.334045,617697,28624
1456.64,1.332339,616264,28670
1459.85,1.329173,614413,28793
1463.04,1.336535,612307,28212
1466.24,1.329032,610032,28597
1469.43,1.328636,607345,28497
1473.67,1.330421,603789,28214
1476.85,1.333848,601175,27871
1480.02,1.329600,597737,27984
1483.19,1.331845,594479,27688
1486.36,1.333437,591232,27436
1489.52,1.335963,587853,27121
1492.68,1.334281,583875,27042
1496.89,1.331770,578062,26928
1500.03,1.341461,574159,26156
1503.18,1.331423,570285,26587
1506.32,1.330079,565444,26443
1509.45,1.333691,560571,25998
1512.58,1.331149,555821,25929
1515.71,1.330617,550344,25705
1519.87,1.333823,543983,25221
1522.99,1.336369,538764,24833
1526.1,1.335544,533692,24646
1529.21,1.327192,527902,24852
1532.32,1.330275,521886,24395
1535.42,1.336179,515888,23789
1538.51,1.334003,509987,23635
1541.6,1.334759,503936,23314
1545.72,1.337527,494694,22741
1548.8,1.333592,488378,22655
1551.88,1.321924,481832,22960
1554.95,1.341587,474989,21632
1558.02,1.334278,467818,21667
1561.08,1.331048,460730,21498
1564.15,1.328065,454170,21338
1568.22,1.326542,444181,20942
1571.27,1.326962,436947,20581
1574.32,1.334209,429598,19900
1577.36,1.330137,422039,19734
1580.4,1.329928,414375,19385
1583.43,1.330860,406354,18969
1586.46,1.330328,398475,18624
1590.49,1.320370,388982,18602
1593.51,1.325996,380708,17972
1596.53,1.328427,372727,17497
1599.54,1.324896,365060,17277
1602.55,1.320993,357543,17074
1605.55,1.331067,349495,16307
1608.55,1.328396,341154,16016
1612.54,1.324875,330877,15660
1615.53,1.312842,322904,15712
1618.51,1.309036,315116,15468
1621.49,1.319626,307217,14717
1624.47,1.315751,299481,14475
1627.44,1.323129,292112,13881
1630.41,1.322427,284245,13529
1634.36,1.320936,274079,13090
1637.32,1.315751,266916,12901
1640.27,1.306538,259612,12817
1643.22,1.315059,251804,12190
1646.16,1.311223,244348,11934
1649.1,1.309933,236703,11595
1652.04,1.292121,228171,11645
1655.95,1.304528,215408,10684
1658.88,1.298615,204937,10304
1661.8,1.270834,193395,10366
1664.72,1.278862,179728,9457
1667.63,1.242294,163642,9367
1670.54,1.247355,146312,8278
1673.44,1.205756,128451,7998
1677.31,1.194474,105080,6715
1680.21,1.176536,88906,5921
1683.1,1.165898,75033,5121
1685.99,1.128693,63520,4723
1688.87,1.130423,53714,3978
1691.75,1.224741,45653,2721
1694.62,1.185027,39137,2556
1697.49,1.185200,33776,2205
1701.31,1.218649,28175,1703

File: Column 1_078788_20241121_172212.csv
Method:,Column 1,,
Host Date-Time:,21/11/24 @ 17:22:12,,
Header Version:,1,,
System Temp (C):,36.34,,
Detector Temp (C):,35.21,,
Humidity (%):,0.73,,
Lamp PD:,3797,,
Shift Vector Coefficients:,-10.5391,0.0761263,-0.000134223,,
Pixel to Wavelength Coefficients:,1775.68,-0.916766,-0.000235065,,
Serial Number:,5510004,,
Scan Config Name:,Column 1,,
Scan Config Type:,Slew,,
Section 1,,
Start wavelength (nm):,900,,
End wavelength (nm):,1700,,
Pattern Pixel Width (nm):,   7.03,,,,
Exposure (ms):,  0.635,,,,
Digital Resolution:,228,,
Num Repeats:,6,,
PGA Gain:,64,,
Total Measurement Time in sec:,  2.726,,
Wavelength (nm),Absorbance (AU),Reference Signal (unitless),Sample Signal (unitless)
901.51,1.308235,108485,5335
905.376,1.334842,121306,5611
909.237,1.335087,131909,6098
913.095,1.341663,143299,6525
916.948,1.316066,156982,7582
922.079,1.332706,179937,8364
925.923,1.339943,200504,9166
929.762,1.315064,222660,10779
933.597,1.319739,244426,11706
937.427,1.310598,263972,12911
941.254,1.321870,281845,13432
945.076,1.320742,297271,14204
950.165,1.306688,315605,15576
953.978,1.307525,328029,16158
957.786,1.314806,340470,16492
961.59,1.301618,352317,17592
965.389,1.309651,363056,17796
969.185,1.310397,373162,18260
972.976,1.300001,382632,19177
976.763,1.305182,391202,19374
981.806,1.306545,400190,19757
985.583,1.319165,406088,19474
989.355,1.313731,410162,19917
993.124,1.310610,412868,20193
996.888,1.308968,414263,20338
1000.65,1.306834,415476,20498
1004.4,1.305019,415479,20584
1009.41,1.308491,414358,20365
1013.15,1.312306,412923,20117
1016.89,1.307629,411526,20266
1020.63,1.310981,409066,19990
1024.36,1.310656,406777,19893
1028.09,1.306462,404427,19970
1031.82,1.304579,401911,19932
1036.78,1.306327,398410,19679
1040.49,1.305995,396204,19585
1044.2,1.302526,394236,19644
1047.91,1.312549,392042,19089
1051.61,1.305941,389823,19272
1055.31,1.314751,388234,18808
1059,1.315474,387599,18746
1063.92,1.311796,386688,18861
1067.61,1.313102,386598,18800
1071.29,1.305557,387377,19168
1074.96,1.303289,388536,19326
1078.63,1.320923,389855,18620
1082.3,1.311382,391215,19100
1085.96,1.318329,393215,18893
1090.84,1.316503,396270,19120
1094.49,1.311011,398760,19485
1098.14,1.305632,400987,19838
1101.79,1.314650,403477,19551
1105.43,1.320938,406116,19396
1109.06,1.319128,407701,19553
1112.7,1.318654,409859,19678
1117.53,1.318687,412494,19803
1121.15,1.316012,414909,20042
1124.77,1.314626,416559,20186
1128.38,1.317324,418532,20156
1131.99,1.308368,419956,20646
1135.6,1.312234,421946,20560
1139.2,1.317763,423881,20393
1143.99,1.309981,426786,20904
1147.58,1.317549,428617,20631
1151.17,1.310447,431169,21096
1154.75,1.321896,433579,20662
1158.33,1.314973,436264,21124
1161.91,1.313869,439132,21317
1165.48,1.317914,442389,21276
1169.04,1.313775,446101,21660
1173.79,1.319512,451929,21655
1177.34,1.313204,456026,22171
1180.9,1.312618,461306,22458
1184.44,1.318905,467657,22440
1187.99,1.316807,473969,22853
1191.52,1.321105,479856,22909
1195.06,1.311302,487372,23799
1199.76,1.318171,497347,23905
1203.29,1.321042,504311,24080
1206.81,1.320164,511507,24473
1210.33,1.312713,519078,25265
1213.84,1.322444,527163,25090
1217.35,1.318606,534208,25651
1220.85,1.326881,540472,25462
1225.51,1.327510,549929,25870
1229.01,1.326903,556888,26234
1232.5,1.321449,562180,26818
1235.98,1.317849,567975,27320
1239.46,1.321445,574815,27421
1242.94,1.315827,582782,28163
1246.41,1.320488,591476,28278
1251.03,1.325990,604016,28514
1254.5,1.319911,612289,29312
1257.96,1.324555,619125,29324
1261.41,1.323763,624551,29635
1264.86,1.325858,629900,29745
1268.31,1.322175,634345,30210
1271.75,1.325017,638574,30213
1276.33,1.325928,642499,30335
1279.76,1.328826,645905,30293
1283.19,1.329379,648307,30367
1286.61,1.327093,650446,30628
1290.03,1.329154,652132,30562
1293.44,1.323664,653907,31035
1296.85,1.321960,655963,31255
1301.39,1.324882,657349,31111
1304.8,1.328172,657558,30886
1308.19,1.329339,658515,30848
1311.58,1.323962,658804,31246
1314.97,1.327293,659011,31017
1318.36,1.327843,658272,30943
1321.73,1.331697,658022,30658
1326.23,1.330013,657870,30770
1329.6,1.329477,656482,30743
1332.97,1.327726,654926,30794
1336.33,1.328428,653727,30688
1339.69,1.330136,652497,30510
1343.04,1.325052,649913,30747
1346.39,1.326002,647671,30574
1349.73,1.327171,645338,30382
1354.18,1.326567,641175,30228
1357.52,1.321989,638376,30415
1360.85,1.328700,635805,29828
1364.17,1.325885,633413,29909
1367.49,1.324536,631026,29889
1370.81,1.325018,628050,29715
1374.12,1.322694,625034,29731
1378.54,1.325640,620272,29305
1381.84,1.326973,616892,29056
1385.14,1.328653,613613,28790
1388.43,1.323045,611526,29065
1391.72,1.329831,610663,28574
1395.01,1.327944,610634,28697
1398.29,1.326814,611700,28822
1402.66,1.326166,614051,28976
1405.93,1.332569,616268,28655
1409.2,1.326802,617795,29110
1412.46,1.328470,618872,29049
1415.72,1.329850,619795,29000
1418.98,1.329517,620495,29055
1422.23,1.326967,621087,29254
1426.56,1.331046,621375,28994
1429.8,1.334613,621616,28768
1433.04,1.329749,622129,29116
1436.27,1.331376,621526,28979
1439.5,1.326525,621113,29285
1442.72,1.326495,620921,29278
1445.94,1.331473,620270,28914
1450.23,1.336458,618860,28519
1453.44,1.329427,617697,28930
1456.64,1.333568,616264,28589
1459.85,1.331275,614413,28654
1463.04,1.327939,612307,28776
1466.24,1.331560,610032,28431
1469.43,1.336588,607345,27980
1473.67,1.335063,603789,27914
1476.85,1.331579,601175,28017
1480.02,1.332528,597737,27796
1483.19,1.338244,594479,27283
1486.36,1.338789,591232,27100
1489.52,1.329778,587853,27510
1492.68,1.331097,583875,27241
1496.89,1.336065,578062,26663
1500.03,1.336771,574159,26440
1503.18,1.330965,570285,26615
1506.32,1.332252,565444,26311
1509.45,1.337887,560571,25748
1512.58,1.334647,555821,25721
1515.71,1.332140,550344,25615
1519.87,1.331522,543983,25355
1522.99,1.332331,538764,25065
1526.1,1.325942,533692,25197
1529.21,1.333245,527902,24508
1532.32,1.329937,521886,24414
1535.42,1.337569,515888,23713
1538.51,1.328998,509987,23909
1541.6,1.331992,503936,23463
1545.72,1.333819,494694,22936
1548.8,1.331603,488378,22759
1551.88,1.333812,481832,22340
1554.95,1.328749,474989,22281
1558.02,1.330725,467818,21845
1561.08,1.329798,460730,21560
1564.15,1.338092,454170,20851
1568.22,1.332934,444181,20636
1571.27,1.319950,436947,20916
1574.32,1.324797,429598,20336
1577.36,1.335875,422039,19475
1580.4,1.323965,414375,19653
1583.43,1.333593,406354,18850
1586.46,1.332666,398475,18524
1590.49,1.323087,388982,18486
1593.51,1.323682,380708,18068
1596.53,1.332091,372727,17350
1599.54,1.335713,365060,16852
1602.55,1.322675,357543,17008
1605.55,1.315914,349495,16886
1608.55,1.315624,341154,16494
1612.54,1.325458,330877,15639
1615.53,1.330989,322904,15069
1618.51,1.322582,315116,14993
1621.49,1.328209,307217,14429
1624.47,1.319336,299481,14356
1627.44,1.319576,292112,13995
1630.41,1.312902,284245,13829
1634.36,1.323999,274079,12998
1637.32,1.319131,266916,12801
1640.27,1.306437,259612,12820
1643.22,1.325625,251804,11897
1646.16,1.305116,244348,12103
1649.1,1.313166,236703,11509
1652.04,1.301851,228171,11387
1655.95,1.298032,215408,10845
1658.88,1.290266,204937,10504
1661.8,1.291381,193395,9887
1664.72,1.285340,179728,9317
1667.63,1.257822,163642,9038
1670.54,1.243802,146312,8346
1673.44,1.216142,128451,7809
1677.31,1.155765,105080,7341
1680.21,1.154582,88906,6228
1683.1,1.177587,75033,4985
1685.99,1.152506,63520,4471
1688.87,1.195807,53714,3422
1691.75,1.162401,45653,3141
1694.62,1.125275,39137,2933
1697.49,1.187966,33776,2191
1701.31,1.172026,28175,1896