Folder: textile_sorting_NIRSCAN_/ML/samples/unknown (part 125)

File: Column 1_078927_20241121_172854.csv
Method:,Column 1,,
Host Date-Time:,21/11/24 @ 17:28:54,,
Header Version:,1,,
System Temp (C):,37.24,,
Detector Temp (C):,36.38,,
Humidity (%):,0.58,,
Lamp PD:,3796,,
Shift Vector Coefficients:,-10.5391,0.0761263,-0.000134223,,
Pixel to Wavelength Coefficients:,1775.68,-0.916766,-0.000235065,,
Serial Number:,5510004,,
Scan Config Name:,Column 1,,
Scan Config Type:,Slew,,
Section 1,,
Start wavelength (nm):,900,,
End wavelength (nm):,1700,,
Pattern Pixel Width (nm):,   7.03,,,,
Exposure (ms):,  0.635,,,,
Digital Resolution:,228,,
Num Repeats:,6,,
PGA Gain:,64,,
Total Measurement Time in sec:,  2.703,,
Wavelength (nm),Absorbance (AU),Reference Signal (unitless),Sample Signal (unitless)
901.51,1.325506,108485,5127
905.376,1.320305,121306,5802
909.237,1.337873,131909,6059
913.095,1.315322,143299,6933
916.948,1.327441,156982,7386
922.079,1.324426,179937,8525
925.923,1.326737,200504,9449
929.762,1.325296,222660,10528
933.597,1.329873,244426,11436
937.427,1.311541,263972,12883
941.254,1.313226,281845,13702
945.076,1.306456,297271,14679
950.165,1.313772,315605,15324
953.978,1.317173,328029,15803
957.786,1.301477,340470,17006
961.59,1.309566,352317,17273
965.389,1.304460,363056,18010
969.185,1.307080,373162,18400
972.976,1.309780,382632,18750
976.763,1.317574,391202,18829
981.806,1.305952,400190,19784
985.583,1.303570,406088,20186
989.355,1.311730,410162,20009
993.124,1.308080,412868,20311
996.888,1.307178,414263,20422
1000.65,1.300545,415476,20797
1004.4,1.307835,415479,20451
1009.41,1.309538,414358,20316
1013.15,1.302023,412923,20599
1016.89,1.310964,411526,20111
1020.63,1.304833,409066,20275
1024.36,1.300643,406777,20357
1028.09,1.313632,404427,19643
1031.82,1.289589,401911,20632
1036.78,1.313178,398410,19371
1040.49,1.306639,396204,19556
1044.2,1.309952,394236,19311
1047.91,1.305397,392042,19406
1051.61,1.304074,389823,19355
1055.31,1.303716,388234,19292
1059,1.309629,387599,19000
1063.92,1.297215,386688,19505
1067.61,1.304615,386598,19171
1071.29,1.313076,387377,18839
1074.96,1.307104,388536,19157
1078.63,1.310894,389855,19055
1082.3,1.315747,391215,18909
1085.96,1.309861,393215,19265
1090.84,1.312704,396270,19288
1094.49,1.312776,398760,19406
1098.14,1.321370,400987,19132
1101.79,1.306050,403477,19942
1105.43,1.313171,406116,19746
1109.06,1.303338,407701,20277
1112.7,1.309330,409859,20105
1117.53,1.306171,412494,20382
1121.15,1.314195,414909,20126
1124.77,1.318495,416559,20007
1128.38,1.317971,418532,20126
1131.99,1.312744,419956,20439
1135.6,1.312953,421946,20526
1139.2,1.318381,423881,20364
1143.99,1.309524,426786,20926
1147.58,1.313464,428617,20826
1151.17,1.315042,431169,20874
1154.75,1.313610,433579,21060
1158.33,1.315776,436264,21085
1161.91,1.319260,439132,21054
1165.48,1.314965,442389,21421
1169.04,1.311675,446101,21765
1173.79,1.309011,451929,22185
1177.34,1.319240,456026,21865
1180.9,1.311016,461306,22541
1184.44,1.314553,467657,22666
1187.99,1.315952,473969,22898
1191.52,1.319874,479856,22974
1195.06,1.312691,487372,23723
1199.76,1.316032,497347,24023
1203.29,1.311622,504311,24608
1206.81,1.314873,511507,24773
1210.33,1.318824,519078,24912
1213.84,1.318927,527163,25294
1217.35,1.316967,534208,25748
1220.85,1.321120,540472,25802
1225.51,1.322885,549929,26147
1229.01,1.317050,556888,26836
1232.5,1.318206,562180,27019
1235.98,1.327395,567975,26726
1239.46,1.319470,574815,27546
1242.94,1.318674,582782,27979
1246.41,1.313435,591476,28741
1251.03,1.317200,604016,29097
1254.5,1.317149,612289,29499
1257.96,1.321868,619125,29506
1261.41,1.334295,624551,28925
1264.86,1.322266,629900,29992
1268.31,1.323211,634345,30138
1271.75,1.323625,638574,30310
1276.33,1.326086,642499,30324
1279.76,1.326581,645905,30450
1283.19,1.329465,648307,30361
1286.61,1.327603,650446,30592
1290.03,1.327863,652132,30653
1293.44,1.320569,653907,31257
1296.85,1.330123,655963,30673
1301.39,1.322155,657349,31307
1304.8,1.331022,657558,30684
1308.19,1.323841,658515,31241
1311.58,1.325466,658804,31138
1314.97,1.325532,659011,31143
1318.36,1.321006,658272,31434
1321.73,1.325340,658022,31110
1326.23,1.327550,657870,30945
1329.6,1.335752,656482,30302
1332.97,1.326431,654926,30886
1336.33,1.323111,653727,31066
1339.69,1.324395,652497,30916
1343.04,1.327759,649913,30556
1346.39,1.321747,647671,30875
1349.73,1.325359,645338,30509
1354.18,1.328223,641175,30113
1357.52,1.324078,638376,30269
1360.85,1.324887,635805,30091
1364.17,1.328069,633413,29759
1367.49,1.325263,631026,29839
1370.81,1.324668,628050,29739
1374.12,1.327246,625034,29421
1378.54,1.325803,620272,29294
1381.84,1.328666,616892,28943
1385.14,1.327975,613613,28835
1388.43,1.322701,611526,29088
1391.72,1.324663,610663,28916
1395.01,1.324237,610634,28943
1398.29,1.320487,611700,29245
1402.66,1.320700,614051,29343
1405.93,1.328286,616268,28939
1409.2,1.337281,617795,28416
1412.46,1.329802,618872,28960
1415.72,1.331741,619795,28874
1418.98,1.328338,620495,29134
1422.23,1.325204,621087,29373
1426.56,1.329118,621375,29123
1429.8,1.330855,621616,29018
1433.04,1.330645,622129,29056
1436.27,1.328463,621526,29174
1439.5,1.325503,621113,29354
1442.72,1.333855,620921,28786
1445.94,1.328345,620270,29123
1450.23,1.332381,618860,28788
1453.44,1.329667,617697,28914
1456.64,1.330239,616264,28809
1459.85,1.333539,614413,28505
1463.04,1.334815,612307,28324
1466.24,1.332953,610032,28340
1469.43,1.336588,607345,27980
1473.67,1.333882,603789,27990
1476.85,1.325897,601175,28386
1480.02,1.334799,597737,27651
1483.19,1.332756,594479,27630
1486.36,1.335166,591232,27327
1489.52,1.326930,587853,27691
1492.68,1.337861,583875,26820
1496.89,1.335512,578062,26697
1500.03,1.336163,574159,26477
1503.18,1.333010,570285,26490
1506.32,1.335799,565444,26097
1509.45,1.333273,560571,26023
1512.58,1.337476,555821,25554
1515.71,1.330870,550344,25690
1519.87,1.325838,543983,25689
1522.99,1.331846,538764,25093
1526.1,1.337009,533692,24563
1529.21,1.329610,527902,24714
1532.32,1.331648,521886,24318
1535.42,1.337404,515888,23722
1538.51,1.329543,509987,23879
1541.6,1.336345,503936,23229
1545.72,1.330913,494694,23090
1548.8,1.334225,488378,22622
1551.88,1.326086,481832,22741
1554.95,1.330663,474989,22183
1558.02,1.333918,467818,21685
1561.08,1.329415,460730,21579
1564.15,1.337967,454170,20857
1568.22,1.331548,444181,20702
1571.27,1.325004,436947,20674
1574.32,1.340098,429598,19632
1577.36,1.327330,422039,19862
1580.4,1.336428,414375,19097
1583.43,1.329192,406354,19042
1586.46,1.328861,398475,18687
1590.49,1.323957,388982,18449
1593.51,1.322218,380708,18129
1596.53,1.328700,372727,17486
1599.54,1.322115,365060,17388
1602.55,1.327167,357543,16833
1605.55,1.310419,349495,17101
1608.55,1.311041,341154,16669
1612.54,1.308199,330877,16273
1615.53,1.311931,322904,15745
1618.51,1.309064,315116,15467
1621.49,1.306889,307217,15155
1624.47,1.315331,299481,14489
1627.44,1.318461,292112,14031
1630.41,1.312212,284245,13851
1634.36,1.312427,274079,13349
1637.32,1.297233,266916,13463
1640.27,1.313541,259612,12612
1643.22,1.308869,251804,12365
1646.16,1.306553,244348,12063
1649.1,1.303206,236703,11776
1652.04,1.311882,228171,11127
1655.95,1.298553,215408,10832
1658.88,1.290514,204937,10498
1661.8,1.273819,193395,10295
1664.72,1.268830,179728,9678
1667.63,1.253805,163642,9122
1670.54,1.227361,146312,8668
1673.44,1.220221,128451,7736
1677.31,1.167700,105080,7142
1680.21,1.155490,88906,6215
1683.1,1.128540,75033,5581
1685.99,1.124028,63520,4774
1688.87,1.140026,53714,3891
1691.75,1.055567,45653,4017
1694.62,1.085001,39137,3218
1697.49,1.085972,33776,2771
1701.31,1.078981,28175,2349

File: Column 1_078928_20241121_172857.csv
Method:,Column 1,,
Host Date-Time:,21/11/24 @ 17:28:57,,
Header Version:,1,,
System Temp (C):,37.28,,
Detector Temp (C):,36.43,,
Humidity (%):,0.58,,
Lamp PD:,3796,,
Shift Vector Coefficients:,-10.5391,0.0761263,-0.000134223,,
Pixel to Wavelength Coefficients:,1775.68,-0.916766,-0.000235065,,
Serial Number:,5510004,,
Scan Config Name:,Column 1,,
Scan Config Type:,Slew,,
Section 1,,
Start wavelength (nm):,900,,
End wavelength (nm):,1700,,
Pattern Pixel Width (nm):,   7.03,,,,
Exposure (ms):,  0.635,,,,
Digital Resolution:,228,,
Num Repeats:,6,,
PGA Gain:,64,,
Total Measurement Time in sec:,  2.727,,
Wavelength (nm),Absorbance (AU),Reference Signal (unitless),Sample Signal (unitless)
901.51,1.299053,108485,5449
905.376,1.338886,121306,5559
909.237,1.337873,131909,6059
913.095,1.325783,143299,6768
916.948,1.304535,156982,7786
922.079,1.309849,179937,8816
925.923,1.336216,200504,9245
929.762,1.330025,222660,10414
933.597,1.324026,244426,11591
937.427,1.330771,263972,12325
941.254,1.336468,281845,12988
945.076,1.316028,297271,14359
950.165,1.316216,315605,15238
953.978,1.312771,328029,15964
957.786,1.316626,340470,16423
961.59,1.307734,352317,17346
965.389,1.317333,363056,17484
969.185,1.312232,373162,18183
972.976,1.304028,382632,19000
976.763,1.308670,391202,19219
981.806,1.301540,400190,19986
985.583,1.313779,406088,19717
989.355,1.304071,410162,20365
993.124,1.309729,412868,20234
996.888,1.302756,414263,20631
1000.65,1.301360,415476,20758
1004.4,1.308068,415479,20440
1009.41,1.310908,414358,20252
1013.15,1.311249,412923,20166
1016.89,1.303938,411526,20439
1020.63,1.315391,409066,19788
1024.36,1.297497,406777,20505
1028.09,1.311097,404427,19758
1031.82,1.312051,401911,19592
1036.78,1.316012,398410,19245
1040.49,1.306705,396204,19553
1044.2,1.300849,394236,19720
1047.91,1.316411,392042,18920
1051.61,1.303760,389823,19369
1055.31,1.309883,388234,19020
1059,1.311370,387599,18924
1063.92,1.314290,386688,18753
1067.61,1.325093,386598,18288
1071.29,1.313722,387377,18811
1074.96,1.302840,388536,19346
1078.63,1.308893,389855,19143
1082.3,1.321294,391215,18669
1085.96,1.311804,393215,19179
1090.84,1.312929,396270,19278
1094.49,1.317546,398760,19194
1098.14,1.306290,400987,19808
1101.79,1.317145,403477,19439
1105.43,1.307273,406116,20016
1109.06,1.319040,407701,19557
1112.7,1.310174,409859,20066
1117.53,1.309615,412494,20221
1121.15,1.322012,414909,19767
1124.77,1.310195,416559,20393
1128.38,1.315840,418532,20225
1131.99,1.314277,419956,20367
1135.6,1.314564,421946,20450
1139.2,1.317805,423881,20391
1143.99,1.317927,426786,20525
1147.58,1.319469,428617,20540
1151.17,1.318467,431169,20710
1154.75,1.319925,433579,20756
1158.33,1.306342,436264,21548
1161.91,1.313564,439132,21332
1165.48,1.321954,442389,21079
1169.04,1.311874,446101,21755
1173.79,1.311209,451929,22073
1177.34,1.313871,456026,22137
1180.9,1.320088,461306,22075
1184.44,1.315896,467657,22596
1187.99,1.315194,473969,22938
1191.52,1.321219,479856,22903
1195.06,1.309735,487372,23885
1199.76,1.322406,497347,23673
1203.29,1.315861,504311,24369
1206.81,1.323406,511507,24291
1210.33,1.324298,519078,24600
1213.84,1.322254,527163,25101
1217.35,1.319165,534208,25618
1220.85,1.321423,540472,25784
1225.51,1.315392,549929,26602
1229.01,1.324855,556888,26358
1232.5,1.321400,562180,26821
1235.98,1.327135,567975,26742
1239.46,1.317864,574815,27648
1242.94,1.320821,582782,27841
1246.41,1.321611,591476,28205
1251.03,1.322516,604016,28743
1254.5,1.319556,612289,29336
1257.96,1.325697,619125,29247
1261.41,1.319389,624551,29935
1264.86,1.325449,629900,29773
1268.31,1.323918,634345,30089
1271.75,1.316773,638574,30792
1276.33,1.325857,642499,30340
1279.76,1.327953,645905,30354
1283.19,1.323089,648307,30810
1286.61,1.323197,650446,30904
1290.03,1.324743,652132,30874
1293.44,1.329922,653907,30591
1296.85,1.322363,655963,31226
1301.39,1.325553,657349,31063
1304.8,1.323306,657558,31234
1308.19,1.328692,658515,30894
1311.58,1.333191,658804,30589
1314.97,1.324223,659011,31237
1318.36,1.330603,658272,30747
1321.73,1.333059,658022,30562
1326.23,1.325296,657870,31106
1329.6,1.327940,656482,30852
1332.97,1.334105,654926,30345
1336.33,1.330684,653727,30529
1339.69,1.329184,652497,30577
1343.04,1.331499,649913,30294
1346.39,1.324768,647671,30661
1349.73,1.327285,645338,30374
1354.18,1.322093,641175,30541
1357.52,1.325775,638376,30151
1360.85,1.325104,635805,30076
1364.17,1.319729,633413,30336
1367.49,1.328770,631026,29599
1370.81,1.317901,628050,30206
1374.12,1.326892,625034,29445
1378.54,1.321364,620272,29595
1381.84,1.321921,616892,29396
1385.14,1.326111,613613,28959
1388.43,1.327098,611526,28795
1391.72,1.324093,610663,28954
1395.01,1.322112,610634,29085
1398.29,1.323093,611700,29070
1402.66,1.329808,614051,28734
1405.93,1.329308,616268,28871
1409.2,1.326444,617795,29134
1412.46,1.334886,618872,28623
1415.72,1.334109,619795,28717
1418.98,1.328681,620495,29111
1422.23,1.329782,621087,29065
1426.56,1.330671,621375,29019
1429.8,1.331799,621616,28955
1433.04,1.335908,622129,28706
1436.27,1.330448,621526,29041
1439.5,1.327045,621113,29250
1442.72,1.332830,620921,28854
1445.94,1.326856,620270,29223
1450.23,1.330169,618860,28935
1453.44,1.330103,617697,28885
1456.64,1.326546,616264,29055
1459.85,1.332231,614413,28591
1463.04,1.331957,612307,28511
1466.24,1.334703,610032,28226
1469.43,1.336091,607345,28012
1473.67,1.332674,603789,28068
1476.85,1.333973,601175,27863
1480.02,1.333012,597737,27765
1483.19,1.332190,594479,27666
1486.36,1.331889,591232,27534
1489.52,1.332438,587853,27342
1492.68,1.332342,583875,27163
1496.89,1.332594,578062,26877
1500.03,1.336590,574159,26451
1503.18,1.338670,570285,26147
1506.32,1.328341,565444,26549
1509.45,1.331574,560571,26125
1512.58,1.334546,555821,25727
1515.71,1.333328,550344,25545
1519.87,1.335358,543983,25132
1522.99,1.329705,538764,25217
1526.1,1.333645,533692,24754
1529.21,1.327629,527902,24827
1532.32,1.337292,521886,24004
1535.42,1.332688,515888,23981
1538.51,1.320989,509987,24354
1541.6,1.331344,503936,23498
1545.72,1.330819,494694,23095
1548.8,1.331908,488378,22743
1551.88,1.329345,481832,22571
1554.95,1.332822,474989,22073
1558.02,1.326984,467818,22034
1561.08,1.332911,460730,21406
1564.15,1.330248,454170,21231
1568.22,1.333166,444181,20625
1571.27,1.322553,436947,20791
1574.32,1.332336,429598,19986
1577.36,1.334272,422039,19547
1580.4,1.324562,414375,19626
1583.43,1.329283,406354,19038
1586.46,1.323870,398475,18903
1590.49,1.329572,388982,18212
1593.51,1.330978,380708,17767
1596.53,1.326669,372727,17568
1599.54,1.328480,365060,17135
1602.55,1.328925,357543,16765
1605.55,1.314861,349495,16927
1608.55,1.318133,341154,16399
1612.54,1.321945,330877,15766
1615.53,1.317567,322904,15542
1618.51,1.312957,315116,15329
1621.49,1.319213,307217,14731
1624.47,1.309525,299481,14684
1627.44,1.314210,292112,14169
1630.41,1.319707,284245,13614
1634.36,1.321700,274079,13067
1637.32,1.321546,266916,12730
1640.27,1.307217,259612,12797
1643.22,1.317130,251804,12132
1646.16,1.295078,244348,12386
1649.1,1.303501,236703,11768
1652.04,1.297714,228171,11496
1655.95,1.309845,215408,10554
1658.88,1.293294,204937,10431
1661.8,1.283373,193395,10071
1664.72,1.284920,179728,9326
1667.63,1.242526,163642,9362
1670.54,1.240691,146312,8406
1673.44,1.198700,128451,8129
1677.31,1.195640,105080,6697
1680.21,1.156259,88906,6204
1683.1,1.112199,75033,5795
1685.99,1.125030,63520,4763
1688.87,1.066104,53714,4613
1691.75,1.156633,45653,3183
1694.62,1.120270,39137,2967
1697.49,1.158465,33776,2345
1701.31,1.187888,28175,1828

File: Column 1_078930_20241121_172903.csv
Method:,Column 1,,
Host Date-Time:,21/11/24 @ 17:29:3,,
Header Version:,1,,
System Temp (C):,37.29,,
Detector Temp (C):,36.46,,
Humidity (%):,0.58,,
Lamp PD:,3796,,
Shift Vector Coefficients:,-10.5391,0.0761263,-0.000134223,,
Pixel to Wavelength Coefficients:,1775.68,-0.916766,-0.000235065,,
Serial Number:,5510004,,
Scan Config Name:,Column 1,,
Scan Config Type:,Slew,,
Section 1,,
Start wavelength (nm):,900,,
End wavelength (nm):,1700,,
Pattern Pixel Width (nm):,   7.03,,,,
Exposure (ms):,  0.635,,,,
Digital Resolution:,228,,
Num Repeats:,6,,
PGA Gain:,64,,
Total Measurement Time in sec:,  2.708,,
Wavelength (nm),Absorbance (AU),Reference Signal (unitless),Sample Signal (unitless)
901.51,1.339888,108485,4960
905.376,1.312957,121306,5901
909.237,1.319008,131909,6328
913.095,1.325719,143299,6769
916.948,1.334196,156982,7272
922.079,1.308914,179937,8835
925.923,1.327934,200504,9423
929.762,1.345044,222660,10060
933.597,1.342238,244426,11115
937.427,1.307180,263972,13013
941.254,1.317015,281845,13583
945.076,1.326126,297271,14029
950.165,1.306381,315605,15587
953.978,1.302341,328029,16352
957.786,1.307701,340470,16764
961.59,1.311809,352317,17184
965.389,1.320799,363056,17345
969.185,1.310611,373162,18251
972.976,1.307723,382632,18839
976.763,1.297208,391202,19733
981.806,1.306523,400190,19758
985.583,1.312087,406088,19794
989.355,1.313819,410162,19913
993.124,1.308936,412868,20271
996.888,1.307880,414263,20389
1000.65,1.307598,415476,20462
1004.4,1.315807,415479,20079
1009.41,1.305347,414358,20513
1013.15,1.307091,412923,20360
1016.89,1.309605,411526,20174
1020.63,1.303528,409066,20336
1024.36,1.303833,406777,20208
1028.09,1.313478,404427,19650
1031.82,1.312095,401911,19590
1036.78,1.309161,398410,19551
1040.49,1.314844,396204,19190
1044.2,1.311619,394236,19237
1047.91,1.311663,392042,19128
1051.61,1.310653,389823,19064
1055.31,1.311209,388234,18962
1059,1.308191,387599,19063
1063.92,1.312764,386688,18819
1067.61,1.312802,386598,18813
1071.29,1.304787,387377,19202
1074.96,1.312740,388536,18910
1078.63,1.310325,389855,19080
1082.3,1.314119,391215,18980
1085.96,1.307747,393215,19359
1090.84,1.322772,396270,18846
1094.49,1.310833,398760,19493
1098.14,1.315217,400987,19405
1101.79,1.314983,403477,19536
1105.43,1.314360,406116,19692
1109.06,1.312450,407701,19856
1112.7,1.313432,409859,19916
1117.53,1.320114,412494,19738
1121.15,1.315535,414909,20064
1124.77,1.317519,416559,20052
1128.38,1.315561,418532,20238
1131.99,1.307171,419956,20703
1135.6,1.322212,421946,20093
1139.2,1.318594,423881,20354
1143.99,1.319114,426786,20469
1147.58,1.314947,428617,20755
1151.17,1.322851,431169,20502
1154.75,1.317296,433579,20882
1158.33,1.307372,436264,21497
1161.91,1.315461,439132,21239
1165.48,1.315573,442389,21391
1169.04,1.320361,446101,21334
1173.79,1.317331,451929,21764
1177.34,1.317733,456026,21941
1180.9,1.318851,461306,22138
1184.44,1.316685,467657,22555
1187.99,1.318139,473969,22783
1191.52,1.316804,479856,23137
1195.06,1.312252,487372,23747
1199.76,1.316919,497347,23974
1203.29,1.315647,504311,24381
1206.81,1.320910,511507,24431
1210.33,1.313488,519078,25220
1213.84,1.316684,527163,25425
1217.35,1.320660,534208,25530
1220.85,1.319725,540472,25885
1225.51,1.317602,549929,26467
1229.01,1.321344,556888,26572
1232.5,1.322470,562180,26755
1235.98,1.320160,567975,27175
1239.46,1.314547,574815,27860
1242.94,1.321727,582782,27783
1246.41,1.327143,591476,27848
1251.03,1.327577,604016,28410
1254.5,1.326284,612289,28885
1257.96,1.328303,619125,29072
1261.41,1.325113,624551,29543
1264.86,1.326544,629900,29698
1268.31,1.322132,634345,30213
1271.75,1.329017,638574,29936
1276.33,1.329147,642499,30111
1279.76,1.329687,645905,30233
1283.19,1.328308,648307,30442
1286.61,1.328058,650446,30560
1290.03,1.328486,652132,30609
1293.44,1.326373,653907,30842
1296.85,1.331598,655963,30569
1301.39,1.324296,657349,31153
1304.8,1.323001,657558,31256
1308.19,1.327428,658515,30984
1311.58,1.327100,658804,31021
1314.97,1.326146,659011,31099
1318.36,1.329911,658272,30796
1321.73,1.335338,658022,30402
1326.23,1.333470,657870,30526
1329.6,1.332695,656482,30516
1332.97,1.331124,654926,30554
1336.33,1.331310,653727,30485
1339.69,1.326465,652497,30769
1343.04,1.330210,649913,30384
1346.39,1.330888,647671,30232
1349.73,1.329953,645338,30188
1354.18,1.324675,641175,30360
1357.52,1.331035,638376,29788
1360.85,1.329297,635805,29787
1364.17,1.325131,633413,29961
1367.49,1.330240,631026,29499
1370.81,1.325501,628050,29682
1374.12,1.327320,625034,29416
1378.54,1.323069,620272,29479
1381.84,1.335395,616892,28498
1385.14,1.327869,613613,28842
1388.43,1.325006,611526,28934
1391.72,1.326424,610663,28799
1395.01,1.320339,610634,29204
1398.29,1.334476,611700,28318
1402.66,1.325836,614051,28998
1405.93,1.330528,616268,28790
1409.2,1.330623,617795,28855
1412.46,1.322486,618872,29452
1415.72,1.332841,619795,28801
1418.98,1.323963,620495,29429
1422.23,1.332931,621087,28855
1426.56,1.325879,621375,29341
1429.8,1.323803,621616,29493
1433.04,1.329943,622129,29103
1436.27,1.332486,621526,28905
1439.5,1.330039,621113,29049
1442.72,1.328219,620921,29162
1445.94,1.337127,620270,28540
1450.23,1.329899,618860,28953
1453.44,1.333651,617697,28650
1456.64,1.329350,616264,28868
1459.85,1.339121,614413,28141
1463.04,1.333483,612307,28411
1466.24,1.330950,610032,28471
1469.43,1.341583,607345,27660
1473.67,1.342675,603789,27429
1476.85,1.335362,601175,27774
1480.02,1.336262,597737,27558
1483.19,1.335721,594479,27442
1486.36,1.335325,591232,27317
1489.52,1.327197,587853,27674
1492.68,1.329760,583875,27325
1496.89,1.338614,578062,26507
1500.03,1.333596,574159,26634
1503.18,1.341018,570285,26006
1506.32,1.334885,565444,26152
1509.45,1.331790,560571,26112
1512.58,1.333787,555821,25772
1515.71,1.333447,550344,25538
1519.87,1.336726,543983,25053
1522.99,1.332660,538764,25046
1526.1,1.340542,533692,24364
1529.21,1.331759,527902,24592
1532.32,1.335991,521886,24076
1535.42,1.332960,515888,23966
1538.51,1.337917,509987,23423
1541.6,1.332325,503936,23445
1545.72,1.339575,494694,22634
1548.8,1.334590,488378,22603
1551.88,1.341560,481832,21945
1554.95,1.341567,474989,21633
1558.02,1.333377,467818,21712
1561.08,1.325010,460730,21799
1564.15,1.330289,454170,21229
1568.22,1.327144,444181,20913
1571.27,1.335831,436947,20165
1574.32,1.331035,429598,20046
1577.36,1.330270,422039,19728
1580.4,1.338480,414375,19007
1583.43,1.324181,406354,19263
1586.46,1.340879,398475,18177
1590.49,1.327502,388982,18299
1593.51,1.331834,380708,17732
1596.53,1.323638,372727,17691
1599.54,1.331405,365060,17020
1602.55,1.328148,357543,16795
1605.55,1.325747,349495,16508
1608.55,1.325478,341154,16124
1612.54,1.333643,330877,15347
1615.53,1.319022,322904,15490
1618.51,1.312051,315116,15361
1621.49,1.329234,307217,14395
1624.47,1.330738,299481,13984
1627.44,1.318461,292112,14031
1630.41,1.323456,284245,13497
1634.36,1.315169,274079,13265
1637.32,1.323427,266916,12675
1640.27,1.313093,259612,12625
1643.22,1.316236,251804,12157
1646.16,1.307815,244348,12028
1649.1,1.306352,236703,11691
1652.04,1.301813,228171,11388
1655.95,1.299075,215408,10819
1658.88,1.290307,204937,10503
1661.8,1.296684,193395,9767
1664.72,1.255137,179728,9988
1667.63,1.248552,163642,9233
1670.54,1.243178,146312,8358
1673.44,1.215975,128451,7812
1677.31,1.137065,105080,7664
1680.21,1.152079,88906,6264
1683.1,1.135838,75033,5488
1685.99,1.142994,63520,4570
1688.87,1.156752,53714,3744
1691.75,1.206151,45653,2840
1694.62,1.116916,39137,2990
1697.49,1.112800,33776,2605
1701.31,1.128265,28175,2097