Folder: textile_sorting_NIRSCAN_/ML/samples/unknown (part 3)

File: Column 1_078012_20241121_164110.csv
Method:,Column 1,,
Host Date-Time:,21/11/24 @ 16:41:10,,
Header Version:,1,,
System Temp (C):,29.38,,
Detector Temp (C):,24.77,,
Humidity (%):,7.15,,
Lamp PD:,3815,,
Shift Vector Coefficients:,-10.5391,0.0761263,-0.000134223,,
Pixel to Wavelength Coefficients:,1775.68,-0.916766,-0.000235065,,
Serial Number:,5510004,,
Scan Config Name:,Column 1,,
Scan Config Type:,Slew,,
Section 1,,
Start wavelength (nm):,900,,
End wavelength (nm):,1700,,
Pattern Pixel Width (nm):,   7.03,,,,
Exposure (ms):,  0.635,,,,
Digital Resolution:,228,,
Num Repeats:,6,,
PGA Gain:,64,,
Total Measurement Time in sec:,  2.724,,
Wavelength (nm),Absorbance (AU),Reference Signal (unitless),Sample Signal (unitless)
901.51,1.297065,108485,5474
905.376,1.338573,121306,5563
909.237,1.324881,131909,6243
913.095,1.295725,143299,7253
916.948,1.313268,156982,7631
922.079,1.308374,179937,8846
925.923,1.293864,200504,10192
929.762,1.306724,222660,10988
933.597,1.307124,244426,12051
937.427,1.307080,263972,13016
941.254,1.307089,281845,13897
945.076,1.303419,297271,14782
950.165,1.308420,315605,15514
953.978,1.313887,328029,15923
957.786,1.304552,340470,16886
961.59,1.301125,352317,17612
965.389,1.309505,363056,17802
969.185,1.299105,373162,18741
972.976,1.296235,382632,19344
976.763,1.306079,391202,19334
981.806,1.306282,400190,19769
985.583,1.315523,406088,19638
989.355,1.304540,410162,20343
993.124,1.307140,412868,20355
996.888,1.305056,414263,20522
1000.65,1.307662,415476,20459
1004.4,1.308089,415479,20439
1009.41,1.308001,414358,20388
1013.15,1.316296,412923,19933
1016.89,1.309519,411526,20178
1020.63,1.310937,409066,19992
1024.36,1.300323,406777,20372
1028.09,1.307551,404427,19920
1031.82,1.310502,401911,19662
1036.78,1.311857,398410,19430
1040.49,1.316499,396204,19117
1044.2,1.314496,394236,19110
1047.91,1.311345,392042,19142
1051.61,1.300276,389823,19525
1055.31,1.303851,388234,19286
1059,1.311416,387599,18922
1063.92,1.317288,386688,18624
1067.61,1.310040,386598,18933
1071.29,1.309838,387377,18980
1074.96,1.315389,388536,18795
1078.63,1.301872,389855,19455
1082.3,1.312954,391215,19031
1085.96,1.323230,393215,18681
1090.84,1.308826,396270,19461
1094.49,1.320133,398760,19080
1098.14,1.318271,400987,19269
1101.79,1.320104,403477,19307
1105.43,1.320535,406116,19414
1109.06,1.314555,407701,19760
1112.7,1.317199,409859,19744
1117.53,1.320467,412494,19722
1121.15,1.316684,414909,20011
1124.77,1.318755,416559,19995
1128.38,1.310462,418532,20477
1131.99,1.314234,419956,20369
1135.6,1.318082,421946,20285
1139.2,1.318424,423881,20362
1143.99,1.319411,426786,20455
1147.58,1.330692,428617,20016
1151.17,1.320822,431169,20598
1154.75,1.312272,433579,21125
1158.33,1.322397,436264,20766
1161.91,1.322740,439132,20886
1165.48,1.309064,442389,21714
1169.04,1.317844,446101,21458
1173.79,1.316753,451929,21793
1177.34,1.317258,456026,21965
1180.9,1.318792,461306,22141
1184.44,1.319893,467657,22389
1187.99,1.312176,473969,23098
1191.52,1.317950,479856,23076
1195.06,1.315206,487372,23586
1199.76,1.323527,497347,23612
1203.29,1.324919,504311,23866
1206.81,1.325108,511507,24196
1210.33,1.318040,519078,24957
1213.84,1.322791,527163,25070
1217.35,1.323750,534208,25349
1220.85,1.322620,540472,25713
1225.51,1.320615,549929,26284
1229.01,1.324971,556888,26351
1232.5,1.325255,562180,26584
1235.98,1.321440,567975,27095
1239.46,1.326367,574815,27112
1242.94,1.319529,582782,27924
1246.41,1.326598,591476,27883
1251.03,1.321535,604016,28808
1254.5,1.320504,612289,29272
1257.96,1.328602,619125,29052
1261.41,1.328552,624551,29310
1264.86,1.327057,629900,29663
1268.31,1.330125,634345,29662
1271.75,1.329976,638574,29870
1276.33,1.330100,642499,30045
1279.76,1.328654,645905,30305
1283.19,1.328422,648307,30434
1286.61,1.326045,650446,30702
1290.03,1.330677,652132,30455
1293.44,1.328618,653907,30683
1296.85,1.328399,655963,30795
1301.39,1.333041,657349,30532
1304.8,1.328412,657558,30869
1308.19,1.330057,658515,30797
1311.58,1.331858,658804,30683
1314.97,1.328948,659011,30899
1318.36,1.331027,658272,30717
1321.73,1.335067,658022,30421
1326.23,1.328378,657870,30886
1329.6,1.338599,656482,30104
1332.97,1.328729,654926,30723
1336.33,1.335893,653727,30165
1339.69,1.327016,652497,30730
1343.04,1.331886,649913,30267
1346.39,1.326485,647671,30540
1349.73,1.328832,645338,30266
1354.18,1.330609,641175,29948
1357.52,1.330001,638376,29859
1360.85,1.326956,635805,29948
1364.17,1.324855,633413,29980
1367.49,1.332632,631026,29337
1370.81,1.328187,628050,29499
1374.12,1.325376,625034,29548
1378.54,1.325833,620272,29292
1381.84,1.330907,616892,28794
1385.14,1.330603,613613,28661
1388.43,1.326902,611526,28808
1391.72,1.322327,610663,29072
1395.01,1.326193,610634,28813
1398.29,1.336135,611700,28210
1402.66,1.327893,614051,28861
1405.93,1.322517,616268,29326
1409.2,1.329136,617795,28954
1412.46,1.331169,618872,28869
1415.72,1.333656,619795,28747
1418.98,1.329338,620495,29067
1422.23,1.330844,621087,28994
1426.56,1.334338,621375,28775
1429.8,1.333226,621616,28860
1433.04,1.329943,622129,29103
1436.27,1.335048,621526,28735
1439.5,1.336850,621113,28597
1442.72,1.332800,620921,28856
1445.94,1.330992,620270,28946
1450.23,1.335318,618860,28594
1453.44,1.333075,617697,28688
1456.64,1.332657,616264,28649
1459.85,1.335142,614413,28400
1463.04,1.336135,612307,28238
1466.24,1.334211,610032,28258
1469.43,1.342353,607345,27611
1473.67,1.334861,603789,27927
1476.85,1.333226,601175,27911
1480.02,1.337383,597737,27487
1483.19,1.337370,594479,27338
1486.36,1.341199,591232,26950
1489.52,1.333329,587853,27286
1492.68,1.341030,583875,26625
1496.89,1.338450,578062,26517
1500.03,1.332928,574159,26675
1503.18,1.335542,570285,26336
1506.32,1.341562,565444,25753
1509.45,1.340560,560571,25590
1512.58,1.332911,555821,25824
1515.71,1.338390,550344,25249
1519.87,1.339648,543983,24885
1522.99,1.334293,538764,24952
1526.1,1.337416,533692,24540
1529.21,1.333760,527902,24479
1532.32,1.340743,521886,23814
1535.42,1.341469,515888,23501
1538.51,1.335107,509987,23575
1541.6,1.337918,503936,23145
1545.72,1.333403,494694,22958
1548.8,1.335513,488378,22555
1551.88,1.327981,481832,22642
1554.95,1.345925,474989,21417
1558.02,1.334980,467818,21632
1561.08,1.328430,460730,21628
1564.15,1.343457,454170,20595
1568.22,1.329309,444181,20809
1571.27,1.340290,436947,19959
1574.32,1.332989,429598,19956
1577.36,1.338133,422039,19374
1580.4,1.334205,414375,19195
1583.43,1.330906,406354,18967
1586.46,1.331192,398475,18587
1590.49,1.335817,388982,17952
1593.51,1.332177,380708,17718
1596.53,1.328328,372727,17501
1599.54,1.330411,365060,17059
1602.55,1.326703,357543,16851
1605.55,1.327856,349495,16428
1608.55,1.320363,341154,16315
1612.54,1.324376,330877,15678
1615.53,1.326602,322904,15222
1618.51,1.328297,315116,14797
1621.49,1.323539,307217,14585
1624.47,1.327520,299481,14088
1627.44,1.324194,292112,13847
1630.41,1.319611,284245,13617
1634.36,1.323331,274079,13018
1637.32,1.325728,266916,12608
1640.27,1.323608,259612,12323
1643.22,1.329622,251804,11788
1646.16,1.297328,244348,12322
1649.1,1.319552,236703,11341
1652.04,1.324756,228171,10802
1655.95,1.321522,215408,10274
1658.88,1.329440,204937,9598
1661.8,1.318850,193395,9281
1664.72,1.337899,179728,8255
1667.63,1.343725,163642,7416
1670.54,1.319996,146312,7003
1673.44,1.318804,128451,6165
1677.31,1.360181,105080,4585
1680.21,1.331616,88906,4143
1683.1,1.352678,75033,3331
1685.99,1.342614,63520,2886
1688.87,1.281072,53714,2812
1691.75,1.318233,45653,2194
1694.62,1.296581,39137,1977
1697.49,1.182843,33776,2217
1701.31,1.305290,28175,1395

File: Column 1_078013_20241121_164113.csv
Method:,Column 1,,
Host Date-Time:,21/11/24 @ 16:41:13,,
Header Version:,1,,
System Temp (C):,29.48,,
Detector Temp (C):,24.78,,
Humidity (%):,7.11,,
Lamp PD:,3815,,
Shift Vector Coefficients:,-10.5391,0.0761263,-0.000134223,,
Pixel to Wavelength Coefficients:,1775.68,-0.916766,-0.000235065,,
Serial Number:,5510004,,
Scan Config Name:,Column 1,,
Scan Config Type:,Slew,,
Section 1,,
Start wavelength (nm):,900,,
End wavelength (nm):,1700,,
Pattern Pixel Width (nm):,   7.03,,,,
Exposure (ms):,  0.635,,,,
Digital Resolution:,228,,
Num Repeats:,6,,
PGA Gain:,64,,
Total Measurement Time in sec:,  2.706,,
Wavelength (nm),Absorbance (AU),Reference Signal (unitless),Sample Signal (unitless)
901.51,1.334579,108485,5021
905.376,1.303061,121306,6037
909.237,1.397229,131909,5285
913.095,1.302302,143299,7144
916.948,1.315322,156982,7595
922.079,1.303395,179937,8948
925.923,1.306225,200504,9906
929.762,1.294718,222660,11296
933.597,1.301361,244426,12212
937.427,1.321256,263972,12598
941.254,1.314369,281845,13666
945.076,1.304154,297271,14757
950.165,1.307246,315605,15556
953.978,1.304658,328029,16265
957.786,1.316653,340470,16422
961.59,1.308913,352317,17299
965.389,1.301552,363056,18131
969.185,1.306891,373162,18408
972.976,1.302727,382632,19057
976.763,1.307610,391202,19266
981.806,1.317587,400190,19261
985.583,1.292482,406088,20708
989.355,1.310776,410162,20053
993.124,1.305288,412868,20442
996.888,1.314924,414263,20061
1000.65,1.313173,415476,20201
1004.4,1.306499,415479,20514
1009.41,1.309046,414358,20339
1013.15,1.312824,412923,20093
1016.89,1.310597,411526,20128
1020.63,1.307648,409066,20144
1024.36,1.320013,406777,19469
1028.09,1.305854,404427,19998
1031.82,1.317292,401911,19357
1036.78,1.313156,398410,19372
1040.49,1.312924,396204,19275
1044.2,1.319685,394236,18883
1047.91,1.317998,392042,18851
1051.61,1.309925,389823,19096
1055.31,1.313046,388234,18882
1059,1.309423,387599,19009
1063.92,1.311106,386688,18891
1067.61,1.319173,386598,18539
1071.29,1.310135,387377,18967
1074.96,1.315551,388536,18788
1078.63,1.312424,389855,18988
1082.3,1.317035,391215,18853
1085.96,1.315717,393215,19007
1090.84,1.320015,396270,18966
1094.49,1.314862,398760,19313
1098.14,1.311673,400987,19564
1101.79,1.318398,403477,19383
1105.43,1.315929,406116,19621
1109.06,1.320508,407701,19491
1112.7,1.322800,409859,19491
1117.53,1.319960,412494,19745
1121.15,1.321025,414909,19812
1124.77,1.311240,416559,20344
1128.38,1.324735,418532,19815
1131.99,1.318476,419956,20171
1135.6,1.324488,421946,19988
1139.2,1.318552,423881,20356
1143.99,1.322180,426786,20325
1147.58,1.322163,428617,20413
1151.17,1.320738,431169,20602
1154.75,1.320427,433579,20732
1158.33,1.316477,436264,21051
1161.91,1.320810,439132,20979
1165.48,1.322470,442389,21054
1169.04,1.317803,446101,21460
1173.79,1.318711,451929,21695
1177.34,1.317080,456026,21974
1180.9,1.318831,461306,22139
1184.44,1.327465,467657,22002
1187.99,1.317587,473969,22812
1191.52,1.318308,479856,23057
1195.06,1.330002,487372,22796
1199.76,1.323453,497347,23616
1203.29,1.324846,504311,23870
1206.81,1.320893,511507,24432
1210.33,1.328520,519078,24362
1213.84,1.319168,527163,25280
1217.35,1.328729,534208,25060
1220.85,1.318151,540472,25979
1225.51,1.322935,549929,26144
1229.01,1.319973,556888,26656
1232.5,1.328699,562180,26374
1235.98,1.319250,567975,27232
1239.46,1.326527,574815,27102
1242.94,1.327534,582782,27414
1246.41,1.319246,591476,28359
1251.03,1.327088,604016,28442
1254.5,1.325278,612289,28952
1257.96,1.322148,619125,29487
1261.41,1.331362,624551,29121
1264.86,1.333265,629900,29242
1268.31,1.329116,634345,29731
1271.75,1.333978,638574,29596
1276.33,1.327176,642499,30248
1279.76,1.332903,645905,30010
1283.19,1.327666,648307,30487
1286.61,1.332586,650446,30243
1290.03,1.326943,652132,30718
1293.44,1.329086,653907,30650
1296.85,1.331186,655963,30598
1301.39,1.328977,657349,30819
1304.8,1.332795,657558,30559
1308.19,1.332291,658515,30639
1311.58,1.331137,658804,30734
1314.97,1.330511,659011,30788
1318.36,1.330942,658272,30723
1321.73,1.332363,658022,30611
1326.23,1.334596,657870,30447
1329.6,1.331927,656482,30570
1332.97,1.333419,654926,30393
1336.33,1.332866,653727,30376
1339.69,1.334083,652497,30234
1343.04,1.330854,649913,30339
1346.39,1.330572,647671,30254
1349.73,1.333956,645338,29911
1354.18,1.332294,641175,29832
1357.52,1.329580,638376,29888
1360.85,1.334977,635805,29400
1364.17,1.326205,633413,29887
1367.49,1.336587,631026,29071
1370.81,1.329248,628050,29427
1374.12,1.330506,625034,29201
1378.54,1.329077,620272,29074
1381.84,1.336127,616892,28450
1385.14,1.333278,613613,28485
1388.43,1.335304,611526,28256
1391.72,1.328132,610663,28686
1395.01,1.332203,610634,28417
1398.29,1.332578,611700,28442
1402.66,1.331656,614051,28612
1405.93,1.331328,616268,28737
1409.2,1.336396,617795,28474
1412.46,1.332239,618872,28798
1415.72,1.337906,619795,28467
1418.98,1.332848,620495,28833
1422.23,1.335180,621087,28706
1426.56,1.331061,621375,28993
1429.8,1.327500,621616,29243
1433.04,1.333313,622129,28878
1436.27,1.335456,621526,28708
1439.5,1.332408,621113,28891
1442.72,1.336078,620921,28639
1445.94,1.339308,620270,28397
1450.23,1.331537,618860,28844
1453.44,1.339511,617697,28266
1456.64,1.336647,616264,28387
1459.85,1.342079,614413,27950
1463.04,1.333896,612307,28384
1466.24,1.334027,610032,28270
1469.43,1.338563,607345,27853
1473.67,1.336997,603789,27790
1476.85,1.331455,601175,28025
1480.02,1.338031,597737,27446
1483.19,1.334535,594479,27517
1486.36,1.339992,591232,27025
1489.52,1.331804,587853,27382
1492.68,1.340329,583875,26668
1496.89,1.335496,578062,26698
1500.03,1.337247,574159,26411
1503.18,1.339768,570285,26081
1506.32,1.338185,565444,25954
1509.45,1.337550,560571,25768
1512.58,1.339657,555821,25426
1515.71,1.345500,550344,24839
1519.87,1.342045,543983,24748
1522.99,1.339194,538764,24672
1526.1,1.346645,533692,24024
1529.21,1.342288,527902,24003
1532.32,1.339250,521886,23896
1535.42,1.345386,515888,23290
1538.51,1.334132,509987,23628
1541.6,1.331529,503936,23488
1545.72,1.338043,494694,22714
1548.8,1.345959,488378,22019
1551.88,1.342015,481832,21922
1554.95,1.342713,474989,21576
1558.02,1.333117,467818,21725
1561.08,1.341434,460730,20990
1564.15,1.336470,454170,20929
1568.22,1.336209,444181,20481
1571.27,1.339681,436947,19987
1574.32,1.335893,429598,19823
1577.36,1.341599,422039,19220
1580.4,1.341599,414375,18871
1583.43,1.336668,406354,18717
1586.46,1.337191,398475,18332
1590.49,1.324711,388982,18417
1593.51,1.331369,380708,17751
1596.53,1.329571,372727,17451
1599.54,1.333246,365060,16948
1602.55,1.332776,357543,16617
1605.55,1.329392,349495,16370
1608.55,1.331717,341154,15894
1612.54,1.331357,330877,15428
1615.53,1.328689,322904,15149
1618.51,1.343894,315116,14275
1621.49,1.331624,307217,14316
1624.47,1.329095,299481,14037
1627.44,1.326710,292112,13767
1630.41,1.310866,284245,13894
1634.36,1.333969,274079,12703
1637.32,1.323255,266916,12680
1640.27,1.322131,259612,12365
1643.22,1.335782,251804,11622
1646.16,1.325765,244348,11541
1649.1,1.334235,236703,10964
1652.04,1.331360,228171,10639
1655.95,1.325130,215408,10189
1658.88,1.325341,204937,9689
1661.8,1.323934,193395,9173
1664.72,1.330440,179728,8398
1667.63,1.332339,163642,7613
1670.54,1.334242,146312,6777
1673.44,1.385692,128451,5285
1677.31,1.347762,105080,4718
1680.21,1.350688,88906,3965
1683.1,1.395245,75033,3020
1685.99,1.307644,63520,3128
1688.87,1.245788,53714,3050
1691.75,1.401791,45653,1810
1694.62,1.353538,39137,1734
1697.49,1.417682,33776,1291
1701.31,1.357143,28175,1238

File: Column 1_078014_20241121_164116.csv
Method:,Column 1,,
Host Date-Time:,21/11/24 @ 16:41:16,,
Header Version:,1,,
System Temp (C):,29.49,,
Detector Temp (C):,24.78,,
Humidity (%):,7.11,,
Lamp PD:,3815,,
Shift Vector Coefficients:,-10.5391,0.0761263,-0.000134223,,
Pixel to Wavelength Coefficients:,1775.68,-0.916766,-0.000235065,,
Serial Number:,5510004,,
Scan Config Name:,Column 1,,
Scan Config Type:,Slew,,
Section 1,,
Start wavelength (nm):,900,,
End wavelength (nm):,1700,,
Pattern Pixel Width (nm):,   7.03,,,,
Exposure (ms):,  0.635,,,,
Digital Resolution:,228,,
Num Repeats:,6,,
PGA Gain:,64,,
Total Measurement Time in sec:,  2.720,,
Wavelength (nm),Absorbance (AU),Reference Signal (unitless),Sample Signal (unitless)
901.51,1.300250,108485,5434
905.376,1.304430,121306,6018
909.237,1.300994,131909,6596
913.095,1.313447,143299,6963
916.948,1.307446,156982,7734
922.079,1.288556,179937,9259
925.923,1.302384,200504,9994
929.762,1.302280,222660,11101
933.597,1.304788,244426,12116
937.427,1.301708,263972,13178
941.254,1.314973,281845,13647
945.076,1.303243,297271,14788
950.165,1.313064,315605,15349
953.978,1.301678,328029,16377
957.786,1.319252,340470,16324
961.59,1.308963,352317,17297
965.389,1.308920,363056,17826
969.185,1.306184,373162,18438
972.976,1.302180,382632,19081
976.763,1.311754,391202,19083
981.806,1.308219,400190,19681
985.583,1.304302,406088,20152
989.355,1.305802,410162,20284
993.124,1.313697,412868,20050
996.888,1.309117,414263,20331
1000.65,1.307598,415476,20462
1004.4,1.313391,415479,20191
1009.41,1.314050,414358,20106
1013.15,1.303755,412923,20517
1016.89,1.305470,411526,20367
1020.63,1.302440,409066,20387
1024.36,1.312976,406777,19787
1028.09,1.308053,404427,19897
1031.82,1.306785,401911,19831
1036.78,1.305093,398410,19735
1040.49,1.302528,396204,19742
1044.2,1.310739,394236,19276
1047.91,1.314076,392042,19022
1051.61,1.314957,389823,18876
1055.31,1.314036,388234,18839
1059,1.307304,387599,19102
1063.92,1.318689,386688,18564
1067.61,1.300085,386598,19372
1071.29,1.314045,387377,18797
1074.96,1.315366,388536,18796
1078.63,1.309483,389855,19117
1082.3,1.309092,391215,19201
1085.96,1.314758,393215,19049
1090.84,1.318096,396270,19050
1094.49,1.315514,398760,19284
1098.14,1.314434,400987,19440
1101.79,1.304919,403477,19994
1105.43,1.315509,406116,19640
1109.06,1.306261,407701,20141
1112.7,1.314000,409859,19890
1117.53,1.321282,412494,19685
1121.15,1.321683,414909,19782
1124.77,1.325453,416559,19689
1128.38,1.314875,418532,20270
1131.99,1.315751,419956,20298
1135.6,1.308385,421946,20743
1139.2,1.315554,423881,20497
1143.99,1.322885,426786,20292
1147.58,1.323569,428617,20347
1151.17,1.316438,431169,20807
1154.75,1.321959,433579,20659
1158.33,1.319001,436264,20929
1161.91,1.313808,439132,21320
1165.48,1.322593,442389,21048
1169.04,1.331641,446101,20787
1173.79,1.312687,451929,21998
1177.34,1.312031,456026,22231
1180.9,1.321784,461306,21989
1184.44,1.317610,467657,22507
1187.99,1.313720,473969,23016
1191.52,1.320726,479856,22929
1195.06,1.317255,487372,23475
1199.76,1.321325,497347,23732
1203.29,1.327273,504311,23737
1206.81,1.322834,511507,24323
1210.33,1.320448,519078,24819
1213.84,1.325136,527163,24935
1217.35,1.323236,534208,25379
1220.85,1.326437,540472,25488
1225.51,1.319839,549929,26331
1229.01,1.322031,556888,26530
1232.5,1.324048,562180,26658
1235.98,1.326032,567975,26810
1239.46,1.319564,574815,27540
1242.94,1.319124,582782,27950
1246.41,1.317595,591476,28467
1251.03,1.319430,604016,28948
1254.5,1.328047,612289,28768
1257.96,1.323446,619125,29399
1261.41,1.320711,624551,29844
1264.86,1.333428,629900,29231
1268.31,1.326378,634345,29919
1271.75,1.329221,638574,29922
1276.33,1.322605,642499,30568
1279.76,1.331025,645905,30140
1283.19,1.331400,648307,30226
1286.61,1.335540,650446,30038
1290.03,1.329751,652132,30520
1293.44,1.332728,653907,30394
1296.85,1.332993,655963,30471
1301.39,1.326827,657349,30972
1304.8,1.329637,657558,30782
1308.19,1.328073,658515,30938
1311.58,1.330728,658804,30763
1314.97,1.331189,659011,30740
1318.36,1.334205,658272,30493
1321.73,1.329619,658022,30805
1326.23,1.334567,657870,30449
1329.6,1.331345,656482,30611
1332.97,1.326402,654926,30888
1336.33,1.332594,653727,30395
1339.69,1.331177,652497,30437
1343.04,1.332891,649913,30197
1346.39,1.332341,647671,30131
1349.73,1.332536,645338,30009
1354.18,1.328122,641175,30120
1357.52,1.330074,638376,29854
1360.85,1.328700,635805,29828
1364.17,1.330762,633413,29575
1367.49,1.326838,631026,29731
1370.81,1.328054,628050,29508
1374.12,1.329585,625034,29263
1378.54,1.326991,620272,29214
1381.84,1.334786,616892,28538
1385.14,1.329211,613613,28753
1388.43,1.328200,611526,28722
1391.72,1.331735,610663,28449
1395.01,1.326419,610634,28798
1398.29,1.332502,611700,28447
1402.66,1.324954,614051,29057
1405.93,1.331147,616268,28749
1409.2,1.328342,617795,29007
1412.46,1.327007,618872,29147
1415.72,1.327893,619795,29131
1418.98,1.332909,620495,28829
1422.23,1.333474,621087,28819
1426.56,1.338006,621375,28533
1429.8,1.329555,621616,29105
1433.04,1.329838,622129,29110
1436.27,1.331181,621526,28992
1439.5,1.336941,621113,28591
1442.72,1.337948,620921,28516
1445.94,1.333716,620270,28765
1450.23,1.337098,618860,28477
1453.44,1.335687,617697,28516
1456.64,1.334222,616264,28546
1459.85,1.339955,614413,28087
1463.04,1.336936,612307,28186
1466.24,1.337993,610032,28013
1469.43,1.337209,607345,27940
1473.67,1.338907,603789,27668
1476.85,1.331471,601175,28024
1480.02,1.335680,597737,27595
1483.19,1.334535,594479,27517
1486.36,1.333026,591232,27462
1489.52,1.340033,587853,26868
1492.68,1.339061,583875,26746
1496.89,1.340288,578062,26405
1500.03,1.337692,574159,26384
1503.18,1.335856,570285,26317
1506.32,1.335001,565444,26145
1509.45,1.342687,560571,25465
1512.58,1.340392,555821,25383
1515.71,1.340961,550344,25100
1519.87,1.332379,543983,25305
1522.99,1.339141,538764,24675
1526.1,1.341613,533692,24304
1529.21,1.337967,527902,24243
1532.32,1.335757,521886,24089
1535.42,1.339349,515888,23616
1538.51,1.336270,509987,23512
1541.6,1.333382,503936,23388
1545.72,1.339729,494694,22626
1548.8,1.328693,488378,22912
1551.88,1.335410,481832,22258
1554.95,1.337550,474989,21834
1558.02,1.326432,467818,22062
1561.08,1.331675,460730,21467
1564.15,1.336989,454170,20904
1568.22,1.329121,444181,20818
1571.27,1.335615,436947,20175
1574.32,1.344076,429598,19453
1577.36,1.334028,422039,19558
1580.4,1.328608,414375,19444
1583.43,1.332190,406354,18911
1586.46,1.327492,398475,18746
1590.49,1.332299,388982,18098
1593.51,1.338200,380708,17474
1596.53,1.328874,372727,17479
1599.54,1.336306,365060,16829
1602.55,1.331731,357543,16657
1605.55,1.331600,349495,16287
1608.55,1.324052,341154,16177
1612.54,1.327769,330877,15556
1615.53,1.333823,322904,14971
1618.51,1.320184,315116,15076
1621.49,1.333448,307217,14256
1624.47,1.323867,299481,14207
1627.44,1.323473,292112,13870
1630.41,1.335296,284245,13134
1634.36,1.329074,274079,12847
1637.32,1.327627,266916,12553
1640.27,1.312543,259612,12641
1643.22,1.331284,251804,11743
1646.16,1.328483,244348,11469
1649.1,1.324908,236703,11202
1652.04,1.319124,228171,10943
1655.95,1.312197,215408,10497
1658.88,1.336235,204937,9449
1661.8,1.335351,193395,8935
1664.72,1.346238,179728,8098
1667.63,1.337273,163642,7527
1670.54,1.356192,146312,6443
1673.44,1.327772,128451,6039
1677.31,1.340731,105080,4795
1680.21,1.343842,88906,4028
1683.1,1.340338,75033,3427
1685.99,1.372674,63520,2693
1688.87,1.321848,53714,2560
1691.75,1.331498,45653,2128
1694.62,1.329188,39137,1834
1697.49,1.258162,33776,1864
1701.31,1.294224,28175,1431