Folder: textile_sorting_NIRSCAN_/ML/samples/unknown (part 131)

File: Column 1_078975_20241121_173113.csv
Method:,Column 1,,
Host Date-Time:,21/11/24 @ 17:31:13,,
Header Version:,1,,
System Temp (C):,37.65,,
Detector Temp (C):,36.88,,
Humidity (%):,0.48,,
Lamp PD:,3795,,
Shift Vector Coefficients:,-10.5391,0.0761263,-0.000134223,,
Pixel to Wavelength Coefficients:,1775.68,-0.916766,-0.000235065,,
Serial Number:,5510004,,
Scan Config Name:,Column 1,,
Scan Config Type:,Slew,,
Section 1,,
Start wavelength (nm):,900,,
End wavelength (nm):,1700,,
Pattern Pixel Width (nm):,   7.03,,,,
Exposure (ms):,  0.635,,,,
Digital Resolution:,228,,
Num Repeats:,6,,
PGA Gain:,64,,
Total Measurement Time in sec:,  2.725,,
Wavelength (nm),Absorbance (AU),Reference Signal (unitless),Sample Signal (unitless)
901.51,1.322973,108485,5157
905.376,1.334146,121306,5620
909.237,1.317432,131909,6351
913.095,1.325847,143299,6767
916.948,1.310545,156982,7679
922.079,1.308963,179937,8834
925.923,1.324125,200504,9506
929.762,1.330692,222660,10398
933.597,1.333611,244426,11338
937.427,1.312114,263972,12866
941.254,1.320933,281845,13461
945.076,1.315303,297271,14383
950.165,1.306298,315605,15590
953.978,1.297876,328029,16521
957.786,1.320024,340470,16295
961.59,1.314522,352317,17077
965.389,1.313303,363056,17647
969.185,1.313236,373162,18141
972.976,1.303228,382632,19035
976.763,1.303548,391202,19447
981.806,1.305996,400190,19782
985.583,1.307482,406088,20005
989.355,1.292082,410162,20935
993.124,1.306842,412868,20369
996.888,1.305798,414263,20487
1000.65,1.307725,415476,20456
1004.4,1.302873,415479,20686
1009.41,1.305177,414358,20521
1013.15,1.303247,412923,20541
1016.89,1.305790,411526,20352
1020.63,1.309657,409066,20051
1024.36,1.303661,406777,20216
1028.09,1.312131,404427,19711
1031.82,1.310944,401911,19642
1036.78,1.311187,398410,19460
1040.49,1.303651,396204,19691
1044.2,1.311777,394236,19230
1047.91,1.306315,392042,19365
1051.61,1.322570,389823,18548
1055.31,1.315074,388234,18794
1059,1.309789,387599,18993
1063.92,1.310623,386688,18912
1067.61,1.306385,386598,19093
1071.29,1.308832,387377,19024
1074.96,1.306854,388536,19168
1078.63,1.304312,389855,19346
1082.3,1.304233,391215,19417
1085.96,1.301002,393215,19662
1090.84,1.313741,396270,19242
1094.49,1.310855,398760,19492
1098.14,1.317483,400987,19304
1101.79,1.321117,403477,19262
1105.43,1.312095,406116,19795
1109.06,1.311904,407701,19881
1112.7,1.320201,409859,19608
1117.53,1.311790,412494,20120
1121.15,1.305099,414909,20552
1124.77,1.316221,416559,20112
1128.38,1.313164,418532,20350
1131.99,1.325531,419956,19846
1135.6,1.318682,421946,20257
1139.2,1.313841,423881,20578
1143.99,1.317462,426786,20547
1147.58,1.314152,428617,20793
1151.17,1.319580,431169,20657
1154.75,1.310999,433579,21187
1158.33,1.311309,436264,21303
1161.91,1.315911,439132,21217
1165.48,1.317690,442389,21287
1169.04,1.315120,446101,21593
1173.79,1.314467,451929,21908
1177.34,1.316113,456026,22023
1180.9,1.312058,461306,22487
1184.44,1.316300,467657,22575
1187.99,1.314513,473969,22974
1191.52,1.310283,479856,23487
1195.06,1.320169,487372,23318
1199.76,1.321966,497347,23697
1203.29,1.315861,504311,24369
1206.81,1.324158,511507,24249
1210.33,1.325659,519078,24523
1213.84,1.316155,527163,25456
1217.35,1.323801,534208,25346
1220.85,1.320767,540472,25823
1225.51,1.326253,549929,25945
1229.01,1.329960,556888,26050
1232.5,1.313474,562180,27315
1235.98,1.315202,567975,27487
1239.46,1.329018,574815,26947
1242.94,1.322666,582782,27723
1246.41,1.322212,591476,28166
1251.03,1.320647,604016,28867
1254.5,1.322422,612289,29143
1257.96,1.326961,619125,29162
1261.41,1.323573,624551,29648
1264.86,1.323542,629900,29904
1268.31,1.327148,634345,29866
1271.75,1.325276,638574,30195
1276.33,1.318758,642499,30840
1279.76,1.324845,645905,30572
1283.19,1.324798,648307,30689
1286.61,1.327788,650446,30579
1290.03,1.323352,652132,30973
1293.44,1.333071,653907,30370
1296.85,1.328047,655963,30820
1301.39,1.332984,657349,30536
1304.8,1.331915,657558,30621
1308.19,1.328017,658515,30942
1311.58,1.334741,658804,30480
1314.97,1.326398,659011,31081
1318.36,1.335503,658272,30402
1321.73,1.326501,658022,31027
1326.23,1.329307,657870,30820
1329.6,1.325763,656482,31007
1332.97,1.331167,654926,30551
1336.33,1.327043,653727,30786
1339.69,1.332549,652497,30341
1343.04,1.331771,649913,30275
1346.39,1.326315,647671,30552
1349.73,1.327800,645338,30338
1354.18,1.326567,641175,30228
1357.52,1.324308,638376,30253
1360.85,1.322426,635805,30262
1364.17,1.330175,633413,29615
1367.49,1.328345,631026,29628
1370.81,1.324829,628050,29728
1374.12,1.326730,625034,29456
1378.54,1.328674,620272,29101
1381.84,1.322172,616892,29379
1385.14,1.329362,613613,28743
1388.43,1.325728,611526,28886
1391.72,1.324243,610663,28944
1395.01,1.325094,610634,28886
1398.29,1.323198,611700,29063
1402.66,1.320389,614051,29364
1405.93,1.326205,616268,29078
1409.2,1.326593,617795,29124
1412.46,1.332133,618872,28805
1415.72,1.332901,619795,28797
1418.98,1.331030,620495,28954
1422.23,1.332390,621087,28891
1426.56,1.325760,621375,29349
1429.8,1.329734,621616,29093
1433.04,1.333268,622129,28881
1436.27,1.334399,621526,28778
1439.5,1.329382,621113,29093
1442.72,1.331898,620921,28916
1445.94,1.331833,620270,28890
1450.23,1.328267,618860,29062
1453.44,1.330073,617697,28887
1456.64,1.331159,616264,28748
1459.85,1.334027,614413,28473
1463.04,1.331957,612307,28511
1466.24,1.334642,610032,28230
1469.43,1.335394,607345,28057
1473.67,1.335297,603789,27899
1476.85,1.332060,601175,27986
1480.02,1.335161,597737,27628
1483.19,1.340719,594479,27128
1486.36,1.325563,591232,27938
1489.52,1.332502,587853,27338
1492.68,1.330587,583875,27273
1496.89,1.329679,578062,27058
1500.03,1.333645,574159,26631
1503.18,1.331880,570285,26559
1506.32,1.338453,565444,25938
1509.45,1.339492,560571,25653
1512.58,1.334343,555821,25739
1515.71,1.334367,550344,25484
1519.87,1.331128,543983,25378
1522.99,1.330360,538764,25179
1526.1,1.334137,533692,24726
1529.21,1.337501,527902,24269
1532.32,1.330435,521886,24386
1535.42,1.349621,515888,23064
1538.51,1.336454,509987,23502
1541.6,1.336214,503936,23236
1545.72,1.325195,494694,23396
1548.8,1.335109,488378,22576
1551.88,1.340433,481832,22002
1554.95,1.325545,474989,22446
1558.02,1.335422,467818,21610
1561.08,1.335148,460730,21296
1564.15,1.333224,454170,21086
1568.22,1.334136,444181,20579
1571.27,1.329438,436947,20464
1574.32,1.338618,429598,19699
1577.36,1.335518,422039,19491
1580.4,1.324252,414375,19640
1583.43,1.334724,406354,18801
1586.46,1.330585,398475,18613
1590.49,1.331580,388982,18128
1593.51,1.329904,380708,17811
1596.53,1.328725,372727,17485
1599.54,1.329724,365060,17086
1602.55,1.324723,357543,16928
1605.55,1.328438,349495,16406
1608.55,1.301761,341154,17029
1612.54,1.328831,330877,15518
1615.53,1.327458,322904,15192
1618.51,1.319062,315116,15115
1621.49,1.326497,307217,14486
1624.47,1.323073,299481,14233
1627.44,1.326963,292112,13759
1630.41,1.329026,284245,13325
1634.36,1.308186,274079,13480
1637.32,1.315314,266916,12914
1640.27,1.312921,259612,12630
1643.22,1.306871,251804,12422
1646.16,1.294622,244348,12399
1649.1,1.306872,236703,11677
1652.04,1.312234,228171,11118
1655.95,1.309228,215408,10569
1658.88,1.288903,204937,10537
1661.8,1.286619,193395,9996
1664.72,1.264232,179728,9781
1667.63,1.243083,163642,9350
1670.54,1.220649,146312,8803
1673.44,1.194977,128451,8199
1677.31,1.159568,105080,7277
1680.21,1.153746,88906,6240
1683.1,1.136789,75033,5476
1685.99,1.118424,63520,4836
1688.87,1.106218,53714,4206
1691.75,1.091033,45653,3702
1694.62,1.071449,39137,3320
1697.49,1.131886,33776,2493
1701.31,1.098648,28175,2245

File: Column 1_078977_20241121_173118.csv
Method:,Column 1,,
Host Date-Time:,21/11/24 @ 17:31:18,,
Header Version:,1,,
System Temp (C):,37.54,,
Detector Temp (C):,36.88,,
Humidity (%):,0.39,,
Lamp PD:,3795,,
Shift Vector Coefficients:,-10.5391,0.0761263,-0.000134223,,
Pixel to Wavelength Coefficients:,1775.68,-0.916766,-0.000235065,,
Serial Number:,5510004,,
Scan Config Name:,Column 1,,
Scan Config Type:,Slew,,
Section 1,,
Start wavelength (nm):,900,,
End wavelength (nm):,1700,,
Pattern Pixel Width (nm):,   7.03,,,,
Exposure (ms):,  0.635,,,,
Digital Resolution:,228,,
Num Repeats:,6,,
PGA Gain:,64,,
Total Measurement Time in sec:,  2.721,,
Wavelength (nm),Absorbance (AU),Reference Signal (unitless),Sample Signal (unitless)
901.51,1.301130,108485,5423
905.376,1.292121,121306,6191
909.237,1.325159,131909,6239
913.095,1.334075,143299,6640
916.948,1.343248,156982,7122
922.079,1.305828,179937,8898
925.923,1.342843,200504,9105
929.762,1.333332,222660,10335
933.597,1.329039,244426,11458
937.427,1.325622,263972,12472
941.254,1.328779,281845,13220
945.076,1.316694,297271,14337
950.165,1.324328,315605,14956
953.978,1.320816,328029,15671
957.786,1.317898,340470,16375
961.59,1.311001,352317,17216
965.389,1.310457,363056,17763
969.185,1.321551,373162,17797
972.976,1.307908,382632,18831
976.763,1.305787,391202,19347
981.806,1.301084,400190,20007
985.583,1.305835,406088,20081
989.355,1.307368,410162,20211
993.124,1.315085,412868,19986
996.888,1.312333,414263,20181
1000.65,1.316735,415476,20036
1004.4,1.310818,415479,20311
1009.41,1.306343,414358,20466
1013.15,1.315752,412923,19958
1016.89,1.316309,411526,19865
1020.63,1.304811,409066,20276
1024.36,1.307394,406777,20043
1028.09,1.309780,404427,19818
1031.82,1.316082,401911,19411
1036.78,1.315561,398410,19265
1040.49,1.316136,396204,19133
1044.2,1.315132,394236,19082
1047.91,1.305912,392042,19383
1051.61,1.311954,389823,19007
1055.31,1.312839,388234,18891
1059,1.312105,387599,18892
1063.92,1.308859,386688,18989
1067.61,1.308575,386598,18997
1071.29,1.320516,387377,18519
1074.96,1.310609,388536,19003
1078.63,1.313042,389855,18961
1082.3,1.324212,391215,18544
1085.96,1.314052,393215,19080
1090.84,1.313809,396270,19239
1094.49,1.316394,398760,19245
1098.14,1.306114,400987,19816
1101.79,1.308890,403477,19812
1105.43,1.319061,406116,19480
1109.06,1.308141,407701,20054
1112.7,1.314415,409859,19871
1117.53,1.308928,412494,20253
1121.15,1.316272,414909,20030
1124.77,1.317021,416559,20075
1128.38,1.318511,418532,20101
1131.99,1.318433,419956,20173
1135.6,1.317547,421946,20310
1139.2,1.318125,423881,20376
1143.99,1.312606,426786,20778
1147.58,1.315240,428617,20741
1151.17,1.320886,431169,20595
1154.75,1.314498,433579,21017
1158.33,1.316023,436264,21073
1161.91,1.312303,439132,21394
1165.48,1.315127,442389,21413
1169.04,1.315241,446101,21587
1173.79,1.329493,451929,21163
1177.34,1.318010,456026,21927
1180.9,1.319027,461306,22129
1184.44,1.322188,467657,22271
1187.99,1.311049,473969,23158
1191.52,1.324703,479856,22720
1195.06,1.312618,487372,23727
1199.76,1.323913,497347,23591
1203.29,1.316699,504311,24322
1206.81,1.327303,511507,24074
1210.33,1.317849,519078,24968
1213.84,1.316889,527163,25413
1217.35,1.321392,534208,25487
1220.85,1.324381,540472,25609
1225.51,1.322785,549929,26153
1229.01,1.325185,556888,26338
1232.5,1.320608,562180,26870
1235.98,1.316912,567975,27379
1239.46,1.321492,574815,27418
1242.94,1.316815,582782,28099
1246.41,1.322644,591476,28138
1251.03,1.326341,604016,28491
1254.5,1.328017,612289,28770
1257.96,1.325000,619125,29294
1261.41,1.324042,624551,29616
1264.86,1.324968,629900,29806
1268.31,1.320969,634345,30294
1271.75,1.328481,638574,29973
1276.33,1.330968,642499,29985
1279.76,1.322507,645905,30737
1283.19,1.326627,648307,30560
1286.61,1.327745,650446,30582
1290.03,1.325813,652132,30798
1293.44,1.324659,653907,30964
1296.85,1.330832,655963,30623
1301.39,1.328738,657349,30836
1304.8,1.330951,657558,30689
1308.19,1.326770,658515,31031
1311.58,1.332694,658804,30624
1314.97,1.326677,659011,31061
1318.36,1.332187,658272,30635
1321.73,1.328915,658022,30855
1326.23,1.331016,657870,30699
1329.6,1.328376,656482,30821
1332.97,1.326951,654926,30849
1336.33,1.337566,653727,30049
1339.69,1.330407,652497,30491
1343.04,1.333842,649913,30131
1346.39,1.325761,647671,30591
1349.73,1.334436,645338,29878
1354.18,1.329031,641175,30057
1357.52,1.331794,638376,29736
1360.85,1.326927,635805,29950
1364.17,1.329413,633413,29667
1367.49,1.324405,631026,29898
1370.81,1.328275,628050,29493
1374.12,1.331444,625034,29138
1378.54,1.328674,620272,29101
1381.84,1.327691,616892,29008
1385.14,1.332395,613613,28543
1388.43,1.330079,611526,28598
1391.72,1.326138,610663,28818
1395.01,1.330388,610634,28536
1398.29,1.328778,611700,28692
1402.66,1.329929,614051,28726
1405.93,1.332357,616268,28669
1409.2,1.328731,617795,28981
1412.46,1.326664,618872,29170
1415.72,1.331455,619795,28893
1418.98,1.333587,620495,28784
1422.23,1.328365,621087,29160
1426.56,1.329506,621375,29097
1429.8,1.330855,621616,29018
1433.04,1.331423,622129,29004
1436.27,1.328880,621526,29146
1439.5,1.338737,621113,28473
1442.72,1.334489,620921,28744
1445.94,1.328136,620270,29137
1450.23,1.331627,618860,28838
1453.44,1.333484,617697,28661
1456.64,1.336265,616264,28412
1459.85,1.334195,614413,28462
1463.04,1.330406,612307,28613
1466.24,1.337110,610032,28070
1469.43,1.336727,607345,27971
1473.67,1.339551,603789,27627
1476.85,1.335754,601175,27749
1480.02,1.338474,597737,27418
1483.19,1.332646,594479,27637
1486.36,1.337461,591232,27183
1489.52,1.337760,587853,27009
1492.68,1.345276,583875,26366
1496.89,1.335626,578062,26690
1500.03,1.330573,574159,26820
1503.18,1.331978,570285,26553
1506.32,1.339526,565444,25874
1509.45,1.336540,560571,25828
1512.58,1.333484,555821,25790
1515.71,1.334810,550344,25458
1519.87,1.342554,543983,24719
1522.99,1.338526,538764,24710
1526.1,1.332157,533692,24839
1529.21,1.338451,527902,24216
1532.32,1.341674,521886,23763
1535.42,1.336161,515888,23790
1538.51,1.342315,509987,23187
1541.6,1.340459,503936,23010
1545.72,1.331515,494694,23058
1548.8,1.333918,488378,22638
1551.88,1.344579,481832,21793
1554.95,1.336855,474989,21869
1558.02,1.328425,467818,21961
1561.08,1.328450,460730,21627
1564.15,1.332936,454170,21100
1568.22,1.335446,444181,20517
1571.27,1.324228,436947,20711
1574.32,1.331707,429598,20015
1577.36,1.335541,422039,19490
1580.4,1.331814,414375,19301
1583.43,1.322156,406354,19353
1586.46,1.323710,398475,18910
1590.49,1.326459,388982,18343
1593.51,1.320783,380708,18189
1596.53,1.329969,372727,17435
1599.54,1.320146,365060,17467
1602.55,1.331419,357543,16669
1605.55,1.326352,349495,16485
1608.55,1.335918,341154,15741
1612.54,1.334720,330877,15309
1615.53,1.330355,322904,15091
1618.51,1.308195,315116,15498
1621.49,1.323598,307217,14583
1624.47,1.322646,299481,14247
1627.44,1.313812,292112,14182
1630.41,1.328504,284245,13341
1634.36,1.320903,274079,13091
1637.32,1.315920,266916,12896
1640.27,1.303062,259612,12920
1643.22,1.311299,251804,12296
1646.16,1.299802,244348,12252
1649.1,1.318176,236703,11377
1652.04,1.319243,228171,10940
1655.95,1.289193,215408,11068
1658.88,1.322705,204937,9748
1661.8,1.298288,193395,9731
1664.72,1.286226,179728,9298
1667.63,1.241553,163642,9383
1670.54,1.237910,146312,8460
1673.44,1.198807,128451,8127
1677.31,1.165940,105080,7171
1680.21,1.139978,88906,6441
1683.1,1.151961,75033,5288
1685.99,1.137705,63520,4626
1688.87,1.079586,53714,4472
1691.75,1.107532,45653,3564
1694.62,1.114743,39137,3005
1697.49,1.214741,33776,2060
1701.31,1.115611,28175,2159

File: Column 1_078981_20241121_173130.csv
Method:,Column 1,,
Host Date-Time:,21/11/24 @ 17:31:30,,
Header Version:,1,,
System Temp (C):,37.75,,
Detector Temp (C):,36.89,,
Humidity (%):,0.64,,
Lamp PD:,3795,,
Shift Vector Coefficients:,-10.5391,0.0761263,-0.000134223,,
Pixel to Wavelength Coefficients:,1775.68,-0.916766,-0.000235065,,
Serial Number:,5510004,,
Scan Config Name:,Column 1,,
Scan Config Type:,Slew,,
Section 1,,
Start wavelength (nm):,900,,
End wavelength (nm):,1700,,
Pattern Pixel Width (nm):,   7.03,,,,
Exposure (ms):,  0.635,,,,
Digital Resolution:,228,,
Num Repeats:,6,,
PGA Gain:,64,,
Total Measurement Time in sec:,  2.713,,
Wavelength (nm),Absorbance (AU),Reference Signal (unitless),Sample Signal (unitless)
901.51,1.282553,108485,5660
905.376,1.289185,121306,6233
909.237,1.290521,131909,6757
913.095,1.276230,143299,7586
916.948,1.322529,156982,7470
922.079,1.342526,179937,8177
925.923,1.310498,200504,9809
929.762,1.321109,222660,10630
933.597,1.307629,244426,12037
937.427,1.322776,263972,12554
941.254,1.322387,281845,13416
945.076,1.308443,297271,14612
950.165,1.312329,315605,15375
953.978,1.301811,328029,16372
957.786,1.309701,340470,16687
961.59,1.319150,352317,16896
965.389,1.311927,363056,17703
969.185,1.301382,373162,18643
972.976,1.299322,382632,19207
976.763,1.310913,391202,19120
981.806,1.308131,400190,19685
985.583,1.305575,406088,20093
989.355,1.303773,410162,20379
993.124,1.302260,412868,20585
996.888,1.301852,414263,20674
1000.65,1.310558,415476,20323
1004.4,1.302180,415479,20719
1009.41,1.307086,414358,20431
1013.15,1.304327,412923,20490
1016.89,1.303938,411526,20439
1020.63,1.300612,409066,20473
1024.36,1.310918,406777,19881
1028.09,1.301919,404427,20180
1031.82,1.296313,401911,20315
1036.78,1.304302,398410,19771
1040.49,1.308263,396204,19483
1044.2,1.306323,394236,19473
1047.91,1.312322,392042,19099
1051.61,1.304186,389823,19350
1055.31,1.305385,388234,19218
1059,1.303726,387599,19260
1063.92,1.308630,386688,18999
1067.61,1.305272,386598,19142
1071.29,1.306283,387377,19136
1074.96,1.304685,388536,19264
1078.63,1.290677,389855,19963
1082.3,1.304032,391215,19426
1085.96,1.308623,393215,19320
1090.84,1.309273,396270,19441
1094.49,1.308300,398760,19607
1098.14,1.313207,400987,19495
1101.79,1.318241,403477,19390
1105.43,1.307881,406116,19988
1109.06,1.311096,407701,19918
1112.7,1.307541,409859,20188
1117.53,1.310733,412494,20169
1121.15,1.310393,414909,20303
1124.77,1.310984,416559,20356
1128.38,1.308473,418532,20571
1131.99,1.308789,419956,20626
1135.6,1.312466,421946,20549
1139.2,1.311106,423881,20708
1143.99,1.312022,426786,20806
1147.58,1.318244,428617,20598
1151.17,1.317546,431169,20754
1154.75,1.304832,433579,21490
1158.33,1.319728,436264,20894
1161.91,1.311938,439132,21412
1165.48,1.307647,442389,21785
1169.04,1.313775,446101,21660
1173.79,1.307974,451929,22238
1177.34,1.301474,456026,22778
1180.9,1.313935,461306,22390
1184.44,1.315838,467657,22599
1187.99,1.318826,473969,22747
1191.52,1.315829,479856,23189
1195.06,1.317089,487372,23484
1199.76,1.319590,497347,23827
1203.29,1.315700,504311,24378
1206.81,1.315575,511507,24733
1210.33,1.315888,519078,25081
1213.84,1.320441,527163,25206
1217.35,1.318640,534208,25649
1220.85,1.316249,540472,26093
1225.51,1.322935,549929,26144
1229.01,1.314227,556888,27011
1232.5,1.319542,562180,26936
1235.98,1.318167,567975,27300
1239.46,1.318776,574815,27590
1242.94,1.319264,582782,27941
1246.41,1.317077,591476,28501
1251.03,1.320090,604016,28904
1254.5,1.318919,612289,29379
1257.96,1.322988,619125,29430
1261.41,1.322373,624551,29730
1264.86,1.314758,629900,30515
1268.31,1.327148,634345,29866
1271.75,1.322552,638574,30385
1276.33,1.322492,642499,30576
1279.76,1.327124,645905,30412
1283.19,1.323921,648307,30751
1286.61,1.318792,650446,31219
1290.03,1.320459,652132,31180
1293.44,1.320805,653907,31240
1296.85,1.330832,655963,30623
1301.39,1.323836,657349,31186
1304.8,1.324839,657558,31124
1308.19,1.323591,658515,31259
1311.58,1.325912,658804,31106
1314.97,1.325769,659011,31126
1318.36,1.327548,658272,30964
1321.73,1.326655,658022,31016
1326.23,1.332192,657870,30616
1329.6,1.328432,656482,30817
1332.97,1.325504,654926,30952
1336.33,1.324764,653727,30948
1339.69,1.327454,652497,30699
1343.04,1.328015,649913,30538
1346.39,1.325293,647671,30624
1349.73,1.326571,645338,30424
1354.18,1.326007,641175,30267
1357.52,1.320677,638376,30507
1360.85,1.321824,635805,30304
1364.17,1.325145,633413,29960
1367.49,1.325583,631026,29817
1370.81,1.323778,628050,29800
1374.12,1.323908,625034,29648
1378.54,1.320265,620272,29670
1381.84,1.325124,616892,29180
1385.14,1.324689,613613,29054
1388.43,1.320482,611526,29237
1391.72,1.322118,610663,29086
1395.01,1.322740,610634,29043
1398.29,1.328415,611700,28716
1402.66,1.320744,614051,29340
1405.93,1.326609,616268,29051
1409.2,1.326429,617795,29135
1412.46,1.328544,618872,29044
1415.72,1.331005,619795,28923
1418.98,1.328607,620495,29116
1422.23,1.326893,621087,29259
1426.56,1.322738,621375,29554
1429.8,1.330526,621616,29040
1433.04,1.326524,622129,29333
1436.27,1.326859,621526,29282
1439.5,1.329606,621113,29078
1442.72,1.326198,620921,29298
1445.94,1.329225,620270,29064
1450.23,1.329614,618860,28972
1453.44,1.330871,617697,28834
1456.64,1.329094,616264,28885
1459.85,1.330624,614413,28697
1463.04,1.337367,612307,28158
1466.24,1.335566,610032,28170
1469.43,1.329842,607345,28418
1473.67,1.329667,603789,28263
1476.85,1.332899,601175,27932
1480.02,1.329523,597737,27989
1483.19,1.339153,594479,27226
1486.36,1.334198,591232,27388
1489.52,1.333615,587853,27268
1492.68,1.328268,583875,27419
1496.89,1.328893,578062,27107
1500.03,1.334330,574159,26589
1503.18,1.325533,570285,26950
1506.32,1.336482,565444,26056
1509.45,1.328493,560571,26311
1512.58,1.327098,555821,26172
1515.71,1.329857,550344,25750
1519.87,1.333651,543983,25231
1522.99,1.330688,538764,25160
1526.1,1.329038,533692,25018
1529.21,1.337072,527902,24293
1532.32,1.328871,521886,24474
1535.42,1.338431,515888,23666
1538.51,1.328671,509987,23927
1541.6,1.323487,503936,23927
1545.72,1.327578,494694,23268
1548.8,1.332730,488378,22700
1551.88,1.330250,481832,22524
1554.95,1.327153,474989,22363
1558.02,1.333537,467818,21704
1561.08,1.322586,460730,21921
1564.15,1.327394,454170,21371
1568.22,1.326107,444181,20963
1571.27,1.326583,436947,20599
1574.32,1.323666,429598,20389
1577.36,1.323910,422039,20019
1580.4,1.331881,414375,19298
1583.43,1.327280,406354,19126
1586.46,1.318074,398475,19157
1590.49,1.320440,388982,18599
1593.51,1.320330,380708,18208
1596.53,1.318635,372727,17896
1599.54,1.324996,365060,17273
1602.55,1.326522,357543,16858
1605.55,1.318545,349495,16784
1608.55,1.309403,341154,16732
1612.54,1.318898,330877,15877
1615.53,1.309483,322904,15834
1618.51,1.309317,315116,15458
1621.49,1.320098,307217,14701
1624.47,1.317133,299481,14429
1627.44,1.310487,292112,14291
1630.41,1.299238,284245,14271
1634.36,1.305424,274079,13566
1637.32,1.296814,266916,13476
1640.27,1.314541,259612,12583
1643.22,1.319427,251804,12068
1646.16,1.298210,244348,12297
1649.1,1.304906,236703,11730
1652.04,1.283883,228171,11868
1655.95,1.289703,215408,11055
1658.88,1.270939,204937,10982
1661.8,1.276697,193395,10227
1664.72,1.260079,179728,9875
1667.63,1.238325,163642,9453
1670.54,1.213748,146312,8944
1673.44,1.179370,128451,8499
1677.31,1.175121,105080,7021
1680.21,1.121691,88906,6718
1683.1,1.115887,75033,5746
1685.99,1.111475,63520,4914
1688.87,1.087821,53714,4388
1691.75,1.076838,45653,3825
1694.62,1.065990,39137,3362
1697.49,1.075596,33776,2838
1701.31,1.105079,28175,2212