Folder: textile_sorting_NIRSCAN_/ML/samples/unknown (part 106)

File: Column 1_078752_20241121_172028.csv
Method:,Column 1,,
Host Date-Time:,21/11/24 @ 17:20:28,,
Header Version:,1,,
System Temp (C):,36.57,,
Detector Temp (C):,34.78,,
Humidity (%):,1.37,,
Lamp PD:,3798,,
Shift Vector Coefficients:,-10.5391,0.0761263,-0.000134223,,
Pixel to Wavelength Coefficients:,1775.68,-0.916766,-0.000235065,,
Serial Number:,5510004,,
Scan Config Name:,Column 1,,
Scan Config Type:,Slew,,
Section 1,,
Start wavelength (nm):,900,,
End wavelength (nm):,1700,,
Pattern Pixel Width (nm):,   7.03,,,,
Exposure (ms):,  0.635,,,,
Digital Resolution:,228,,
Num Repeats:,6,,
PGA Gain:,64,,
Total Measurement Time in sec:,  2.724,,
Wavelength (nm),Absorbance (AU),Reference Signal (unitless),Sample Signal (unitless)
901.51,1.323984,108485,5145
905.376,1.328770,121306,5690
909.237,1.323145,131909,6268
913.095,1.306271,143299,7079
916.948,1.341908,156982,7144
922.079,1.318406,179937,8644
925.923,1.325361,200504,9479
929.762,1.332660,222660,10351
933.597,1.336995,244426,11250
937.427,1.313297,263972,12831
941.254,1.320739,281845,13467
945.076,1.307938,297271,14629
950.165,1.301009,315605,15781
953.978,1.301360,328029,16389
957.786,1.306976,340470,16792
961.59,1.305836,352317,17422
965.389,1.309383,363056,17807
969.185,1.310206,373162,18268
972.976,1.300386,382632,19160
976.763,1.294684,391202,19848
981.806,1.306897,400190,19741
985.583,1.305467,406088,20098
989.355,1.301265,410162,20497
993.124,1.303380,412868,20532
996.888,1.308882,414263,20342
1000.65,1.295170,415476,21056
1004.4,1.304872,415479,20591
1009.41,1.306215,414358,20472
1013.15,1.309208,412923,20261
1016.89,1.310834,411526,20117
1020.63,1.303485,409066,20338
1024.36,1.311508,406777,19854
1028.09,1.303817,404427,20092
1031.82,1.307640,401911,19792
1036.78,1.303512,398410,19807
1040.49,1.320791,396204,18929
1044.2,1.311010,394236,19264
1047.91,1.300944,392042,19606
1051.61,1.305108,389823,19309
1055.31,1.307560,388234,19122
1059,1.307645,387599,19087
1063.92,1.312049,386688,18850
1067.61,1.312202,386598,18839
1071.29,1.305784,387377,19158
1074.96,1.303199,388536,19330
1078.63,1.316445,389855,18813
1082.3,1.304099,391215,19423
1085.96,1.316471,393215,18974
1090.84,1.313876,396270,19236
1094.49,1.312977,398760,19397
1098.14,1.309348,400987,19669
1101.79,1.314095,403477,19576
1105.43,1.308142,406116,19976
1109.06,1.310856,407701,19929
1112.7,1.303601,409859,20372
1117.53,1.319851,412494,19750
1121.15,1.311399,414909,20256
1124.77,1.314261,416559,20203
1128.38,1.303165,418532,20824
1131.99,1.308705,419956,20630
1135.6,1.319175,421946,20234
1139.2,1.307638,423881,20874
1143.99,1.319496,426786,20451
1147.58,1.309313,428617,21026
1151.17,1.321772,431169,20553
1154.75,1.318129,433579,20842
1158.33,1.314316,436264,21156
1161.91,1.310682,439132,21474
1165.48,1.313224,442389,21507
1169.04,1.312613,446101,21718
1173.79,1.314467,451929,21908
1177.34,1.306055,456026,22539
1180.9,1.316698,461306,22248
1184.44,1.318054,467657,22484
1187.99,1.315119,473969,22942
1191.52,1.319496,479856,22994
1195.06,1.318033,487372,23433
1199.76,1.314679,497347,24098
1203.29,1.321367,504311,24062
1206.81,1.312164,511507,24928
1210.33,1.314677,519078,25151
1213.84,1.320889,527163,25180
1217.35,1.325879,534208,25225
1220.85,1.316616,540472,26071
1225.51,1.316848,549929,26513
1229.01,1.318363,556888,26755
1232.5,1.320592,562180,26871
1235.98,1.325741,567975,26828
1239.46,1.322761,574815,27338
1242.94,1.322964,582782,27704
1246.41,1.317184,591476,28494
1251.03,1.321159,604016,28833
1254.5,1.316296,612289,29557
1257.96,1.316601,619125,29866
1261.41,1.323954,624551,29622
1264.86,1.321948,629900,30014
1268.31,1.322017,634345,30221
1271.75,1.322038,638574,30421
1276.33,1.321584,642499,30640
1279.76,1.320913,645905,30850
1283.19,1.326201,648307,30590
1286.61,1.323886,650446,30855
1290.03,1.323310,652132,30976
1293.44,1.324084,653907,31005
1296.85,1.324398,655963,31080
1301.39,1.326434,657349,31000
1304.8,1.323933,657558,31189
1308.19,1.329226,658515,30856
1311.58,1.329417,658804,30856
1314.97,1.327363,659011,31012
1318.36,1.330109,658272,30782
1321.73,1.333556,658022,30527
1326.23,1.331370,657870,30674
1329.6,1.329929,656482,30711
1332.97,1.326839,654926,30857
1336.33,1.328513,653727,30682
1339.69,1.327667,652497,30684
1343.04,1.333035,649913,30187
1346.39,1.326784,647671,30519
1349.73,1.324975,645338,30536
1354.18,1.322349,641175,30523
1357.52,1.325760,638376,30152
1360.85,1.326188,635805,30001
1364.17,1.319858,633413,30327
1367.49,1.323404,631026,29967
1370.81,1.329248,628050,29427
1374.12,1.322840,625034,29721
1378.54,1.324782,620272,29363
1381.84,1.325362,616892,29164
1385.14,1.326021,613613,28965
1388.43,1.323508,611526,29034
1391.72,1.322073,610663,29089
1395.01,1.323788,610634,28973
1398.29,1.327704,611700,28763
1402.66,1.324834,614051,29065
1405.93,1.326384,616268,29066
1409.2,1.326638,617795,29121
1412.46,1.325252,618872,29265
1415.72,1.331756,619795,28873
1418.98,1.329039,620495,29087
1422.23,1.329468,621087,29086
1426.56,1.332246,621375,28914
1429.8,1.332880,621616,28883
1433.04,1.334111,622129,28825
1436.27,1.329865,621526,29080
1439.5,1.330488,621113,29019
1442.72,1.323420,620921,29486
1445.94,1.333445,620270,28783
1450.23,1.334074,618860,28676
1453.44,1.329112,617697,28951
1456.64,1.333963,616264,28563
1459.85,1.330155,614413,28728
1463.04,1.325891,612307,28912
1466.24,1.327259,610032,28714
1469.43,1.326629,607345,28629
1473.67,1.333092,603789,28041
1476.85,1.328967,601175,28186
1480.02,1.327464,597737,28122
1483.19,1.337624,594479,27322
1486.36,1.334404,591232,27375
1489.52,1.329636,587853,27519
1492.68,1.334586,583875,27023
1496.89,1.333014,578062,26851
1500.03,1.333873,574159,26617
1503.18,1.335707,570285,26326
1506.32,1.334835,565444,26155
1509.45,1.339103,560571,25676
1512.58,1.332726,555821,25835
1515.71,1.339165,550344,25204
1519.87,1.333548,543983,25237
1522.99,1.332972,538764,25028
1526.1,1.328795,533692,25032
1529.21,1.331530,527902,24605
1532.32,1.333904,521886,24192
1535.42,1.332543,515888,23989
1538.51,1.329761,509987,23867
1541.6,1.330827,503936,23526
1545.72,1.330988,494694,23086
1548.8,1.335667,488378,22547
1551.88,1.328672,481832,22606
1554.95,1.336874,474989,21868
1558.02,1.332458,467818,21758
1561.08,1.325448,460730,21777
1564.15,1.334875,454170,21006
1568.22,1.333608,444181,20604
1571.27,1.337276,436947,20098
1574.32,1.333904,429598,19914
1577.36,1.329346,422039,19770
1580.4,1.329100,414375,19422
1583.43,1.324181,406354,19263
1586.46,1.320871,398475,19034
1590.49,1.329524,388982,18214
1593.51,1.323177,380708,18089
1596.53,1.325286,372727,17624
1599.54,1.329216,365060,17106
1602.55,1.322701,357543,17007
1605.55,1.320542,349495,16707
1608.55,1.326259,341154,16095
1612.54,1.315791,330877,15991
1615.53,1.314753,322904,15643
1618.51,1.333850,315116,14609
1621.49,1.319184,307217,14732
1624.47,1.319245,299481,14359
1627.44,1.308365,292112,14361
1630.41,1.329254,284245,13318
1634.36,1.319214,274079,13142
1637.32,1.314440,266916,12940
1640.27,1.315612,259612,12552
1643.22,1.306871,251804,12422
1646.16,1.314547,244348,11843
1649.1,1.313733,236703,11494
1652.04,1.315449,228171,11036
1655.95,1.296314,215408,10888
1658.88,1.300135,204937,10268
1661.8,1.302188,193395,9644
1664.72,1.267039,179728,9718
1667.63,1.246675,163642,9273
1670.54,1.240742,146312,8405
1673.44,1.217646,128451,7782
1677.31,1.176298,105080,7002
1680.21,1.155071,88906,6221
1683.1,1.171703,75033,5053
1685.99,1.154063,63520,4455
1688.87,1.151334,53714,3791
1691.75,1.135333,45653,3343
1694.62,1.123207,39137,2947
1697.49,1.082537,33776,2793
1701.31,1.246015,28175,1599

File: Column 1_078755_20241121_172037.csv
Method:,Column 1,,
Host Date-Time:,21/11/24 @ 17:20:37,,
Header Version:,1,,
System Temp (C):,36.78,,
Detector Temp (C):,34.88,,
Humidity (%):,1.37,,
Lamp PD:,3798,,
Shift Vector Coefficients:,-10.5391,0.0761263,-0.000134223,,
Pixel to Wavelength Coefficients:,1775.68,-0.916766,-0.000235065,,
Serial Number:,5510004,,
Scan Config Name:,Column 1,,
Scan Config Type:,Slew,,
Section 1,,
Start wavelength (nm):,900,,
End wavelength (nm):,1700,,
Pattern Pixel Width (nm):,   7.03,,,,
Exposure (ms):,  0.635,,,,
Digital Resolution:,228,,
Num Repeats:,6,,
PGA Gain:,64,,
Total Measurement Time in sec:,  2.728,,
Wavelength (nm),Absorbance (AU),Reference Signal (unitless),Sample Signal (unitless)
901.51,1.328140,108485,5096
905.376,1.296280,121306,6132
909.237,1.318048,131909,6342
913.095,1.322459,143299,6820
916.948,1.317500,156982,7557
922.079,1.306121,179937,8892
925.923,1.310233,200504,9815
929.762,1.321395,222660,10623
933.597,1.321821,244426,11650
937.427,1.313162,263972,12835
941.254,1.319773,281845,13497
945.076,1.312234,297271,14485
950.165,1.303853,315605,15678
953.978,1.315527,328029,15863
957.786,1.304809,340470,16876
961.59,1.311531,352317,17195
965.389,1.317606,363056,17473
969.185,1.302058,373162,18614
972.976,1.304920,382632,18961
976.763,1.297560,391202,19717
981.806,1.310920,400190,19559
985.583,1.305792,406088,20083
989.355,1.300588,410162,20529
993.124,1.294855,412868,20939
996.888,1.305607,414263,20496
1000.65,1.303521,415476,20655
1004.4,1.306668,415479,20506
1009.41,1.306215,414358,20472
1013.15,1.298370,412923,20773
1016.89,1.299372,411526,20655
1020.63,1.307950,409066,20130
1024.36,1.305038,406777,20152
1028.09,1.308140,404427,19893
1031.82,1.300027,401911,20142
1036.78,1.303051,398410,19828
1040.49,1.298826,396204,19911
1044.2,1.300959,394236,19715
1047.91,1.298800,392042,19703
1051.61,1.297527,389823,19649
1055.31,1.315838,388234,18761
1059,1.316100,387599,18719
1063.92,1.306669,386688,19085
1067.61,1.308003,386598,19022
1071.29,1.304561,387377,19212
1074.96,1.306153,388536,19199
1078.63,1.309506,389855,19116
1082.3,1.310791,391215,19126
1085.96,1.300120,393215,19702
1090.84,1.309764,396270,19419
1094.49,1.314255,398760,19340
1098.14,1.307607,400987,19748
1101.79,1.311066,403477,19713
1105.43,1.310299,406116,19877
1109.06,1.306520,407701,20129
1112.7,1.314240,409859,19879
1117.53,1.318292,412494,19821
1121.15,1.317792,414909,19960
1124.77,1.314003,416559,20215
1128.38,1.309213,418532,20536
1131.99,1.312617,419956,20445
1135.6,1.302273,421946,21037
1139.2,1.315660,423881,20492
1143.99,1.318245,426786,20510
1147.58,1.314194,428617,20791
1151.17,1.315583,431169,20848
1154.75,1.318796,433579,20810
1158.33,1.311574,436264,21290
1161.91,1.308564,439132,21579
1165.48,1.306273,442389,21854
1169.04,1.314236,446101,21637
1173.79,1.305036,451929,22389
1177.34,1.312441,456026,22210
1180.9,1.313082,461306,22434
1184.44,1.309258,467657,22944
1187.99,1.314305,473969,22985
1191.52,1.319213,479856,23009
1195.06,1.316276,487372,23528
1199.76,1.317989,497347,23915
1203.29,1.315042,504311,24415
1206.81,1.314523,511507,24793
1210.33,1.310861,519078,25373
1213.84,1.313027,527163,25640
1217.35,1.324899,534208,25282
1220.85,1.316166,540472,26098
1225.51,1.315474,549929,26597
1229.01,1.321671,556888,26552
1232.5,1.314365,562180,27259
1235.98,1.314918,567975,27505
1239.46,1.321128,574815,27441
1242.94,1.320151,582782,27884
1246.41,1.315192,591476,28625
1251.03,1.324045,604016,28642
1254.5,1.323272,612289,29086
1257.96,1.322752,619125,29446
1261.41,1.325231,624551,29535
1264.86,1.320604,629900,30107
1268.31,1.318667,634345,30455
1271.75,1.323253,638574,30336
1276.33,1.323573,642499,30500
1279.76,1.324887,645905,30569
1283.19,1.328365,648307,30438
1286.61,1.321780,650446,31005
1290.03,1.322708,652132,31019
1293.44,1.326965,653907,30800
1296.85,1.322906,655963,31187
1301.39,1.325008,657349,31102
1304.8,1.325411,657558,31083
1308.19,1.322148,658515,31363
1311.58,1.328812,658804,30899
1314.97,1.324780,659011,31197
1318.36,1.326302,658272,31053
1321.73,1.327776,658022,30936
1326.23,1.326708,657870,31005
1329.6,1.323333,656482,31181
1332.97,1.330769,654926,30579
1336.33,1.327424,653727,30759
1339.69,1.327143,652497,30721
1343.04,1.322897,649913,30900
1346.39,1.319139,647671,31061
1349.73,1.323612,645338,30632
1354.18,1.324832,641175,30349
1357.52,1.324495,638376,30240
1360.85,1.321094,635805,30355
1364.17,1.323250,633413,30091
1367.49,1.320933,631026,30138
1370.81,1.325706,628050,29668
1374.12,1.320552,625034,29878
1378.54,1.327036,620272,29211
1381.84,1.323594,616892,29283
1385.14,1.322988,613613,29168
1388.43,1.322432,611526,29106
1391.72,1.323913,610663,28966
1395.01,1.329385,610634,28602
1398.29,1.321602,611700,29170
1402.66,1.316400,614051,29635
1405.93,1.327551,616268,28988
1409.2,1.324125,617795,29290
1412.46,1.330463,618872,28916
1415.72,1.322470,619795,29497
1418.98,1.326627,620495,29249
1422.23,1.321304,621087,29638
1426.56,1.329894,621375,29071
1429.8,1.325825,621616,29356
1433.04,1.326998,622129,29301
1436.27,1.328300,621526,29185
1439.5,1.331882,621113,28926
1442.72,1.332154,620921,28899
1445.94,1.329868,620270,29021
1450.23,1.327849,618860,29090
1453.44,1.333575,617697,28655
1456.64,1.329636,616264,28849
1459.85,1.328872,614413,28813
1463.04,1.327215,612307,28824
1466.24,1.330721,610032,28486
1469.43,1.332233,607345,28262
1473.67,1.334006,603789,27982
1476.85,1.326417,601175,28352
1480.02,1.331217,597737,27880
1483.19,1.324180,594479,28181
1486.36,1.332678,591232,27484
1489.52,1.334923,587853,27186
1492.68,1.335616,583875,26959
1496.89,1.332707,578062,26870
1500.03,1.329377,574159,26894
1503.18,1.333190,570285,26479
1506.32,1.333790,565444,26218
1509.45,1.337533,560571,25769
1512.58,1.334951,555821,25703
1515.71,1.333056,550344,25561
1519.87,1.335324,543983,25134
1522.99,1.330429,538764,25175
1526.1,1.337275,533692,24548
1529.21,1.334026,527902,24464
1532.32,1.326076,521886,24632
1535.42,1.324099,515888,24460
1538.51,1.327547,509987,23989
1541.6,1.338312,503936,23124
1545.72,1.323066,494694,23511
1548.8,1.325050,488378,23105
1551.88,1.329403,481832,22568
1554.95,1.329588,474989,22238
1558.02,1.324723,467818,22149
1561.08,1.326327,460730,21733
1564.15,1.334958,454170,21002
1568.22,1.328871,444181,20830
1571.27,1.327955,436947,20534
1574.32,1.324711,429598,20340
1577.36,1.327220,422039,19867
1580.4,1.335384,414375,19143
1583.43,1.326804,406354,19147
1586.46,1.329234,398475,18671
1590.49,1.326199,388982,18354
1593.51,1.322626,380708,18112
1596.53,1.316915,372727,17967
1599.54,1.314048,365060,17714
1602.55,1.316262,357543,17261
1605.55,1.320257,349495,16718
1608.55,1.317577,341154,16420
1612.54,1.329868,330877,15481
1615.53,1.312759,322904,15715
1618.51,1.309964,315116,15435
1621.49,1.319626,307217,14717
1624.47,1.317404,299481,14420
1627.44,1.318894,292112,14017
1630.41,1.316465,284245,13716
1634.36,1.320406,274079,13106
1637.32,1.310232,266916,13066
1640.27,1.307522,259612,12788
1643.22,1.305266,251804,12468
1646.16,1.305367,244348,12096
1649.1,1.311096,236703,11564
1652.04,1.296469,228171,11529
1655.95,1.305831,215408,10652
1658.88,1.277875,204937,10808
1661.8,1.281737,193395,10109
1664.72,1.295431,179728,9103
1667.63,1.245739,163642,9293
1670.54,1.238372,146312,8451
1673.44,1.216476,128451,7803
1677.31,1.170629,105080,7094
1680.21,1.169768,88906,6014
1683.1,1.153771,75033,5266
1685.99,1.173909,63520,4256
1688.87,1.104775,53714,4220
1691.75,1.181191,45653,3008
1694.62,1.087166,39137,3202
1697.49,1.150756,33776,2387
1701.31,1.164982,28175,1927

File: Column 1_078760_20241121_172051.csv
Method:,Column 1,,
Host Date-Time:,21/11/24 @ 17:20:51,,
Header Version:,1,,
System Temp (C):,36.86,,
Detector Temp (C):,35.01,,
Humidity (%):,1.22,,
Lamp PD:,3798,,
Shift Vector Coefficients:,-10.5391,0.0761263,-0.000134223,,
Pixel to Wavelength Coefficients:,1775.68,-0.916766,-0.000235065,,
Serial Number:,5510004,,
Scan Config Name:,Column 1,,
Scan Config Type:,Slew,,
Section 1,,
Start wavelength (nm):,900,,
End wavelength (nm):,1700,,
Pattern Pixel Width (nm):,   7.03,,,,
Exposure (ms):,  0.635,,,,
Digital Resolution:,228,,
Num Repeats:,6,,
PGA Gain:,64,,
Total Measurement Time in sec:,  2.726,,
Wavelength (nm),Absorbance (AU),Reference Signal (unitless),Sample Signal (unitless)
901.51,1.354762,108485,4793
905.376,1.366961,121306,5211
909.237,1.319970,131909,6314
913.095,1.319539,143299,6866
916.948,1.312529,156982,7644
922.079,1.313063,179937,8751
925.923,1.314904,200504,9710
929.762,1.333206,222660,10338
933.597,1.325641,244426,11548
937.427,1.326528,263972,12446
941.254,1.320482,281845,13475
945.076,1.313225,297271,14452
950.165,1.302305,315605,15734
953.978,1.313233,328029,15947
957.786,1.314411,340470,16507
961.59,1.315566,352317,17036
965.389,1.295534,363056,18384
969.185,1.305901,373162,18450
972.976,1.307977,382632,18828
976.763,1.302678,391202,19486
981.806,1.317317,400190,19273
985.583,1.305359,406088,20103
989.355,1.306938,410162,20231
993.124,1.316217,412868,19934
996.888,1.304485,414263,20549
1000.65,1.304342,415476,20616
1004.4,1.310882,415479,20308
1009.41,1.304543,414358,20551
1013.15,1.313235,412923,20074
1016.89,1.305598,411526,20361
1020.63,1.307475,409066,20152
1024.36,1.319055,406777,19512
1028.09,1.314739,404427,19593
1031.82,1.308277,401911,19763
1036.78,1.308984,398410,19559
1040.49,1.306639,396204,19556
1044.2,1.308290,394236,19385
1047.91,1.297370,392042,19768
1051.61,1.306798,389823,19234
1055.31,1.304279,388234,19267
1059,1.307236,387599,19105
1063.92,1.313388,386688,18792
1067.61,1.309055,386598,18976
1071.29,1.310021,387377,18972
1074.96,1.315320,388536,18798
1078.63,1.318203,389855,18737
1082.3,1.307692,391215,19263
1085.96,1.304907,393215,19486
1090.84,1.309429,396270,19434
1094.49,1.322553,398760,18974
1098.14,1.306180,400987,19813
1101.79,1.313208,403477,19616
1105.43,1.314647,406116,19679
1109.06,1.312428,407701,19857
1112.7,1.314655,409859,19860
1117.53,1.310583,412494,20176
1121.15,1.309132,414909,20362
1124.77,1.311838,416559,20316
1128.38,1.307524,418532,20616
1131.99,1.315793,419956,20296
1135.6,1.317568,421946,20309
1139.2,1.317358,423881,20412
1143.99,1.317631,426786,20539
1147.58,1.314236,428617,20789
1151.17,1.314127,431169,20918
1154.75,1.318129,433579,20842
1158.33,1.317696,436264,20992
1161.91,1.322719,439132,20887
1165.48,1.317262,442389,21308
1169.04,1.311974,446101,21750
1173.79,1.313319,451929,21966
1177.34,1.313087,456026,22177
1180.9,1.318184,461306,22172
1184.44,1.319040,467657,22433
1187.99,1.317663,473969,22808
1191.52,1.308899,479856,23562
1195.06,1.314231,487372,23639
1199.76,1.320229,497347,23792
1203.29,1.321295,504311,24066
1206.81,1.322406,511507,24347
1210.33,1.316893,519078,25023
1213.84,1.318155,527163,25339
1217.35,1.322347,534208,25431
1220.85,1.319021,540472,25927
1225.51,1.316651,549929,26525
1229.01,1.320674,556888,26613
1232.5,1.320769,562180,26860
1235.98,1.323529,567975,26965
1239.46,1.318540,574815,27605
1242.94,1.318084,582782,28017
1246.41,1.321596,591476,28206
1251.03,1.324743,604016,28596
1254.5,1.318329,612289,29419
1257.96,1.319534,619125,29665
1261.41,1.322461,624551,29724
1264.86,1.323034,629900,29939
1268.31,1.323326,634345,30130
1271.75,1.326472,638574,30112
1276.33,1.322094,642499,30604
1279.76,1.321731,645905,30792
1283.19,1.324345,648307,30721
1286.61,1.320549,650446,31093
1290.03,1.325390,652132,30828
1293.44,1.329227,653907,30640
1296.85,1.322099,655963,31245
1301.39,1.326294,657349,31010
1304.8,1.328538,657558,30860
1308.19,1.331286,658515,30710
1311.58,1.327058,658804,31024
1314.97,1.324070,659011,31248
1318.36,1.326722,658272,31023
1321.73,1.324894,658022,31142
1326.23,1.326764,657870,31001
1329.6,1.323388,656482,31177
1332.97,1.325686,654926,30939
1336.33,1.326057,653727,30856
1339.69,1.330364,652497,30494
1343.04,1.329140,649913,30459
1346.39,1.327425,647671,30474
1349.73,1.326599,645338,30422
1354.18,1.326208,641175,30253
1357.52,1.321290,638376,30464
1360.85,1.330758,635805,29687
1364.17,1.329794,633413,29641
1367.49,1.329402,631026,29556
1370.81,1.324799,628050,29730
1374.12,1.328044,625034,29367
1378.54,1.325729,620272,29299
1381.84,1.324514,616892,29221
1385.14,1.322378,613613,29209
1388.43,1.321419,611526,29174
1391.72,1.325219,610663,28879
1395.01,1.329096,610634,28621
1398.29,1.326603,611700,28836
1402.66,1.327532,614051,28885
1405.93,1.328241,616268,28942
1409.2,1.329947,617795,28900
1412.46,1.330508,618872,28913
1415.72,1.330120,619795,28982
1418.98,1.332021,620495,28888
1422.23,1.324584,621087,29415
1426.56,1.332681,621375,28885
1429.8,1.328303,621616,29189
1433.04,1.333689,622129,28853
1436.27,1.329835,621526,29082
1439.5,1.334276,621113,28767
1442.72,1.331013,620921,28975
1445.94,1.332375,620270,28854
1450.23,1.330484,618860,28914
1453.44,1.332682,617697,28714
1456.64,1.335578,616264,28457
1459.85,1.333113,614413,28533
1463.04,1.334003,612307,28377
1466.24,1.332080,610032,28397
1469.43,1.334374,607345,28123
1473.67,1.333386,603789,28022
1476.85,1.331688,601175,28010
1480.02,1.330470,597737,27928
1483.19,1.326792,594479,28012
1486.36,1.332757,591232,27479
1489.52,1.325037,587853,27812
1492.68,1.333767,583875,27074
1496.89,1.334634,578062,26751
1500.03,1.355260,574159,25338
1503.18,1.332109,570285,26545
1506.32,1.337633,565444,25987
1509.45,1.341172,560571,25554
1512.58,1.335458,555821,25673
1515.71,1.336091,550344,25383
1519.87,1.337038,543983,25035
1522.99,1.330895,538764,25148
1526.1,1.331755,533692,24862
1529.21,1.335662,527902,24372
1532.32,1.324053,521886,24747
1535.42,1.329566,515888,24154
1538.51,1.325758,509987,24088
1541.6,1.333067,503936,23405
1545.72,1.334141,494694,22919
1548.8,1.325652,488378,23073
1551.88,1.326965,481832,22695
1554.95,1.332488,474989,22090
1558.02,1.333177,467818,21722
1561.08,1.337131,460730,21199
1564.15,1.331333,454170,21178
1568.22,1.329288,444181,20810
1571.27,1.340421,436947,19953
1574.32,1.327582,429598,20206
1577.36,1.327373,422039,19860
1580.4,1.329323,414375,19412
1583.43,1.328896,406354,19055
1586.46,1.317756,398475,19171
1590.49,1.323957,388982,18449
1593.51,1.322003,380708,18138
1596.53,1.323418,372727,17700
1599.54,1.321216,365060,17424
1602.55,1.319014,357543,17152
1605.55,1.318856,349495,16772
1608.55,1.327638,341154,16044
1612.54,1.320021,330877,15836
1615.53,1.321271,322904,15410
1618.51,1.339264,315116,14428
1621.49,1.319892,307217,14708
1624.47,1.315841,299481,14472
1627.44,1.315315,292112,14133
1630.41,1.300732,284245,14222
1634.36,1.317532,274079,13193
1637.32,1.310165,266916,13068
1640.27,1.325728,259612,12263
1643.22,1.305789,251804,12453
1646.16,1.311623,244348,11923
1649.1,1.322164,236703,11273
1652.04,1.305259,228171,11298
1655.95,1.302379,215408,10737
1658.88,1.294754,204937,10396
1661.8,1.298779,193395,9720
1664.72,1.289414,179728,9230
1667.63,1.241461,163642,9385
1670.54,1.236270,146312,8492
1673.44,1.226498,128451,7625
1677.31,1.201647,105080,6605
1680.21,1.174195,88906,5953
1683.1,1.161090,75033,5178
1685.99,1.185072,63520,4148
1688.87,1.148593,53714,3815
1691.75,1.127225,45653,3406
1694.62,1.142492,39137,2819
1697.49,1.101284,33776,2675
1701.31,1.168831,28175,1910