Folder: textile_sorting_NIRSCAN_/ML/samples/unknown (part 86)

File: Column 1_078607_20241121_171101.csv
Method:,Column 1,,
Host Date-Time:,21/11/24 @ 17:11:1,,
Header Version:,1,,
System Temp (C):,37.08,,
Detector Temp (C):,35.01,,
Humidity (%):,0.98,,
Lamp PD:,3798,,
Shift Vector Coefficients:,-10.5391,0.0761263,-0.000134223,,
Pixel to Wavelength Coefficients:,1775.68,-0.916766,-0.000235065,,
Serial Number:,5510004,,
Scan Config Name:,Column 1,,
Scan Config Type:,Slew,,
Section 1,,
Start wavelength (nm):,900,,
End wavelength (nm):,1700,,
Pattern Pixel Width (nm):,   7.03,,,,
Exposure (ms):,  0.635,,,,
Digital Resolution:,228,,
Num Repeats:,6,,
PGA Gain:,64,,
Total Measurement Time in sec:,  2.706,,
Wavelength (nm),Absorbance (AU),Reference Signal (unitless),Sample Signal (unitless)
901.51,1.266140,108485,5878
905.376,1.272441,121306,6478
909.237,1.313484,131909,6409
913.095,1.318970,143299,6875
916.948,1.297289,156982,7917
922.079,1.304999,179937,8915
925.923,1.303123,200504,9977
929.762,1.309738,222660,10912
933.597,1.316670,244426,11789
937.427,1.315231,263972,12774
941.254,1.312308,281845,13731
945.076,1.314308,297271,14416
950.165,1.301533,315605,15762
953.978,1.296092,328029,16589
957.786,1.306744,340470,16801
961.59,1.290240,352317,18059
965.389,1.304556,363056,18006
969.185,1.300218,373162,18693
972.976,1.308000,382632,18827
976.763,1.303281,391202,19459
981.806,1.301519,400190,19987
985.583,1.300440,406088,20332
989.355,1.303368,410162,20398
993.124,1.300450,412868,20671
996.888,1.303915,414263,20576
1000.65,1.311585,415476,20275
1004.4,1.296930,415479,20971
1009.41,1.296461,414358,20937
1013.15,1.305112,412923,20453
1016.89,1.300868,411526,20584
1020.63,1.295592,409066,20711
1024.36,1.297814,406777,20490
1028.09,1.301897,404427,20181
1031.82,1.307728,401911,19788
1036.78,1.305181,398410,19731
1040.49,1.305419,396204,19611
1044.2,1.295900,394236,19946
1047.91,1.301697,392042,19572
1051.61,1.300432,389823,19518
1055.31,1.312241,388234,18917
1059,1.302713,387599,19305
1063.92,1.301061,386688,19333
1067.61,1.310522,386598,18912
1071.29,1.301386,387377,19353
1074.96,1.313199,388536,18890
1078.63,1.309802,389855,19103
1082.3,1.309205,391215,19196
1085.96,1.312620,393215,19143
1090.84,1.309362,396270,19437
1094.49,1.308965,398760,19577
1098.14,1.309458,400987,19664
1101.79,1.310120,403477,19756
1105.43,1.308076,406116,19979
1109.06,1.311620,407701,19894
1112.7,1.313127,409859,19930
1117.53,1.316521,412494,19902
1121.15,1.308770,414909,20379
1124.77,1.308537,416559,20471
1128.38,1.309848,418532,20506
1131.99,1.307632,419956,20681
1135.6,1.311305,421946,20604
1139.2,1.315257,423881,20511
1143.99,1.318435,426786,20501
1147.58,1.314110,428617,20795
1151.17,1.319749,431169,20649
1154.75,1.310876,433579,21193
1158.33,1.311737,436264,21282
1161.91,1.313502,439132,21335
1165.48,1.314762,442389,21431
1169.04,1.312893,446101,21704
1173.79,1.316713,451929,21795
1177.34,1.316310,456026,22013
1180.9,1.308404,461306,22677
1184.44,1.310225,467657,22893
1187.99,1.304590,473969,23505
1191.52,1.311487,479856,23422
1195.06,1.309717,487372,23886
1199.76,1.316937,497347,23973
1203.29,1.315255,504311,24403
1206.81,1.320555,511507,24451
1210.33,1.307978,519078,25542
1213.84,1.317282,527163,25390
1217.35,1.319013,534208,25627
1220.85,1.308006,540472,26593
1225.51,1.316815,549929,26515
1229.01,1.314629,556888,26986
1232.5,1.314573,562180,27246
1235.98,1.316198,567975,27424
1239.46,1.320954,574815,27452
1242.94,1.318969,582782,27960
1246.41,1.316757,591476,28522
1251.03,1.318306,604016,29023
1254.5,1.323332,612289,29082
1257.96,1.317679,619125,29792
1261.41,1.320086,624551,29887
1264.86,1.319811,629900,30162
1268.31,1.324163,634345,30072
1271.75,1.319263,638574,30616
1276.33,1.323359,642499,30515
1279.76,1.321519,645905,30807
1283.19,1.323696,648307,30767
1286.61,1.318361,650446,31250
1290.03,1.326081,652132,30779
1293.44,1.323510,653907,31046
1296.85,1.322655,655963,31205
1301.39,1.323641,657349,31200
1304.8,1.323696,657558,31206
1308.19,1.318865,658515,31601
1311.58,1.319674,658804,31556
1314.97,1.328976,659011,30897
1318.36,1.331635,658272,30674
1321.73,1.328873,658022,30858
1326.23,1.329026,657870,30840
1329.6,1.328418,656482,30818
1332.97,1.323153,654926,31120
1336.33,1.323951,653727,31006
1339.69,1.325591,652497,30831
1343.04,1.315718,649913,31415
1346.39,1.327981,647671,30435
1349.73,1.318552,645338,30991
1354.18,1.325405,641175,30309
1357.52,1.323849,638376,30285
1360.85,1.322426,635805,30262
1364.17,1.321838,633413,30189
1367.49,1.322232,631026,30048
1370.81,1.323181,628050,29841
1374.12,1.321250,625034,29830
1378.54,1.319957,620272,29691
1381.84,1.321301,616892,29438
1385.14,1.321784,613613,29249
1388.43,1.319103,611526,29330
1391.72,1.318504,610663,29329
1395.01,1.323248,610634,29009
1398.29,1.323377,611700,29051
1402.66,1.326271,614051,28969
1405.93,1.324164,616268,29215
1409.2,1.322940,617795,29370
1412.46,1.319942,618872,29625
1415.72,1.320560,619795,29627
1418.98,1.325974,620495,29293
1422.23,1.322536,621087,29554
1426.56,1.328417,621375,29170
1429.8,1.328839,621616,29153
1433.04,1.329436,622129,29137
1436.27,1.327274,621526,29254
1439.5,1.326896,621113,29260
1442.72,1.322317,620921,29561
1445.94,1.323968,620270,29418
1450.23,1.326567,618860,29176
1453.44,1.330539,617697,28856
1456.64,1.323270,616264,29275
1459.85,1.331654,614413,28629
1463.04,1.325516,612307,28937
1466.24,1.330996,610032,28468
1469.43,1.330530,607345,28373
1473.67,1.331129,603789,28168
1476.85,1.327644,601175,28272
1480.02,1.331919,597737,27835
1483.19,1.328750,594479,27886
1486.36,1.330126,591232,27646
1489.52,1.328234,587853,27608
1492.68,1.321853,583875,27827
1496.89,1.332982,578062,26853
1500.03,1.333596,574159,26634
1503.18,1.331194,570285,26601
1506.32,1.324466,565444,26787
1509.45,1.334292,560571,25962
1512.58,1.324055,555821,26356
1515.71,1.334469,550344,25478
1519.87,1.326430,543983,25654
1522.99,1.326975,538764,25376
1526.1,1.336779,533692,24576
1529.21,1.328978,527902,24750
1532.32,1.332721,521886,24258
1535.42,1.333468,515888,23938
1538.51,1.332078,509987,23740
1541.6,1.327041,503936,23732
1545.72,1.315485,494694,23925
1548.8,1.330117,488378,22837
1551.88,1.324238,481832,22838
1554.95,1.318806,474989,22797
1558.02,1.332278,467818,21767
1561.08,1.319113,460730,22097
1564.15,1.320219,454170,21727
1568.22,1.332934,444181,20636
1571.27,1.330012,436947,20437
1574.32,1.332228,429598,19991
1577.36,1.332676,422039,19619
1580.4,1.331049,414375,19335
1583.43,1.322673,406354,19330
1586.46,1.317439,398475,19185
1590.49,1.328809,388982,18244
1593.51,1.321883,380708,18143
1596.53,1.320922,372727,17802
1599.54,1.327240,365060,17184
1602.55,1.305969,357543,17675
1605.55,1.322392,349495,16636
1608.55,1.320656,341154,16304
1612.54,1.319692,330877,15848
1615.53,1.318490,322904,15509
1618.51,1.326627,315116,14854
1621.49,1.314755,307217,14883
1624.47,1.301438,299481,14960
1627.44,1.310943,292112,14276
1630.41,1.312839,284245,13831
1634.36,1.307156,274079,13512
1637.32,1.304355,266916,13244
1640.27,1.302625,259612,12933
1643.22,1.306417,251804,12435
1646.16,1.314804,244348,11836
1649.1,1.311697,236703,11548
1652.04,1.295415,228171,11557
1655.95,1.296274,215408,10889
1658.88,1.288244,204937,10553
1661.8,1.283200,193395,10075
1664.72,1.282320,179728,9382
1667.63,1.245552,163642,9297
1670.54,1.224813,146312,8719
1673.44,1.206245,128451,7989
1677.31,1.169650,105080,7110
1680.21,1.170418,88906,6005
1683.1,1.119225,75033,5702
1685.99,1.143565,63520,4564
1688.87,1.122954,53714,4047
1691.75,1.099323,45653,3632
1694.62,1.095381,39137,3142
1697.49,1.154777,33776,2365
1701.31,1.158495,28175,1956

File: Column 1_078608_20241121_171104.csv
Method:,Column 1,,
Host Date-Time:,21/11/24 @ 17:11:4,,
Header Version:,1,,
System Temp (C):,37.06,,
Detector Temp (C):,35.04,,
Humidity (%):,0.98,,
Lamp PD:,3797,,
Shift Vector Coefficients:,-10.5391,0.0761263,-0.000134223,,
Pixel to Wavelength Coefficients:,1775.68,-0.916766,-0.000235065,,
Serial Number:,5510004,,
Scan Config Name:,Column 1,,
Scan Config Type:,Slew,,
Section 1,,
Start wavelength (nm):,900,,
End wavelength (nm):,1700,,
Pattern Pixel Width (nm):,   7.03,,,,
Exposure (ms):,  0.635,,,,
Digital Resolution:,228,,
Num Repeats:,6,,
PGA Gain:,64,,
Total Measurement Time in sec:,  2.726,,
Wavelength (nm),Absorbance (AU),Reference Signal (unitless),Sample Signal (unitless)
901.51,1.291782,108485,5541
905.376,1.342022,121306,5519
909.237,1.310042,131909,6460
913.095,1.328551,143299,6725
916.948,1.307446,156982,7734
922.079,1.320925,179937,8594
925.923,1.312985,200504,9753
929.762,1.320456,222660,10646
933.597,1.312309,244426,11908
937.427,1.336267,263972,12170
941.254,1.320417,281845,13477
945.076,1.315998,297271,14360
950.165,1.310778,315605,15430
953.978,1.315171,328029,15876
957.786,1.310691,340470,16649
961.59,1.310144,352317,17250
965.389,1.313795,363056,17627
969.185,1.313859,373162,18115
972.976,1.311870,382632,18660
976.763,1.311140,391202,19110
981.806,1.308109,400190,19686
985.583,1.308438,406088,19961
989.355,1.305032,410162,20320
993.124,1.306479,412868,20386
996.888,1.310058,414263,20287
1000.65,1.303920,415476,20636
1004.4,1.304935,415479,20588
1009.41,1.312605,414358,20173
1013.15,1.306218,412923,20401
1016.89,1.306580,411526,20315
1020.63,1.314953,409066,19808
1024.36,1.310569,406777,19897
1028.09,1.307115,404427,19940
1031.82,1.308871,401911,19736
1036.78,1.313470,398410,19358
1040.49,1.300290,396204,19844
1044.2,1.305878,394236,19493
1047.91,1.297546,392042,19760
1051.61,1.307250,389823,19214
1055.31,1.302704,388234,19337
1059,1.297925,387599,19519
1063.92,1.309064,386688,18980
1067.61,1.305000,386598,19154
1071.29,1.316641,387377,18685
1074.96,1.312487,388536,18921
1078.63,1.298248,389855,19618
1082.3,1.307624,391215,19266
1085.96,1.309455,393215,19283
1090.84,1.303261,396270,19712
1094.49,1.308079,398760,19617
1098.14,1.309967,400987,19641
1101.79,1.316341,403477,19475
1105.43,1.308664,406116,19952
1109.06,1.308596,407701,20033
1112.7,1.317728,409859,19720
1117.53,1.310023,412494,20202
1121.15,1.321639,414909,19784
1124.77,1.318994,416559,19984
1128.38,1.310844,418532,20459
1131.99,1.318972,419956,20148
1135.6,1.315818,421946,20391
1139.2,1.325715,423881,20023
1143.99,1.314345,426786,20695
1147.58,1.315219,428617,20742
1151.17,1.321392,431169,20571
1154.75,1.313239,433579,21078
1158.33,1.313557,436264,21193
1161.91,1.319199,439132,21057
1165.48,1.319694,442389,21189
1169.04,1.311874,446101,21755
1173.79,1.313359,451929,21964
1177.34,1.312031,456026,22231
1180.9,1.315606,461306,22304
1184.44,1.306278,467657,23102
1187.99,1.312307,473969,23091
1191.52,1.317292,479856,23111
1195.06,1.316978,487372,23490
1199.76,1.316466,497347,23999
1203.29,1.315380,504311,24396
1206.81,1.315663,511507,24728
1210.33,1.322553,519078,24699
1213.84,1.321943,527163,25119
1217.35,1.321136,534208,25502
1220.85,1.321221,540472,25796
1225.51,1.319674,549929,26341
1229.01,1.325333,556888,26329
1232.5,1.319929,562180,26912
1235.98,1.322339,567975,27039
1239.46,1.321635,574815,27409
1242.94,1.318053,582782,28019
1246.41,1.320120,591476,28302
1251.03,1.324698,604016,28599
1254.5,1.319511,612289,29339
1257.96,1.325281,619125,29275
1261.41,1.322855,624551,29697
1264.86,1.321196,629900,30066
1268.31,1.320310,634345,30340
1271.75,1.325204,638574,30200
1276.33,1.326846,642499,30271
1279.76,1.324916,645905,30567
1283.19,1.327182,648307,30521
1286.61,1.321653,650446,31014
1290.03,1.329438,652132,30542
1293.44,1.326148,653907,30858
1296.85,1.326682,655963,30917
1301.39,1.322016,657349,31317
1304.8,1.321641,657558,31354
1308.19,1.327120,658515,31006
1311.58,1.322297,658804,31366
1314.97,1.337163,659011,30320
1318.36,1.332088,658272,30642
1321.73,1.329295,658022,30828
1326.23,1.329519,657870,30805
1329.6,1.331984,656482,30566
1332.97,1.328389,654926,30747
1336.33,1.330144,653727,30567
1339.69,1.325056,652497,30869
1343.04,1.328399,649913,30511
1346.39,1.322465,647671,30824
1349.73,1.325188,645338,30521
1354.18,1.326424,641175,30238
1357.52,1.327261,638376,30048
1360.85,1.322355,635805,30267
1364.17,1.323525,633413,30072
1367.49,1.322159,631026,30053
1370.81,1.326145,628050,29638
1374.12,1.328207,625034,29356
1378.54,1.323866,620272,29425
1381.84,1.328051,616892,28984
1385.14,1.322824,613613,29179
1388.43,1.325577,611526,28896
1391.72,1.317041,610663,29428
1395.01,1.326660,610634,28782
1398.29,1.321483,611700,29178
1402.66,1.325507,614051,29020
1405.93,1.327656,616268,28981
1409.2,1.328147,617795,29020
1412.46,1.323121,618872,29409
1415.72,1.325440,619795,29296
1418.98,1.328159,620495,29146
1422.23,1.330365,621087,29026
1426.56,1.331930,621375,28935
1429.8,1.327753,621616,29226
1433.04,1.335137,622129,28757
1436.27,1.330298,621526,29051
1439.5,1.332814,621113,28864
1442.72,1.334701,620921,28730
1445.94,1.330827,620270,28957
1450.23,1.322817,618860,29429
1453.44,1.324902,617697,29233
1456.64,1.324280,616264,29207
1459.85,1.332398,614413,28580
1463.04,1.326207,612307,28891
1466.24,1.331820,610032,28414
1469.43,1.331312,607345,28322
1473.67,1.334814,603789,27930
1476.85,1.333272,601175,27908
1480.02,1.332887,597737,27773
1483.19,1.338038,594479,27296
1486.36,1.333026,591232,27462
1489.52,1.332280,587853,27352
1492.68,1.334008,583875,27059
1496.89,1.327789,578062,27176
1500.03,1.331432,574159,26767
1503.18,1.339069,570285,26123
1506.32,1.335782,565444,26098
1509.45,1.341172,560571,25554
1512.58,1.329628,555821,26020
1515.71,1.333447,550344,25538
1519.87,1.328994,543983,25503
1522.99,1.334485,538764,24941
1526.1,1.334154,533692,24725
1529.21,1.338899,527902,24191
1532.32,1.329741,521886,24425
1535.42,1.331314,515888,24057
1538.51,1.328072,509987,23960
1541.6,1.331622,503936,23483
1545.72,1.328119,494694,23239
1548.8,1.332348,488378,22720
1551.88,1.342590,481832,21893
1554.95,1.333117,474989,22058
1558.02,1.331780,467818,21792
1561.08,1.331695,460730,21466
1564.15,1.335848,454170,20959
1568.22,1.325548,444181,20990
1571.27,1.330139,436947,20431
1574.32,1.326273,429598,20267
1577.36,1.328863,422039,19792
1580.4,1.328184,414375,19463
1583.43,1.324948,406354,19229
1586.46,1.331964,398475,18554
1590.49,1.321071,388982,18572
1593.51,1.323658,380708,18069
1596.53,1.333169,372727,17307
1599.54,1.329063,365060,17112
1602.55,1.317850,357543,17198
1605.55,1.327962,349495,16424
1608.55,1.325936,341154,16107
1612.54,1.319227,330877,15865
1615.53,1.322428,322904,15369
1618.51,1.318144,315116,15147
1621.49,1.315105,307217,14871
1624.47,1.332075,299481,13941
1627.44,1.323943,292112,13855
1630.41,1.318592,284245,13649
1634.36,1.316152,274079,13235
1637.32,1.315583,266916,12906
1640.27,1.327574,259612,12211
1643.22,1.327161,251804,11855
1646.16,1.314767,244348,11837
1649.1,1.308102,236703,11644
1652.04,1.302691,228171,11365
1655.95,1.319624,215408,10319
1658.88,1.297394,204937,10333
1661.8,1.263028,193395,10554
1664.72,1.264543,179728,9774
1667.63,1.251099,163642,9179
1670.54,1.228917,146312,8637
1673.44,1.229814,128451,7567
1677.31,1.213309,105080,6430
1680.21,1.184008,88906,5820
1683.1,1.161090,75033,5178
1685.99,1.156409,63520,4431
1688.87,1.126510,53714,4014
1691.75,1.144656,45653,3272
1694.62,1.161063,39137,2701
1697.49,1.187174,33776,2195
1701.31,1.166111,28175,1922

File: Column 1_078610_20241121_171110.csv
Method:,Column 1,,
Host Date-Time:,21/11/24 @ 17:11:10,,
Header Version:,1,,
System Temp (C):,36.94,,
Detector Temp (C):,35.09,,
Humidity (%):,0.88,,
Lamp PD:,3798,,
Shift Vector Coefficients:,-10.5391,0.0761263,-0.000134223,,
Pixel to Wavelength Coefficients:,1775.68,-0.916766,-0.000235065,,
Serial Number:,5510004,,
Scan Config Name:,Column 1,,
Scan Config Type:,Slew,,
Section 1,,
Start wavelength (nm):,900,,
End wavelength (nm):,1700,,
Pattern Pixel Width (nm):,   7.03,,,,
Exposure (ms):,  0.635,,,,
Digital Resolution:,228,,
Num Repeats:,6,,
PGA Gain:,64,,
Total Measurement Time in sec:,  2.728,,
Wavelength (nm),Absorbance (AU),Reference Signal (unitless),Sample Signal (unitless)
901.51,1.293116,108485,5524
905.376,1.321579,121306,5785
909.237,1.319351,131909,6323
913.095,1.302302,143299,7144
916.948,1.343980,156982,7110
922.079,1.308816,179937,8837
925.923,1.316741,200504,9669
929.762,1.308903,222660,10933
933.597,1.314759,244426,11841
937.427,1.315163,263972,12776
941.254,1.323197,281845,13391
945.076,1.302246,297271,14822
950.165,1.308672,315605,15505
953.978,1.309437,328029,16087
957.786,1.312390,340470,16584
961.59,1.303945,352317,17498
965.389,1.301288,363056,18142
969.185,1.302735,373162,18585
972.976,1.309873,382632,18746
976.763,1.300655,391202,19577
981.806,1.304746,400190,19839
985.583,1.309331,406088,19920
989.355,1.311773,410162,20007
993.124,1.307119,412868,20356
996.888,1.302167,414263,20659
1000.65,1.310259,415476,20337
1004.4,1.305463,415479,20563
1009.41,1.300504,414358,20743
1013.15,1.299312,412923,20728
1016.89,1.300530,411526,20600
1020.63,1.297926,409066,20600
1024.36,1.313262,406777,19774
1028.09,1.298617,404427,20334
1031.82,1.309598,401911,19703
1036.78,1.302810,398410,19839
1040.49,1.310498,396204,19383
1044.2,1.301026,394236,19712
1047.91,1.303744,392042,19480
1051.61,1.309698,389823,19106
1055.31,1.303064,388234,19321
1059,1.307668,387599,19086
1063.92,1.318993,386688,18551
1067.61,1.306613,386598,19083
1071.29,1.305602,387377,19166
1074.96,1.312740,388536,18910
1078.63,1.302878,389855,19410
1082.3,1.307083,391215,19290
1085.96,1.305309,393215,19468
1090.84,1.309943,396270,19411
1094.49,1.318022,398760,19173
1098.14,1.313965,400987,19461
1101.79,1.313297,403477,19612
1105.43,1.308490,406116,19960
1109.06,1.308271,407701,20048
1112.7,1.311865,409859,19988
1117.53,1.314105,412494,20013
1121.15,1.314973,414909,20090
1124.77,1.318842,416559,19991
1128.38,1.311482,418532,20429
1131.99,1.308726,419956,20629
1135.6,1.315435,421946,20409
1139.2,1.317805,423881,20391
1143.99,1.313841,426786,20719
1147.58,1.315491,428617,20729
1151.17,1.311065,431169,21066
1154.75,1.310753,433579,21199
1158.33,1.319582,436264,20901
1161.91,1.320479,439132,20995
1165.48,1.315675,442389,21386
1169.04,1.313394,446101,21679
1173.79,1.318430,451929,21709
1177.34,1.316903,456026,21983
1180.9,1.318537,461306,22154
1184.44,1.317243,467657,22526
1187.99,1.308804,473969,23278
1191.52,1.319175,479856,23011
1195.06,1.314581,487372,23620
1199.76,1.312216,497347,24235
1203.29,1.314135,504311,24466
1206.81,1.313752,511507,24837
1210.33,1.322131,519078,24723
1213.84,1.318018,527163,25347
1217.35,1.314645,534208,25886
1220.85,1.318101,540472,25982
1225.51,1.316013,549929,26564
1229.01,1.315145,556888,26954
1232.5,1.316938,562180,27098
1235.98,1.317467,567975,27344
1239.46,1.320385,574815,27488
1242.94,1.319109,582782,27951
1246.41,1.315252,591476,28621
1251.03,1.318037,604016,29041
1254.5,1.324514,612289,29003
1257.96,1.321059,619125,29561
1261.41,1.319679,624551,29915
1264.86,1.318992,629900,30219
1268.31,1.319738,634345,30380
1271.75,1.323740,638574,30302
1276.33,1.328369,642499,30165
1279.76,1.334483,645905,29901
1283.19,1.330152,648307,30313
1286.61,1.319976,650446,31134
1290.03,1.325418,652132,30826
1293.44,1.322881,653907,31091
1296.85,1.325504,655963,31001
1301.39,1.327852,657349,30899
1304.8,1.320548,657558,31433
1308.19,1.324592,658515,31187
1311.58,1.325354,658804,31146
1314.97,1.325449,659011,31149
1318.36,1.329700,658272,30811
1321.73,1.326641,658022,31017
1326.23,1.326526,657870,31018
1329.6,1.324756,656482,31079
1332.97,1.327980,654926,30776
1336.33,1.327933,653727,30723
1339.69,1.324381,652497,30917
1343.04,1.325689,649913,30702
1346.39,1.329597,647671,30322
1349.73,1.328875,645338,30263
1354.18,1.325806,641175,30281
1357.52,1.319795,638376,30569
1360.85,1.325393,635805,30056
1364.17,1.324276,633413,30020
1367.49,1.321380,631026,30107
1370.81,1.328865,628050,29453
1374.12,1.319304,625034,29964
1378.54,1.323999,620272,29416
1381.84,1.319769,616892,29542
1385.14,1.327613,613613,28859
1388.43,1.320497,611526,29236
1391.72,1.327345,610663,28738
1395.01,1.320235,610634,29211
1398.29,1.324530,611700,28974
1402.66,1.322390,614051,29229
1405.93,1.329142,616268,28882
1409.2,1.328177,617795,29018
1412.46,1.324600,618872,29309
1415.72,1.331215,619795,28909
1418.98,1.326598,620495,29251
1422.23,1.330919,621087,28989
1426.56,1.329237,621375,29115
1429.8,1.333783,621616,28823
1433.04,1.333991,622129,28833
1436.27,1.329910,621526,29077
1439.5,1.327803,621113,29199
1442.72,1.329487,620921,29077
1445.94,1.334699,620270,28700
1450.23,1.326165,618860,29203
1453.44,1.323463,617697,29330
1456.64,1.328538,616264,28922
1459.85,1.331124,614413,28664
1463.04,1.329966,612307,28642
1466.24,1.331713,610032,28421
1469.43,1.330944,607345,28346
1473.67,1.328087,603789,28366
1476.85,1.327752,601175,28265
1480.02,1.328283,597737,28069
1483.19,1.332881,594479,27622
1486.36,1.336822,591232,27223
1489.52,1.328014,587853,27622
1492.68,1.333174,583875,27111
1496.89,1.328205,578062,27150
1500.03,1.333579,574159,26635
1503.18,1.338653,570285,26148
1506.32,1.329619,565444,26471
1509.45,1.338360,560571,25720
1512.58,1.331618,555821,25901
1515.71,1.335015,550344,25446
1519.87,1.335479,543983,25125
1522.99,1.329998,538764,25200
1526.1,1.336974,533692,24565
1529.21,1.325465,527902,24951
1532.32,1.333043,521886,24240
1535.42,1.324117,515888,24459
1538.51,1.330508,509987,23826
1541.6,1.326584,503936,23757
1545.72,1.331628,494694,23052
1548.8,1.331927,488378,22742
1551.88,1.329210,481832,22578
1554.95,1.332272,474989,22101
1558.02,1.323020,467818,22236
1561.08,1.328892,460730,21605
1564.15,1.329063,454170,21289
1568.22,1.330333,444181,20760
1571.27,1.330543,436947,20412
1574.32,1.324434,429598,20353
1577.36,1.328534,422039,19807
1580.4,1.330533,414375,19358
1583.43,1.327326,406354,19124
1586.46,1.328629,398475,18697
1590.49,1.326743,388982,18331
1593.51,1.317501,380708,18327
1596.53,1.323958,372727,17678
1599.54,1.316063,365060,17632
1602.55,1.307224,357543,17624
1605.55,1.320127,349495,16723
1608.55,1.324402,341154,16164
1612.54,1.332033,330877,15404
1615.53,1.326060,322904,15241
1618.51,1.322872,315116,14983
1621.49,1.311991,307217,14978
1624.47,1.310117,299481,14664
1627.44,1.312039,292112,14240
1630.41,1.317861,284245,13672
1634.36,1.304113,274079,13607
1637.32,1.321990,266916,12717
1640.27,1.306606,259612,12815
1643.22,1.312112,251804,12273
1646.16,1.311805,244348,11918
1649.1,1.311622,236703,11550
1652.04,1.315842,228171,11026
1655.95,1.300804,215408,10776
1658.88,1.288368,204937,10550
1661.8,1.278911,193395,10175
1664.72,1.249307,179728,10123
1667.63,1.244246,163642,9325
1670.54,1.219073,146312,8835
1673.44,1.197580,128451,8150
1677.31,1.170323,105080,7099
1680.21,1.148558,88906,6315
1683.1,1.148362,75033,5332
1685.99,1.148349,63520,4514
1688.87,1.169942,53714,3632
1691.75,1.125951,45653,3416
1694.62,1.168850,39137,2653
1697.49,1.089750,33776,2747
1701.31,1.240081,28175,1621