Folder: textile_sorting_NIRSCAN_/ML/samples/unknown (part 113)

File: Column 1_078818_20241121_172339.csv
Method:,Column 1,,
Host Date-Time:,21/11/24 @ 17:23:39,,
Header Version:,1,,
System Temp (C):,37.02,,
Detector Temp (C):,35.45,,
Humidity (%):,0.98,,
Lamp PD:,3797,,
Shift Vector Coefficients:,-10.5391,0.0761263,-0.000134223,,
Pixel to Wavelength Coefficients:,1775.68,-0.916766,-0.000235065,,
Serial Number:,5510004,,
Scan Config Name:,Column 1,,
Scan Config Type:,Slew,,
Section 1,,
Start wavelength (nm):,900,,
End wavelength (nm):,1700,,
Pattern Pixel Width (nm):,   7.03,,,,
Exposure (ms):,  0.635,,,,
Digital Resolution:,228,,
Num Repeats:,6,,
PGA Gain:,64,,
Total Measurement Time in sec:,  2.727,,
Wavelength (nm),Absorbance (AU),Reference Signal (unitless),Sample Signal (unitless)
901.51,1.329164,108485,5084
905.376,1.312736,121306,5904
909.237,1.320039,131909,6313
913.095,1.332313,143299,6667
916.948,1.341180,156982,7156
922.079,1.326059,179937,8493
925.923,1.332567,200504,9323
929.762,1.313616,222660,10815
933.597,1.324589,244426,11576
937.427,1.327716,263972,12412
941.254,1.333170,281845,13087
945.076,1.312504,297271,14476
950.165,1.316644,315605,15223
953.978,1.313233,328029,15947
957.786,1.316309,340470,16435
961.59,1.315949,352317,17021
965.389,1.318104,363056,17453
969.185,1.321941,373162,17781
972.976,1.321067,382632,18269
976.763,1.302612,391202,19489
981.806,1.314151,400190,19414
985.583,1.304022,406088,20165
989.355,1.313143,410162,19944
993.124,1.307888,412868,20320
996.888,1.311946,414263,20199
1000.65,1.313948,415476,20165
1004.4,1.303587,415479,20652
1009.41,1.308982,414358,20342
1013.15,1.304009,412923,20505
1016.89,1.303577,411526,20456
1020.63,1.303784,409066,20324
1024.36,1.302503,406777,20270
1028.09,1.311977,404427,19718
1031.82,1.302384,401911,20033
1036.78,1.309806,398410,19522
1040.49,1.303298,396204,19707
1044.2,1.300717,394236,19726
1047.91,1.310824,392042,19165
1051.61,1.314865,389823,18880
1055.31,1.301247,388234,19402
1059,1.317215,387599,18671
1063.92,1.306123,386688,19109
1067.61,1.316185,386598,18667
1071.29,1.318434,387377,18608
1074.96,1.318589,388536,18657
1078.63,1.320714,389855,18629
1082.3,1.314600,391215,18959
1085.96,1.304440,393215,19507
1090.84,1.316367,396270,19126
1094.49,1.319542,398760,19106
1098.14,1.317843,400987,19288
1101.79,1.317614,403477,19418
1105.43,1.311240,406116,19834
1109.06,1.316847,407701,19656
1112.7,1.318587,409859,19681
1117.53,1.321348,412494,19682
1121.15,1.312731,414909,20194
1124.77,1.326358,416559,19648
1128.38,1.319549,418532,20053
1131.99,1.309969,419956,20570
1135.6,1.317697,421946,20303
1139.2,1.314961,423881,20525
1143.99,1.323528,426786,20262
1147.58,1.321886,428617,20426
1151.17,1.310447,431169,21096
1154.75,1.315656,433579,20961
1158.33,1.319312,436264,20914
1161.91,1.314215,439132,21300
1165.48,1.304528,442389,21942
1169.04,1.320768,446101,21314
1173.79,1.311780,451929,22044
1177.34,1.310821,456026,22293
1180.9,1.321507,461306,22003
1184.44,1.314706,467657,22658
1187.99,1.313494,473969,23028
1191.52,1.313513,479856,23313
1195.06,1.317255,487372,23475
1199.76,1.314336,497347,24117
1203.29,1.323774,504311,23929
1206.81,1.321213,511507,24414
1210.33,1.323433,519078,24649
1213.84,1.321493,527163,25145
1217.35,1.320609,534208,25533
1220.85,1.323026,540472,25689
1225.51,1.324632,549929,26042
1229.01,1.327831,556888,26178
1232.5,1.316986,562180,27095
1235.98,1.319393,567975,27223
1239.46,1.319186,574815,27564
1242.94,1.322964,582782,27704
1246.41,1.319062,591476,28371
1251.03,1.325214,604016,28565
1254.5,1.320801,612289,29252
1257.96,1.322944,619125,29433
1261.41,1.325584,624551,29511
1264.86,1.324153,629900,29862
1268.31,1.325711,634345,29965
1271.75,1.324543,638574,30246
1276.33,1.327118,642499,30252
1279.76,1.324277,645905,30612
1283.19,1.324317,648307,30723
1286.61,1.325352,650446,30751
1290.03,1.329609,652132,30530
1293.44,1.324112,653907,31003
1296.85,1.322474,655963,31218
1301.39,1.324673,657349,31126
1304.8,1.323835,657558,31196
1308.19,1.324258,658515,31211
1311.58,1.324156,658804,31232
1314.97,1.324488,659011,31218
1318.36,1.328152,658272,30921
1321.73,1.332562,658022,30597
1326.23,1.328041,657870,30910
1329.6,1.326548,656482,30951
1332.97,1.326867,654926,30855
1336.33,1.323727,653727,31022
1339.69,1.330777,652497,30465
1343.04,1.333914,649913,30126
1346.39,1.328838,647671,30375
1349.73,1.328316,645338,30302
1354.18,1.323846,641175,30418
1357.52,1.322732,638376,30363
1360.85,1.329458,635805,29776
1364.17,1.328536,633413,29727
1367.49,1.331109,631026,29440
1370.81,1.324522,628050,29749
1374.12,1.327911,625034,29376
1378.54,1.325744,620272,29298
1381.84,1.321301,616892,29438
1385.14,1.324689,613613,29054
1388.43,1.325923,611526,28873
1391.72,1.320107,610663,29221
1395.01,1.326223,610634,28811
1398.29,1.327840,611700,28754
1402.66,1.330080,614051,28716
1405.93,1.328451,616268,28928
1409.2,1.328686,617795,28984
1412.46,1.329682,618872,28968
1415.72,1.332358,619795,28833
1418.98,1.329861,620495,29032
1422.23,1.325766,621087,29335
1426.56,1.328462,621375,29167
1429.8,1.328973,621616,29144
1433.04,1.331467,622129,29001
1436.27,1.332847,621526,28881
1439.5,1.329173,621113,29107
1442.72,1.329009,620921,29109
1445.94,1.339308,620270,28397
1450.23,1.331462,618860,28849
1453.44,1.332243,617697,28743
1456.64,1.332385,616264,28667
1459.85,1.328706,614413,28824
1463.04,1.330224,612307,28625
1466.24,1.329899,610032,28540
1469.43,1.328484,607345,28507
1473.67,1.327659,603789,28394
1476.85,1.334316,601175,27841
1480.02,1.334956,597737,27641
1483.19,1.332394,594479,27653
1486.36,1.333976,591232,27402
1489.52,1.332280,587853,27352
1492.68,1.332502,583875,27153
1496.89,1.336359,578062,26645
1500.03,1.335410,574159,26523
1503.18,1.343430,570285,25862
1506.32,1.335117,565444,26138
1509.45,1.331308,560571,26141
1512.58,1.333147,555821,25810
1515.71,1.333668,550344,25525
1519.87,1.325855,543983,25688
1522.99,1.342286,538764,24497
1526.1,1.327980,533692,25079
1529.21,1.330015,527902,24691
1532.32,1.333007,521886,24242
1535.42,1.330268,515888,24115
1538.51,1.329379,509987,23888
1541.6,1.332677,503936,23426
1545.72,1.335869,494694,22828
1548.8,1.335051,488378,22579
1551.88,1.334766,481832,22291
1554.95,1.328749,474989,22281
1558.02,1.336146,467818,21574
1561.08,1.328169,460730,21641
1564.15,1.325366,454170,21471
1568.22,1.329267,444181,20811
1571.27,1.320553,436947,20887
1574.32,1.334668,429598,19879
1577.36,1.342844,422039,19165
1580.4,1.336224,414375,19106
1583.43,1.335487,406354,18768
1586.46,1.331566,398475,18571
1590.49,1.328167,388982,18271
1593.51,1.324476,380708,18035
1596.53,1.323025,372727,17716
1599.54,1.322689,365060,17365
1602.55,1.332671,357543,16621
1605.55,1.324774,349495,16545
1608.55,1.321003,341154,16291
1612.54,1.325208,330877,15648
1615.53,1.330355,322904,15091
1618.51,1.325751,315116,14884
1621.49,1.312833,307217,14949
1624.47,1.316682,299481,14444
1627.44,1.319483,292112,13998
1630.41,1.320441,284245,13591
1634.36,1.320074,274079,13116
1637.32,1.312866,266916,12987
1640.27,1.331647,259612,12097
1643.22,1.332283,251804,11716
1646.16,1.307779,244348,12029
1649.1,1.316690,236703,11416
1652.04,1.322711,228171,10853
1655.95,1.300724,215408,10778
1658.88,1.285373,204937,10623
1661.8,1.273482,193395,10303
1664.72,1.271531,179728,9618
1667.63,1.241507,163642,9384
1670.54,1.246987,146312,8285
1673.44,1.217312,128451,7788
1677.31,1.189650,105080,6790
1680.21,1.148558,88906,6315
1683.1,1.144228,75033,5383
1685.99,1.166423,63520,4330
1688.87,1.149847,53714,3804
1691.75,1.111695,45653,3530
1694.62,1.103896,39137,3081
1697.49,1.200637,33776,2128
1701.31,1.193627,28175,1804

File: Column 1_078821_20241121_172348.csv
Method:,Column 1,,
Host Date-Time:,21/11/24 @ 17:23:48,,
Header Version:,1,,
System Temp (C):,37.21,,
Detector Temp (C):,35.52,,
Humidity (%):,1.08,,
Lamp PD:,3797,,
Shift Vector Coefficients:,-10.5391,0.0761263,-0.000134223,,
Pixel to Wavelength Coefficients:,1775.68,-0.916766,-0.000235065,,
Serial Number:,5510004,,
Scan Config Name:,Column 1,,
Scan Config Type:,Slew,,
Section 1,,
Start wavelength (nm):,900,,
End wavelength (nm):,1700,,
Pattern Pixel Width (nm):,   7.03,,,,
Exposure (ms):,  0.635,,,,
Digital Resolution:,228,,
Num Repeats:,6,,
PGA Gain:,64,,
Total Measurement Time in sec:,  2.719,,
Wavelength (nm),Absorbance (AU),Reference Signal (unitless),Sample Signal (unitless)
901.51,1.311012,108485,5301
905.376,1.347884,121306,5445
909.237,1.320865,131909,6301
913.095,1.329521,143299,6710
916.948,1.330154,156982,7340
922.079,1.329293,179937,8430
925.923,1.338760,200504,9191
929.762,1.322050,222660,10607
933.597,1.316339,244426,11798
937.427,1.327821,263972,12409
941.254,1.324497,281845,13351
945.076,1.318485,297271,14278
950.165,1.321752,315605,15045
953.978,1.314160,328029,15913
957.786,1.318774,340470,16342
961.59,1.312290,352317,17165
965.389,1.308749,363056,17833
969.185,1.306985,373162,18404
972.976,1.305975,382632,18915
976.763,1.310981,391202,19117
981.806,1.302498,400190,19942
985.583,1.305748,406088,20085
989.355,1.303964,410162,20370
993.124,1.302830,412868,20558
996.888,1.304147,414263,20565
1000.65,1.305861,415476,20544
1004.4,1.299922,415479,20827
1009.41,1.310008,414358,20294
1013.15,1.313841,412923,20046
1016.89,1.308122,411526,20243
1020.63,1.310091,409066,20031
1024.36,1.306139,406777,20101
1028.09,1.309014,404427,19853
1031.82,1.311210,401911,19630
1036.78,1.303797,398410,19794
1040.49,1.310991,396204,19361
1044.2,1.300123,394236,19753
1047.91,1.310144,392042,19195
1051.61,1.305513,389823,19291
1055.31,1.306789,388234,19156
1059,1.295462,387599,19630
1063.92,1.316705,386688,18649
1067.61,1.305908,386598,19114
1071.29,1.317339,387377,18655
1074.96,1.304730,388536,19262
1078.63,1.313179,389855,18955
1082.3,1.303183,391215,19464
1085.96,1.301643,393215,19633
1090.84,1.315029,396270,19185
1094.49,1.308788,398760,19585
1098.14,1.315799,400987,19379
1101.79,1.316029,403477,19489
1105.43,1.313677,406116,19723
1109.06,1.324335,407701,19320
1112.7,1.311778,409859,19992
1117.53,1.327482,412494,19406
1121.15,1.310692,414909,20289
1124.77,1.309174,416559,20441
1128.38,1.322309,418532,19926
1131.99,1.315323,419956,20318
1135.6,1.314457,421946,20455
1139.2,1.312618,423881,20636
1143.99,1.325052,426786,20191
1147.58,1.315491,428617,20729
1151.17,1.319770,431169,20648
1154.75,1.311450,433579,21165
1158.33,1.305778,436264,21576
1161.91,1.316444,439132,21191
1165.48,1.313851,442389,21476
1169.04,1.314337,446101,21632
1173.79,1.316136,451929,21824
1177.34,1.316409,456026,22008
1180.9,1.310843,461306,22550
1184.44,1.315588,467657,22612
1187.99,1.317168,473969,22834
1191.52,1.315567,479856,23203
1195.06,1.324418,487372,23091
1199.76,1.319645,497347,23824
1203.29,1.313852,504311,24482
1206.81,1.320928,511507,24430
1210.33,1.322044,519078,24728
1213.84,1.313756,527163,25597
1217.35,1.320421,534208,25544
1220.85,1.319641,540472,25890
1225.51,1.319345,549929,26361
1229.01,1.323424,556888,26445
1232.5,1.318544,562180,26998
1235.98,1.320447,567975,27157
1239.46,1.315905,574815,27773
1242.94,1.317837,582782,28033
1246.41,1.317840,591476,28451
1251.03,1.318770,604016,28992
1254.5,1.320593,612289,29266
1257.96,1.325549,619125,29257
1261.41,1.324702,624551,29571
1264.86,1.325172,629900,29792
1268.31,1.321041,634345,30289
1271.75,1.320129,638574,30555
1276.33,1.324542,642499,30432
1279.76,1.322140,645905,30763
1283.19,1.324600,648307,30703
1286.61,1.325267,650446,30757
1290.03,1.330192,652132,30489
1293.44,1.327135,653907,30788
1296.85,1.325322,655963,31014
1301.39,1.328541,657349,30850
1304.8,1.324183,657558,31171
1308.19,1.325889,658515,31094
1311.58,1.327479,658804,30994
1314.97,1.329525,659011,30858
1318.36,1.326302,658272,31053
1321.73,1.327524,658022,30954
1326.23,1.332475,657870,30596
1329.6,1.329462,656482,30744
1332.97,1.325939,654926,30921
1336.33,1.331324,653727,30484
1339.69,1.329042,652497,30587
1343.04,1.323037,649913,30890
1346.39,1.334856,647671,29957
1349.73,1.325986,645338,30465
1354.18,1.324032,641175,30405
1357.52,1.323577,638376,30304
1360.85,1.328802,635805,29821
1364.17,1.330880,633413,29567
1367.49,1.324071,631026,29921
1370.81,1.328481,628050,29479
1374.12,1.323586,625034,29670
1378.54,1.325018,620272,29347
1381.84,1.323549,616892,29286
1385.14,1.325227,613613,29018
1388.43,1.328276,611526,28717
1391.72,1.325370,610663,28869
1395.01,1.330099,610634,28555
1398.29,1.324380,611700,28984
1402.66,1.324939,614051,29058
1405.93,1.323555,616268,29256
1409.2,1.326578,617795,29125
1412.46,1.327395,618872,29121
1415.72,1.328743,619795,29074
1418.98,1.327683,620495,29178
1422.23,1.330275,621087,29032
1426.56,1.327584,621375,29226
1429.8,1.329137,621616,29133
1433.04,1.331198,622129,29019
1436.27,1.332967,621526,28873
1439.5,1.330818,621113,28997
1442.72,1.328606,620921,29136
1445.94,1.329943,620270,29016
1450.23,1.333953,618860,28684
1453.44,1.331579,617697,28787
1456.64,1.333598,616264,28587
1459.85,1.333829,614413,28486
1463.04,1.330421,612307,28612
1466.24,1.333873,610032,28280
1469.43,1.330668,607345,28364
1473.67,1.331530,603789,28142
1476.85,1.332837,601175,27936
1480.02,1.331919,597737,27835
1483.19,1.323057,594479,28254
1486.36,1.332978,591232,27465
1489.52,1.329415,587853,27533
1492.68,1.338153,583875,26802
1496.89,1.334196,578062,26778
1500.03,1.327299,574159,27023
1503.18,1.333043,570285,26488
1506.32,1.336065,565444,26081
1509.45,1.335364,560571,25898
1512.58,1.338480,555821,25495
1515.71,1.336331,550344,25369
1519.87,1.331248,543983,25371
1522.99,1.329877,538764,25207
1526.1,1.325770,533692,25207
1529.21,1.333139,527902,24514
1532.32,1.331648,521886,24318
1535.42,1.337514,515888,23716
1538.51,1.333177,509987,23680
1541.6,1.334405,503936,23333
1545.72,1.337508,494694,22742
1548.8,1.324674,488378,23125
1551.88,1.339467,481832,22051
1554.95,1.331016,474989,22165
1558.02,1.324488,467818,22161
1561.08,1.332465,460730,21428
1564.15,1.331888,454170,21151
1568.22,1.327663,444181,20888
1571.27,1.324899,436947,20679
1574.32,1.324711,429598,20340
1577.36,1.322113,422039,20102
1580.4,1.338206,414375,19019
1583.43,1.331869,406354,18925
1586.46,1.329746,398475,18649
1590.49,1.326791,388982,18329
1593.51,1.329684,380708,17820
1596.53,1.333094,372727,17310
1599.54,1.332145,365060,16991
1602.55,1.323800,357543,16964
1605.55,1.327856,349495,16428
1608.55,1.320843,341154,16297
1612.54,1.333558,330877,15350
1615.53,1.328546,322904,15154
1618.51,1.316084,315116,15219
1621.49,1.314463,307217,14893
1624.47,1.312671,299481,14578
1627.44,1.329209,292112,13688
1630.41,1.316719,284245,13708
1634.36,1.318389,274079,13167
1637.32,1.326073,266916,12598
1640.27,1.313334,259612,12618
1643.22,1.315736,251804,12171
1646.16,1.312681,244348,11894
1649.1,1.316120,236703,11431
1652.04,1.318291,228171,10964
1655.95,1.311164,215408,10522
1658.88,1.297184,204937,10338
1661.8,1.271589,193395,10348
1664.72,1.271938,179728,9609
1667.63,1.256958,163642,9056
1670.54,1.242554,146312,8370
1673.44,1.211881,128451,7886
1677.31,1.190611,105080,6775
1680.21,1.134683,88906,6520
1683.1,1.119759,75033,5695
1685.99,1.168030,63520,4314
1688.87,1.143050,53714,3864
1691.75,1.148255,45653,3245
1694.62,1.152466,39137,2755
1697.49,1.175654,33776,2254
1701.31,1.232643,28175,1649

File: Column 1_078824_20241121_172356.csv
Method:,Column 1,,
Host Date-Time:,21/11/24 @ 17:23:56,,
Header Version:,1,,
System Temp (C):,37.4,,
Detector Temp (C):,35.58,,
Humidity (%):,1.13,,
Lamp PD:,3797,,
Shift Vector Coefficients:,-10.5391,0.0761263,-0.000134223,,
Pixel to Wavelength Coefficients:,1775.68,-0.916766,-0.000235065,,
Serial Number:,5510004,,
Scan Config Name:,Column 1,,
Scan Config Type:,Slew,,
Section 1,,
Start wavelength (nm):,900,,
End wavelength (nm):,1700,,
Pattern Pixel Width (nm):,   7.03,,,,
Exposure (ms):,  0.635,,,,
Digital Resolution:,228,,
Num Repeats:,6,,
PGA Gain:,64,,
Total Measurement Time in sec:,  2.726,,
Wavelength (nm),Absorbance (AU),Reference Signal (unitless),Sample Signal (unitless)
901.51,1.312160,108485,5287
905.376,1.302414,121306,6046
909.237,1.287766,131909,6800
913.095,1.323862,143299,6798
916.948,1.296686,156982,7928
922.079,1.326622,179937,8482
925.923,1.324903,200504,9489
929.762,1.331236,222660,10385
933.597,1.328811,244426,11464
937.427,1.324266,263972,12511
941.254,1.322776,281845,13404
945.076,1.317817,297271,14300
950.165,1.301781,315605,15753
953.978,1.322843,328029,15598
957.786,1.320798,340470,16266
961.59,1.319304,352317,16890
965.389,1.306418,363056,17929
969.185,1.304045,373162,18529
972.976,1.307101,382632,18866
976.763,1.306866,391202,19299
981.806,1.311942,400190,19513
985.583,1.306008,406088,20073
989.355,1.306145,410162,20268
993.124,1.311191,412868,20166
996.888,1.306689,414263,20445
1000.65,1.310793,415476,20312
1004.4,1.311631,415479,20273
1009.41,1.308641,414358,20358
1013.15,1.316035,412923,19945
1016.89,1.310101,411526,20151
1020.63,1.302973,409066,20362
1024.36,1.316325,406777,19635
1028.09,1.302307,404427,20162
1031.82,1.312140,401911,19588
1036.78,1.314773,398410,19300
1040.49,1.312002,396204,19316
1044.2,1.302792,394236,19632
1047.91,1.310824,392042,19165
1051.61,1.303581,389823,19377
1055.31,1.313851,388234,18847
1059,1.314965,387599,18768
1063.92,1.305873,386688,19120
1067.61,1.305431,386598,19135
1071.29,1.313237,387377,18832
1074.96,1.309536,388536,19050
1078.63,1.315200,389855,18867
1082.3,1.312885,391215,19034
1085.96,1.315305,393215,19025
1090.84,1.311602,396270,19337
1094.49,1.324940,398760,18870
1098.14,1.320101,400987,19188
1101.79,1.309176,403477,19799
1105.43,1.318504,406116,19505
1109.06,1.308574,407701,20034
1112.7,1.322199,409859,19518
1117.53,1.316674,412494,19895
1121.15,1.326806,414909,19550
1124.77,1.321894,416559,19851
1128.38,1.308452,418532,20572
1131.99,1.317444,419956,20219
1135.6,1.316650,421946,20352
1139.2,1.311148,423881,20706
1143.99,1.316659,426786,20585
1147.58,1.322205,428617,20411
1151.17,1.320443,431169,20616
1154.75,1.320532,433579,20727
1158.33,1.320560,436264,20854
1161.91,1.320169,439132,21010
1165.48,1.315736,442389,21383
1169.04,1.317116,446101,21494
1173.79,1.312667,451929,21999
1177.34,1.319260,456026,21864
1180.9,1.312425,461306,22468
1184.44,1.316319,467657,22574
1187.99,1.313682,473969,23018
1191.52,1.312378,479856,23374
1195.06,1.316405,487372,23521
1199.76,1.317263,497347,23955
1203.29,1.322523,504311,23998
1206.81,1.322852,511507,24322
1210.33,1.320308,519078,24827
1213.84,1.322600,527163,25081
1217.35,1.324024,534208,25333
1220.85,1.323415,540472,25666
1225.51,1.321293,549929,26243
1229.01,1.319208,556888,26703
1232.5,1.324618,562180,26623
1235.98,1.323352,567975,26976
1239.46,1.317268,574815,27686
1242.94,1.328978,582782,27323
1246.41,1.319553,591476,28339
1251.03,1.317887,604016,29051
1254.5,1.327458,612289,28807
1257.96,1.326068,619125,29222
1261.41,1.327782,624551,29362
1264.86,1.321601,629900,30038
1268.31,1.325233,634345,29998
1271.75,1.321924,638574,30429
1276.33,1.322392,642499,30583
1279.76,1.324376,645905,30605
1283.19,1.324402,648307,30717
1286.61,1.331912,650446,30290
1290.03,1.325320,652132,30833
1293.44,1.327530,653907,30760
1296.85,1.322293,655963,31231
1301.39,1.330135,657349,30737
1304.8,1.329651,657558,30781
1308.19,1.326420,658515,31056
1311.58,1.329473,658804,30852
1314.97,1.320679,659011,31493
1318.36,1.327380,658272,30976
1321.73,1.333087,658022,30560
1326.23,1.331766,657870,30646
1329.6,1.327503,656482,30883
1332.97,1.329663,654926,30657
1336.33,1.330983,653727,30508
1339.69,1.329368,652497,30564
1343.04,1.320668,649913,31059
1346.39,1.326784,647671,30519
1349.73,1.327514,645338,30358
1354.18,1.326668,641175,30221
1357.52,1.328158,638376,29986
1360.85,1.320036,635805,30429
1364.17,1.327908,633413,29770
1367.49,1.326560,631026,29750
1370.81,1.328732,628050,29462
1374.12,1.329807,625034,29248
1378.54,1.326085,620272,29275
1381.84,1.322867,616892,29332
1385.14,1.322527,613613,29199
1388.43,1.326495,611526,28835
1391.72,1.328965,610663,28631
1395.01,1.328429,610634,28665
1398.29,1.334691,611700,28304
1402.66,1.323372,614051,29163
1405.93,1.328707,616268,28911
1409.2,1.331211,617795,28816
1412.46,1.330959,618872,28883
1415.72,1.330240,619795,28974
1418.98,1.334493,620495,28724
1422.23,1.329857,621087,29060
1426.56,1.329476,621375,29099
1429.8,1.330511,621616,29041
1433.04,1.333509,622129,28865
1436.27,1.334565,621526,28767
1439.5,1.333582,621113,28813
1442.72,1.338557,620921,28476
1445.94,1.332224,620270,28864
1450.23,1.329989,618860,28947
1453.44,1.334303,617697,28607
1456.64,1.332188,616264,28680
1459.85,1.337119,614413,28271
1463.04,1.333574,612307,28405
1466.24,1.334488,610032,28240
1469.43,1.330530,607345,28373
1473.67,1.333138,603789,28038
1476.85,1.332806,601175,27938
1480.02,1.332294,597737,27811
1483.19,1.330404,594479,27780
1486.36,1.332504,591232,27495
1489.52,1.333536,587853,27273
1492.68,1.337602,583875,26836
1496.89,1.335252,578062,26713
1500.03,1.341776,574159,26137
1503.18,1.336384,570285,26285
1506.32,1.332516,565444,26295
1509.45,1.335364,560571,25898
1512.58,1.341626,555821,25311
1515.71,1.333311,550344,25546
1519.87,1.333685,543983,25229
1522.99,1.333806,538764,24980
1526.1,1.336214,533692,24608
1529.21,1.325709,527902,24937
1532.32,1.332399,521886,24276
1535.42,1.335942,515888,23802
1538.51,1.337583,509987,23441
1541.6,1.329022,503936,23624
1545.72,1.329879,494694,23145
1548.8,1.331870,488378,22745
1551.88,1.328192,481832,22631
1554.95,1.330761,474989,22178
1558.02,1.331959,467818,21783
1561.08,1.332728,460730,21415
1564.15,1.331354,454170,21177
1568.22,1.332850,444181,20640
1571.27,1.324312,436947,20707
1574.32,1.334646,429598,19880
1577.36,1.336746,422039,19436
1580.4,1.333844,414375,19211
1583.43,1.325038,406354,19225
1586.46,1.339043,398475,18254
1590.49,1.331771,388982,18120
1593.51,1.333183,380708,17677
1596.53,1.322633,372727,17732
1599.54,1.327013,365060,17193
1602.55,1.333011,357543,16608
1605.55,1.328385,349495,16408
1608.55,1.322632,341154,16230
1612.54,1.320405,330877,15822
1615.53,1.320511,322904,15437
1618.51,1.330887,315116,14709
1621.49,1.319066,307217,14736
1624.47,1.330489,299481,13992
1627.44,1.336150,292112,13471
1630.41,1.330691,284245,13274
1634.36,1.321135,274079,13084
1637.32,1.319402,266916,12793
1640.27,1.313231,259612,12621
1643.22,1.320400,251804,12041
1646.16,1.325652,244348,11544
1649.1,1.296001,236703,11973
1652.04,1.308074,228171,11225
1655.95,1.293293,215408,10964
1658.88,1.291011,204937,10486
1661.8,1.280108,193395,10147
1664.72,1.290498,179728,9207
1667.63,1.256144,163642,9073
1670.54,1.231894,146312,8578
1673.44,1.212542,128451,7874
1677.31,1.185196,105080,6860
1680.21,1.174779,88906,5945
1683.1,1.153771,75033,5266
1685.99,1.173603,63520,4259
1688.87,1.165185,53714,3672
1691.75,1.132872,45653,3362
1694.62,1.166565,39137,2667
1697.49,1.189554,33776,2183
1701.31,1.139808,28175,2042