Folder: textile_sorting_NIRSCAN_/ML/samples/unknown (part 93)

File: Column 1_078668_20241121_171625.csv
Method:,Column 1,,
Host Date-Time:,21/11/24 @ 17:16:25,,
Header Version:,1,,
System Temp (C):,34.51,,
Detector Temp (C):,35.52,,
Humidity (%):,1.51,,
Lamp PD:,3803,,
Shift Vector Coefficients:,-10.5391,0.0761263,-0.000134223,,
Pixel to Wavelength Coefficients:,1775.68,-0.916766,-0.000235065,,
Serial Number:,5510004,,
Scan Config Name:,Column 1,,
Scan Config Type:,Slew,,
Section 1,,
Start wavelength (nm):,900,,
End wavelength (nm):,1700,,
Pattern Pixel Width (nm):,   7.03,,,,
Exposure (ms):,  0.635,,,,
Digital Resolution:,228,,
Num Repeats:,6,,
PGA Gain:,64,,
Total Measurement Time in sec:,  2.727,,
Wavelength (nm),Absorbance (AU),Reference Signal (unitless),Sample Signal (unitless)
901.51,1.329250,108485,5083
905.376,1.331143,121306,5659
909.237,1.318939,131909,6329
913.095,1.342062,143299,6519
916.948,1.304703,156982,7783
922.079,1.337510,179937,8272
925.923,1.333173,200504,9310
929.762,1.314420,222660,10795
933.597,1.329266,244426,11452
937.427,1.335804,263972,12183
941.254,1.320965,281845,13460
945.076,1.320711,297271,14205
950.165,1.321809,315605,15043
953.978,1.327969,328029,15415
957.786,1.315280,340470,16474
961.59,1.313176,352317,17130
965.389,1.302847,363056,18077
969.185,1.314291,373162,18097
972.976,1.303342,382632,19030
976.763,1.314151,391202,18978
981.806,1.308396,400190,19673
985.583,1.304971,406088,20121
989.355,1.307239,410162,20217
993.124,1.304715,412868,20469
996.888,1.304105,414263,20567
1000.65,1.299711,415476,20837
1004.4,1.306753,415479,20502
1009.41,1.311101,414358,20243
1013.15,1.308330,412923,20302
1016.89,1.309670,411526,20171
1020.63,1.303357,409066,20344
1024.36,1.315045,406777,19693
1028.09,1.313102,404427,19667
1031.82,1.306741,401911,19833
1036.78,1.308185,398410,19595
1040.49,1.308397,396204,19477
1044.2,1.314996,394236,19088
1047.91,1.316274,392042,18926
1051.61,1.301368,389823,19476
1055.31,1.300889,388234,19418
1059,1.302870,387599,19298
1063.92,1.314614,386688,18739
1067.61,1.314884,386598,18723
1071.29,1.311764,387377,18896
1074.96,1.315620,388536,18785
1078.63,1.312012,389855,19006
1082.3,1.309725,391215,19173
1085.96,1.308039,393215,19346
1090.84,1.315505,396270,19164
1094.49,1.302951,398760,19850
1098.14,1.310896,400987,19599
1101.79,1.316118,403477,19485
1105.43,1.311065,406116,19842
1109.06,1.317134,407701,19643
1112.7,1.311996,409859,19982
1117.53,1.320621,412494,19715
1121.15,1.323487,414909,19700
1124.77,1.313187,416559,20253
1128.38,1.316227,418532,20207
1131.99,1.313829,419956,20388
1135.6,1.317077,421946,20332
1139.2,1.322172,423881,20187
1143.99,1.317441,426786,20548
1147.58,1.322823,428617,20382
1151.17,1.312159,431169,21013
1154.75,1.319381,433579,20782
1158.33,1.326452,436264,20573
1161.91,1.317100,439132,21159
1165.48,1.312619,442389,21537
1169.04,1.318573,446101,21422
1173.79,1.314309,451929,21916
1177.34,1.312402,456026,22212
1180.9,1.313896,461306,22392
1184.44,1.317398,467657,22518
1187.99,1.316047,473969,22893
1191.52,1.312527,479856,23366
1195.06,1.316516,487372,23515
1199.76,1.320137,497347,23797
1203.29,1.316646,504311,24325
1206.81,1.317176,511507,24642
1210.33,1.316130,519078,25067
1213.84,1.310376,527163,25797
1217.35,1.321409,534208,25486
1220.85,1.323483,540472,25662
1225.51,1.323783,549929,26093
1229.01,1.322178,556888,26521
1232.5,1.321611,562180,26808
1235.98,1.319521,567975,27215
1239.46,1.324672,574815,27218
1242.94,1.322838,582782,27712
1246.41,1.317184,591476,28494
1251.03,1.326890,604016,28455
1254.5,1.327609,612289,28797
1257.96,1.321103,619125,29558
1261.41,1.333589,624551,28972
1264.86,1.328273,629900,29580
1268.31,1.325784,634345,29960
1271.75,1.331141,638574,29790
1276.33,1.325771,642499,30346
1279.76,1.324618,645905,30588
1283.19,1.325265,648307,30656
1286.61,1.324224,650446,30831
1290.03,1.323549,652132,30959
1293.44,1.332328,653907,30422
1296.85,1.325378,655963,31010
1301.39,1.328513,657349,30852
1304.8,1.327400,657558,30941
1308.19,1.330805,658515,30744
1311.58,1.325912,658804,31106
1314.97,1.330949,659011,30757
1318.36,1.328292,658272,30911
1321.73,1.327832,658022,30932
1326.23,1.327985,657870,30914
1329.6,1.327292,656482,30898
1332.97,1.327881,654926,30783
1336.33,1.331025,653727,30505
1339.69,1.333896,652497,30247
1343.04,1.324121,649913,30813
1346.39,1.330557,647671,30255
1349.73,1.327042,645338,30391
1354.18,1.325692,641175,30289
1357.52,1.324653,638376,30229
1360.85,1.325263,635805,30065
1364.17,1.326874,633413,29841
1367.49,1.323955,631026,29929
1370.81,1.325018,628050,29715
1374.12,1.328044,625034,29367
1378.54,1.329690,620272,29033
1381.84,1.324722,616892,29207
1385.14,1.331772,613613,28584
1388.43,1.329760,611526,28619
1391.72,1.324648,610663,28917
1395.01,1.324733,610634,28910
1398.29,1.323632,611700,29034
1402.66,1.327337,614051,28898
1405.93,1.328992,616268,28892
1409.2,1.325595,617795,29191
1412.46,1.327559,618872,29110
1415.72,1.327982,619795,29125
1418.98,1.332412,620495,28862
1422.23,1.328395,621087,29158
1426.56,1.332080,621375,28925
1429.8,1.327515,621616,29242
1433.04,1.333945,622129,28836
1436.27,1.333359,621526,28847
1439.5,1.326096,621113,29314
1442.72,1.332906,620921,28849
1445.94,1.327302,620270,29193
1450.23,1.327222,618860,29132
1453.44,1.332364,617697,28735
1456.64,1.334663,616264,28517
1459.85,1.337012,614413,28278
1463.04,1.335306,612307,28292
1466.24,1.332034,610032,28400
1469.43,1.334250,607345,28131
1473.67,1.330313,603789,28221
1476.85,1.332091,601175,27984
1480.02,1.325738,597737,28234
1483.19,1.331453,594479,27713
1486.36,1.328855,591232,27727
1489.52,1.331835,587853,27380
1492.68,1.330523,583875,27277
1496.89,1.337436,578062,26579
1500.03,1.341760,574159,26138
1503.18,1.334422,570285,26404
1506.32,1.336715,565444,26042
1509.45,1.341971,560571,25507
1512.58,1.339111,555821,25458
1515.71,1.329756,550344,25756
1519.87,1.331642,543983,25348
1522.99,1.333441,538764,25001
1526.1,1.337735,533692,24522
1529.21,1.334488,527902,24438
1532.32,1.333904,521886,24192
1535.42,1.332308,515888,24002
1538.51,1.331165,509987,23790
1541.6,1.335057,503936,23298
1545.72,1.336364,494694,22802
1548.8,1.336574,488378,22500
1551.88,1.335898,481832,22233
1554.95,1.336279,474989,21898
1558.02,1.332997,467818,21731
1561.08,1.337459,460730,21183
1564.15,1.336138,454170,20945
1568.22,1.332850,444181,20640
1571.27,1.333789,436947,20260
1574.32,1.332684,429598,19970
1577.36,1.335518,422039,19491
1580.4,1.329973,414375,19383
1583.43,1.330631,406354,18979
1586.46,1.341285,398475,18160
1590.49,1.333260,388982,18058
1593.51,1.335474,380708,17584
1596.53,1.327262,372727,17544
1599.54,1.324444,365060,17295
1602.55,1.324620,357543,16932
1605.55,1.323647,349495,16588
1608.55,1.316283,341154,16469
1612.54,1.318461,330877,15893
1615.53,1.330989,322904,15069
1618.51,1.321338,315116,15036
1621.49,1.319567,307217,14719
1624.47,1.318399,299481,14387
1627.44,1.315592,292112,14124
1630.41,1.314601,284245,13775
1634.36,1.327286,274079,12900
1637.32,1.308143,266916,13129
1640.27,1.314161,259612,12594
1643.22,1.315915,251804,12166
1646.16,1.312754,244348,11892
1649.1,1.314527,236703,11473
1652.04,1.311219,228171,11144
1655.95,1.289939,215408,11049
1658.88,1.298151,204937,10315
1661.8,1.287445,193395,9977
1664.72,1.283943,179728,9347
1667.63,1.260087,163642,8991
1670.54,1.247879,146312,8268
1673.44,1.210946,128451,7903
1677.31,1.195445,105080,6700
1680.21,1.188735,88906,5757
1683.1,1.178721,75033,4972
1685.99,1.139681,63520,4605
1688.87,1.173906,53714,3599
1691.75,1.230202,45653,2687
1694.62,1.195343,39137,2496
1697.49,1.131364,33776,2496
1701.31,1.135154,28175,2064

File: Column 1_078671_20241121_171634.csv
Method:,Column 1,,
Host Date-Time:,21/11/24 @ 17:16:34,,
Header Version:,1,,
System Temp (C):,34.55,,
Detector Temp (C):,35.43,,
Humidity (%):,1.37,,
Lamp PD:,3803,,
Shift Vector Coefficients:,-10.5391,0.0761263,-0.000134223,,
Pixel to Wavelength Coefficients:,1775.68,-0.916766,-0.000235065,,
Serial Number:,5510004,,
Scan Config Name:,Column 1,,
Scan Config Type:,Slew,,
Section 1,,
Start wavelength (nm):,900,,
End wavelength (nm):,1700,,
Pattern Pixel Width (nm):,   7.03,,,,
Exposure (ms):,  0.635,,,,
Digital Resolution:,228,,
Num Repeats:,6,,
PGA Gain:,64,,
Total Measurement Time in sec:,  2.723,,
Wavelength (nm),Absorbance (AU),Reference Signal (unitless),Sample Signal (unitless)
901.51,1.309132,108485,5324
905.376,1.324592,121306,5745
909.237,1.300467,131909,6604
913.095,1.325783,143299,6768
916.948,1.330095,156982,7341
922.079,1.320471,179937,8603
925.923,1.338194,200504,9203
929.762,1.316840,222660,10735
933.597,1.326055,244426,11537
937.427,1.313162,263972,12835
941.254,1.299285,281845,14149
945.076,1.310499,297271,14543
950.165,1.318731,315605,15150
953.978,1.306102,328029,16211
957.786,1.318588,340470,16349
961.59,1.312087,352317,17173
965.389,1.310091,363056,17778
969.185,1.307576,373162,18379
972.976,1.308231,382632,18817
976.763,1.308309,391202,19235
981.806,1.309302,400190,19632
985.583,1.304647,406088,20136
989.355,1.299742,410162,20569
993.124,1.298709,412868,20754
996.888,1.308008,414263,20383
1000.65,1.297051,415476,20965
1004.4,1.304239,415479,20621
1009.41,1.311187,414358,20239
1013.15,1.311659,412923,20147
1016.89,1.292095,411526,21004
1020.63,1.300676,409066,20470
1024.36,1.302674,406777,20262
1028.09,1.297104,404427,20405
1031.82,1.299898,401911,20148
1036.78,1.302942,398410,19833
1040.49,1.304534,396204,19651
1044.2,1.310604,394236,19282
1047.91,1.302319,392042,19544
1051.61,1.307091,389823,19221
1055.31,1.309449,388234,19039
1059,1.303321,387599,19278
1063.92,1.309270,386688,18971
1067.61,1.309719,386598,18947
1071.29,1.301655,387377,19341
1074.96,1.313936,388536,18858
1078.63,1.305954,389855,19273
1082.3,1.313799,391215,18994
1085.96,1.312008,393215,19170
1090.84,1.301787,396270,19779
1094.49,1.317569,398760,19193
1098.14,1.305829,400987,19829
1101.79,1.305615,403477,19962
1105.43,1.318994,406116,19483
1109.06,1.310878,407701,19928
1112.7,1.308769,409859,20131
1117.53,1.312092,412494,20106
1121.15,1.312860,414909,20188
1124.77,1.312544,416559,20283
1128.38,1.308283,418532,20580
1131.99,1.309379,419956,20598
1135.6,1.315329,421946,20414
1139.2,1.316190,423881,20467
1143.99,1.317758,426786,20533
1147.58,1.313776,428617,20811
1151.17,1.312883,431169,20978
1154.75,1.319193,433579,20791
1158.33,1.314562,436264,21144
1161.91,1.315195,439132,21252
1165.48,1.314316,442389,21453
1169.04,1.308969,446101,21901
1173.79,1.311583,451929,22054
1177.34,1.311055,456026,22281
1180.9,1.310169,461306,22585
1184.44,1.308899,467657,22963
1187.99,1.313117,473969,23048
1191.52,1.318176,479856,23064
1195.06,1.316589,487372,23511
1199.76,1.315382,497347,24059
1203.29,1.314651,504311,24437
1206.81,1.319615,511507,24504
1210.33,1.316512,519078,25045
1213.84,1.315200,527163,25512
1217.35,1.320116,534208,25562
1220.85,1.321086,540472,25804
1225.51,1.313974,549929,26689
1229.01,1.320038,556888,26652
1232.5,1.315706,562180,27175
1235.98,1.317086,567975,27368
1239.46,1.315452,574815,27802
1242.94,1.324330,582782,27617
1246.41,1.314888,591476,28645
1251.03,1.313929,604016,29317
1254.5,1.316502,612289,29543
1257.96,1.318102,619125,29763
1261.41,1.323675,624551,29641
1264.86,1.323528,629900,29905
1268.31,1.324004,634345,30083
1271.75,1.324831,638574,30226
1276.33,1.319971,642499,30754
1279.76,1.319087,645905,30980
1283.19,1.323865,648307,30755
1286.61,1.319670,650446,31156
1290.03,1.322974,652132,31000
1293.44,1.318766,653907,31387
1296.85,1.324566,655963,31068
1301.39,1.330177,657349,30734
1304.8,1.327666,657558,30922
1308.19,1.326658,658515,31039
1311.58,1.325689,658804,31122
1314.97,1.332476,659011,30649
1318.36,1.326512,658272,31038
1321.73,1.327117,658022,30983
1326.23,1.334239,657870,30472
1329.6,1.322401,656482,31248
1332.97,1.327515,654926,30809
1336.33,1.325101,653727,30924
1339.69,1.327851,652497,30671
1343.04,1.323797,649913,30836
1346.39,1.322437,647671,30826
1349.73,1.328173,645338,30312
1354.18,1.326151,641175,30257
1357.52,1.325285,638376,30185
1360.85,1.319879,635805,30440
1364.17,1.322544,633413,30140
1367.49,1.327013,631026,29719
1370.81,1.321684,628050,29944
1374.12,1.319159,625034,29974
1378.54,1.321056,620272,29616
1381.84,1.323208,616892,29309
1385.14,1.318514,613613,29470
1388.43,1.323703,611526,29021
1391.72,1.321223,610663,29146
1395.01,1.320487,610634,29194
1398.29,1.325776,611700,28891
1402.66,1.329839,614051,28732
1405.93,1.326803,616268,29038
1409.2,1.327384,617795,29071
1412.46,1.329443,618872,28984
1415.72,1.332162,619795,28846
1418.98,1.334372,620495,28732
1422.23,1.327264,621087,29234
1426.56,1.329998,621375,29064
1429.8,1.327099,621616,29270
1433.04,1.329108,622129,29159
1436.27,1.330897,621526,29011
1439.5,1.322819,621113,29536
1442.72,1.329502,620921,29076
1445.94,1.328882,620270,29087
1450.23,1.327938,618860,29084
1453.44,1.329983,617697,28893
1456.64,1.329275,616264,28873
1459.85,1.329641,614413,28762
1463.04,1.329405,612307,28679
1466.24,1.334519,610032,28238
1469.43,1.336138,607345,28009
1473.67,1.335717,603789,27872
1476.85,1.324126,601175,28502
1480.02,1.327479,597737,28121
1483.19,1.326699,594479,28018
1486.36,1.330126,591232,27646
1489.52,1.333170,587853,27296
1492.68,1.328902,583875,27379
1496.89,1.331883,578062,26921
1500.03,1.329344,574159,26896
1503.18,1.333174,570285,26480
1506.32,1.331774,565444,26340
1509.45,1.331707,560571,26117
1512.58,1.333955,555821,25762
1515.71,1.331259,550344,25667
1519.87,1.332825,543983,25279
1522.99,1.332296,538764,25067
1526.1,1.332681,533692,24809
1529.21,1.336500,527902,24325
1532.32,1.322372,521886,24843
1535.42,1.322734,515888,24537
1538.51,1.332719,509987,23705
1541.6,1.333977,503936,23356
1545.72,1.334900,494694,22879
1548.8,1.333918,488378,22638
1551.88,1.335331,481832,22262
1554.95,1.331957,474989,22117
1558.02,1.324546,467818,22158
1561.08,1.324293,460730,21835
1564.15,1.328533,454170,21315
1568.22,1.332198,444181,20671
1571.27,1.331992,436947,20344
1574.32,1.332597,429598,19974
1577.36,1.326172,422039,19915
1580.4,1.330713,414375,19350
1583.43,1.329032,406354,19049
1586.46,1.323893,398475,18902
1590.49,1.328619,388982,18252
1593.51,1.324861,380708,18019
1596.53,1.320849,372727,17805
1599.54,1.323240,365060,17343
1602.55,1.313503,357543,17371
1605.55,1.317796,349495,16813
1608.55,1.324536,341154,16159
1612.54,1.329503,330877,15494
1615.53,1.318518,322904,15508
1618.51,1.322090,315116,15010
1621.49,1.324732,307217,14545
1624.47,1.312910,299481,14570
1627.44,1.316762,292112,14086
1630.41,1.318210,284245,13661
1634.36,1.298816,274079,13774
1637.32,1.317235,266916,12857
1640.27,1.320658,259612,12407
1643.22,1.314703,251804,12200
1646.16,1.320678,244348,11677
1649.1,1.313884,236703,11490
1652.04,1.298167,228171,11484
1655.95,1.316437,215408,10395
1658.88,1.275871,204937,10858
1661.8,1.280922,193395,10128
1664.72,1.276709,179728,9504
1667.63,1.240767,163642,9400
1670.54,1.241311,146312,8394
1673.44,1.212322,128451,7878
1677.31,1.188373,105080,6810
1680.21,1.169407,88906,6019
1683.1,1.135917,75033,5487
1685.99,1.153673,63520,4459
1688.87,1.212232,53714,3295
1691.75,1.156224,45653,3186
1694.62,1.172797,39137,2629
1697.49,1.143181,33776,2429
1701.31,1.177094,28175,1874

File: Column 1_078672_20241121_171636.csv
Method:,Column 1,,
Host Date-Time:,21/11/24 @ 17:16:36,,
Header Version:,1,,
System Temp (C):,34.69,,
Detector Temp (C):,35.36,,
Humidity (%):,1.37,,
Lamp PD:,3803,,
Shift Vector Coefficients:,-10.5391,0.0761263,-0.000134223,,
Pixel to Wavelength Coefficients:,1775.68,-0.916766,-0.000235065,,
Serial Number:,5510004,,
Scan Config Name:,Column 1,,
Scan Config Type:,Slew,,
Section 1,,
Start wavelength (nm):,900,,
End wavelength (nm):,1700,,
Pattern Pixel Width (nm):,   7.03,,,,
Exposure (ms):,  0.635,,,,
Digital Resolution:,228,,
Num Repeats:,6,,
PGA Gain:,64,,
Total Measurement Time in sec:,  2.727,,
Wavelength (nm),Absorbance (AU),Reference Signal (unitless),Sample Signal (unitless)
901.51,1.332853,108485,5041
905.376,1.285370,121306,6288
909.237,1.313010,131909,6416
913.095,1.313010,143299,6970
916.948,1.324686,156982,7433
922.079,1.314554,179937,8721
925.923,1.313074,200504,9751
929.762,1.314822,222660,10785
933.597,1.320073,244426,11697
937.427,1.318404,263972,12681
941.254,1.312941,281845,13711
945.076,1.305451,297271,14713
950.165,1.311510,315605,15404
953.978,1.310248,328029,16057
957.786,1.313438,340470,16544
961.59,1.301618,352317,17592
965.389,1.309383,363056,17807
969.185,1.300590,373162,18677
972.976,1.310475,382632,18720
976.763,1.296922,391202,19746
981.806,1.306523,400190,19758
985.583,1.299586,406088,20372
989.355,1.301498,410162,20486
993.124,1.301249,412868,20633
996.888,1.303894,414263,20577
1000.65,1.301047,415476,20773
1004.4,1.301824,415479,20736
1009.41,1.297541,414358,20885
1013.15,1.304963,412923,20460
1016.89,1.297819,411526,20729
1020.63,1.305261,409066,20255
1024.36,1.312121,406777,19826
1028.09,1.309583,404427,19827
1031.82,1.304557,401911,19933
1036.78,1.299713,398410,19981
1040.49,1.312497,396204,19294
1044.2,1.309367,394236,19337
1047.91,1.307640,392042,19306
1051.61,1.306414,389823,19251
1055.31,1.306290,388234,19178
1059,1.302938,387599,19295
1063.92,1.306782,386688,19080
1067.61,1.307866,386598,19028
1071.29,1.303613,387377,19254
1074.96,1.308307,388536,19104
1078.63,1.309415,389855,19120
1082.3,1.309341,391215,19190
1085.96,1.300892,393215,19667
1090.84,1.312546,396270,19295
1094.49,1.308921,398760,19579
1098.14,1.310830,400987,19602
1101.79,1.313230,403477,19615
1105.43,1.314382,406116,19691
1109.06,1.315083,407701,19736
1112.7,1.300267,409859,20529
1117.53,1.311293,412494,20143
1121.15,1.314411,414909,20116
1124.77,1.311689,416559,20323
1128.38,1.312141,418532,20398
1131.99,1.310646,419956,20538
1135.6,1.307737,421946,20774
1139.2,1.305625,423881,20971
1143.99,1.319432,426786,20454
1147.58,1.310243,428617,20981
1151.17,1.308455,431169,21193
1154.75,1.310650,433579,21204
1158.33,1.311880,436264,21275
1161.91,1.312283,439132,21395
1165.48,1.316895,442389,21326
1169.04,1.315462,446101,21576
1173.79,1.313952,451929,21934
1177.34,1.314224,456026,22119
1180.9,1.308863,461306,22653
1184.44,1.314055,467657,22692
1187.99,1.312119,473969,23101
1191.52,1.316785,479856,23138
1195.06,1.319146,487372,23373
1199.76,1.307476,497347,24501
1203.29,1.318488,504311,24222
1206.81,1.323585,511507,24281
1210.33,1.314470,519078,25163
1213.84,1.317693,527163,25366
1217.35,1.316040,534208,25803
1220.85,1.315385,540472,26145
1225.51,1.317520,549929,26472
1229.01,1.325169,556888,26339
1232.5,1.317901,562180,27038
1235.98,1.314712,567975,27518
1239.46,1.321097,574815,27443
1242.94,1.322635,582782,27725
1246.41,1.320535,591476,28275
1251.03,1.321324,604016,28822
1254.5,1.321053,612289,29235
1257.96,1.323475,619125,29397
1261.41,1.324628,624551,29576
1264.86,1.320172,629900,30137
1268.31,1.322664,634345,30176
1271.75,1.318597,638574,30663
1276.33,1.324656,642499,30424
1279.76,1.323795,645905,30646
1283.19,1.320994,648307,30959
1286.61,1.327078,650446,30629
1290.03,1.322246,652132,31052
1293.44,1.323930,653907,31016
1296.85,1.326682,655963,30917
1301.39,1.327177,657349,30947
1304.8,1.326222,657558,31025
1308.19,1.327989,658515,30944
1311.58,1.321343,658804,31435
1314.97,1.325407,659011,31152
1318.36,1.322002,658272,31362
1321.73,1.329337,658022,30825
1326.23,1.331865,657870,30639
1329.6,1.325133,656482,31052
1332.97,1.325532,654926,30950
1336.33,1.324329,653727,30979
1339.69,1.328999,652497,30590
1343.04,1.323994,649913,30822
1346.39,1.321888,647671,30865
1349.73,1.326057,645338,30460
1354.18,1.323061,641175,30473
1357.52,1.324222,638376,30259
1360.85,1.321681,635805,30314
1364.17,1.317231,633413,30511
1367.49,1.325700,631026,29809
1370.81,1.326981,628050,29581
1374.12,1.325596,625034,29533
1378.54,1.326456,620272,29250
1381.84,1.323727,616892,29274
1385.14,1.322556,613613,29197
1388.43,1.324182,611526,28989
1391.72,1.320389,610663,29202
1395.01,1.322814,610634,29038
1398.29,1.325656,611700,28899
1402.66,1.327878,614051,28862
1405.93,1.328406,616268,28931
1409.2,1.319083,617795,29632
1412.46,1.326411,618872,29187
1415.72,1.329461,619795,29026
1418.98,1.328264,620495,29139
1422.23,1.328276,621087,29166
1426.56,1.331900,621375,28937
1429.8,1.326803,621616,29290
1433.04,1.325326,622129,29414
1436.27,1.327943,621526,29209
1439.5,1.327282,621113,29234
1442.72,1.327802,620921,29190
1445.94,1.329196,620270,29066
1450.23,1.330680,618860,28901
1453.44,1.325675,617697,29181
1456.64,1.334693,616264,28515
1459.85,1.326797,614413,28951
1463.04,1.336028,612307,28245
1466.24,1.333382,610032,28312
1469.43,1.335936,607345,28022
1473.67,1.337153,603789,27780
1476.85,1.331471,601175,28024
1480.02,1.330688,597737,27914
1483.19,1.329280,594479,27852
1486.36,1.330802,591232,27603
1489.52,1.336027,587853,27117
1492.68,1.331927,583875,27189
1496.89,1.333273,578062,26835
1500.03,1.332082,574159,26727
1503.18,1.330835,570285,26623
1506.32,1.333144,565444,26257
1509.45,1.335180,560571,25909
1512.58,1.335036,555821,25698
1515.71,1.329284,550344,25784
1519.87,1.328466,543983,25534
1522.99,1.333476,538764,24999
1526.1,1.332506,533692,24819
1529.21,1.331689,527902,24596
1532.32,1.329759,521886,24424
1535.42,1.327325,515888,24279
1538.51,1.332499,509987,23717
1541.6,1.334572,503936,23324
1545.72,1.328849,494694,23200
1548.8,1.333630,488378,22653
1551.88,1.331177,481832,22476
1554.95,1.337411,474989,21841
1558.02,1.328049,467818,21980
1561.08,1.321597,460730,21971
1564.15,1.331970,454170,21147
1568.22,1.323360,444181,21096
1571.27,1.325109,436947,20669
1574.32,1.328636,429598,20157
1577.36,1.329610,422039,19758
1580.4,1.326425,414375,19542
1583.43,1.321125,406354,19399
1586.46,1.324376,398475,18881
1590.49,1.327241,388982,18310
1593.51,1.333036,380708,17683
1596.53,1.321557,372727,17776
1599.54,1.318434,365060,17536
1602.55,1.318280,357543,17181
1605.55,1.311640,349495,17053
1608.55,1.326017,341154,16104
1612.54,1.313246,330877,16085
1615.53,1.319864,322904,15460
1618.51,1.325197,315116,14903
1621.49,1.317213,307217,14799
1624.47,1.311600,299481,14614
1627.44,1.311795,292112,14248
1630.41,1.305800,284245,14057
1634.36,1.319016,274079,13148
1637.32,1.310964,266916,13044
1640.27,1.324561,259612,12296
1643.22,1.308869,251804,12365
1646.16,1.305367,244348,12096
1649.1,1.325412,236703,11189
1652.04,1.294439,228171,11583
1655.95,1.296473,215408,10884
1658.88,1.294337,204937,10406
1661.8,1.294290,193395,9821
1664.72,1.272933,179728,9587
1667.63,1.243130,163642,9349
1670.54,1.221884,146312,8778
1673.44,1.227695,128451,7604
1677.31,1.203889,105080,6571
1680.21,1.167247,88906,6049
1683.1,1.162939,75033,5156
1685.99,1.143565,63520,4564
1688.87,1.191263,53714,3458
1691.75,1.167548,45653,3104
1694.62,1.252937,39137,2186
1697.49,1.166314,33776,2303
1701.31,1.241960,28175,1614