Folder: textile_sorting_NIRSCAN_/ML/samples/unknown (part 2)

File: Column 1_078006_20241121_164053.csv
Method:,Column 1,,
Host Date-Time:,21/11/24 @ 16:40:53,,
Header Version:,1,,
System Temp (C):,29.2,,
Detector Temp (C):,25.26,,
Humidity (%):,7.83,,
Lamp PD:,3817,,
Shift Vector Coefficients:,-10.5391,0.0761263,-0.000134223,,
Pixel to Wavelength Coefficients:,1775.68,-0.916766,-0.000235065,,
Serial Number:,5510004,,
Scan Config Name:,Column 1,,
Scan Config Type:,Slew,,
Section 1,,
Start wavelength (nm):,900,,
End wavelength (nm):,1700,,
Pattern Pixel Width (nm):,   7.03,,,,
Exposure (ms):,  0.635,,,,
Digital Resolution:,228,,
Num Repeats:,6,,
PGA Gain:,64,,
Total Measurement Time in sec:,  2.722,,
Wavelength (nm),Absorbance (AU),Reference Signal (unitless),Sample Signal (unitless)
901.51,1.320537,108485,5186
905.376,1.311854,121306,5916
909.237,1.323284,131909,6266
913.095,1.327583,143299,6740
916.948,1.312586,156982,7643
922.079,1.305097,179937,8913
925.923,1.318722,200504,9625
929.762,1.307198,222660,10976
933.597,1.321598,244426,11656
937.427,1.302929,263972,13141
941.254,1.308717,281845,13845
945.076,1.308383,297271,14614
950.165,1.305352,315605,15624
953.978,1.308089,328029,16137
957.786,1.319785,340470,16304
961.59,1.314090,352317,17094
965.389,1.307388,363056,17889
969.185,1.299592,373162,18720
972.976,1.313946,382632,18571
976.763,1.306394,391202,19320
981.806,1.308970,400190,19647
985.583,1.301253,406088,20294
989.355,1.305738,410162,20287
993.124,1.307076,412868,20358
996.888,1.315270,414263,20045
1000.65,1.312722,415476,20222
1004.4,1.309174,415479,20388
1009.41,1.313014,414358,20154
1013.15,1.310926,412923,20181
1016.89,1.309067,411526,20199
1020.63,1.310459,409066,20014
1024.36,1.309827,406777,19931
1028.09,1.303839,404427,20091
1031.82,1.308211,401911,19766
1036.78,1.318661,398410,19128
1040.49,1.309558,396204,19425
1044.2,1.318674,394236,18927
1047.91,1.307640,392042,19306
1051.61,1.305580,389823,19288
1055.31,1.319254,388234,18614
1059,1.318613,387599,18611
1063.92,1.313341,386688,18794
1067.61,1.309490,386598,18957
1071.29,1.307555,387377,19080
1074.96,1.309992,388536,19030
1078.63,1.321087,389855,18613
1082.3,1.314463,391215,18965
1085.96,1.314052,393215,19080
1090.84,1.319970,396270,18968
1094.49,1.318974,398760,19131
1098.14,1.316562,400987,19345
1101.79,1.322834,403477,19186
1105.43,1.319619,406116,19455
1109.06,1.308249,407701,20049
1112.7,1.321754,409859,19538
1117.53,1.323184,412494,19599
1121.15,1.315774,414909,20053
1124.77,1.321260,416559,19880
1128.38,1.314040,418532,20309
1131.99,1.323021,419956,19961
1135.6,1.324705,421946,19978
1139.2,1.314940,423881,20526
1143.99,1.324966,426786,20195
1147.58,1.318329,428617,20594
1151.17,1.322111,431169,20537
1154.75,1.320553,433579,20726
1158.33,1.322752,436264,20749
1161.91,1.318107,439132,21110
1165.48,1.322986,442389,21029
1169.04,1.322565,446101,21226
1173.79,1.314269,451929,21918
1177.34,1.319936,456026,21830
1180.9,1.319263,461306,22117
1184.44,1.322890,467657,22235
1187.99,1.315725,473969,22910
1191.52,1.323157,479856,22801
1195.06,1.320207,487372,23316
1199.76,1.328782,497347,23328
1203.29,1.326085,504311,23802
1206.81,1.326114,511507,24140
1210.33,1.320623,519078,24809
1213.84,1.324874,527163,24950
1217.35,1.325088,534208,25271
1220.85,1.322350,540472,25729
1225.51,1.322669,549929,26160
1229.01,1.318688,556888,26735
1232.5,1.325467,562180,26571
1235.98,1.320815,567975,27134
1239.46,1.324401,574815,27235
1242.94,1.322384,582782,27741
1246.41,1.324919,591476,27991
1251.03,1.326875,604016,28456
1254.5,1.325999,612289,28904
1257.96,1.330190,619125,28946
1261.41,1.325937,624551,29487
1264.86,1.334469,629900,29161
1268.31,1.328386,634345,29781
1271.75,1.327439,638574,30045
1276.33,1.324285,642499,30450
1279.76,1.323823,645905,30644
1283.19,1.331070,648307,30249
1286.61,1.331167,650446,30342
1290.03,1.328983,652132,30574
1293.44,1.332271,653907,30426
1296.85,1.330166,655963,30670
1301.39,1.330262,657349,30728
1304.8,1.329242,657558,30810
1308.19,1.333725,658515,30538
1311.58,1.330177,658804,30802
1314.97,1.328892,659011,30903
1318.36,1.326988,658272,31004
1321.73,1.334653,658022,30450
1326.23,1.334296,657870,30468
1329.6,1.332695,656482,30516
1332.97,1.332291,654926,30472
1336.33,1.328626,653727,30674
1339.69,1.329781,652497,30535
1343.04,1.337082,649913,29907
1346.39,1.332399,647671,30127
1349.73,1.328173,645338,30312
1354.18,1.330348,641175,29966
1357.52,1.329754,638376,29876
1360.85,1.326145,635805,30004
1364.17,1.331409,633413,29531
1367.49,1.328286,631026,29632
1370.81,1.328231,628050,29496
1374.12,1.326141,625034,29496
1378.54,1.330409,620272,28985
1381.84,1.332040,616892,28719
1385.14,1.328020,613613,28832
1388.43,1.328336,611526,28713
1391.72,1.322252,610663,29077
1395.01,1.333473,610634,28334
1398.29,1.331343,611700,28523
1402.66,1.331413,614051,28628
1405.93,1.326773,616268,29040
1409.2,1.325670,617795,29186
1412.46,1.328873,618872,29022
1415.72,1.331621,619795,28882
1418.98,1.329772,620495,29038
1422.23,1.335528,621087,28683
1426.56,1.333148,621375,28854
1429.8,1.336291,621616,28657
1433.04,1.334488,622129,28800
1436.27,1.332051,621526,28934
1439.5,1.333462,621113,28821
1442.72,1.330354,620921,29019
1445.94,1.334563,620270,28709
1450.23,1.339929,618860,28292
1453.44,1.335276,617697,28543
1456.64,1.337827,616264,28310
1459.85,1.344181,614413,27815
1463.04,1.337892,612307,28124
1466.24,1.332325,610032,28381
1469.43,1.336805,607345,27966
1473.67,1.339080,603789,27657
1476.85,1.347139,601175,27031
1480.02,1.330408,597737,27932
1483.19,1.328906,594479,27876
1486.36,1.338725,591232,27104
1489.52,1.343083,587853,26680
1492.68,1.340932,583875,26631
1496.89,1.334537,578062,26757
1500.03,1.339192,574159,26293
1503.18,1.344136,570285,25820
1506.32,1.340148,565444,25837
1509.45,1.339730,560571,25639
1512.58,1.334664,555821,25720
1515.71,1.336536,550344,25357
1519.87,1.333651,543983,25231
1522.99,1.336474,538764,24827
1526.1,1.342776,533692,24239
1529.21,1.336715,527902,24313
1532.32,1.334820,521886,24141
1535.42,1.338027,515888,23688
1538.51,1.331256,509987,23785
1541.6,1.340742,503936,22995
1545.72,1.342560,494694,22479
1548.8,1.341250,488378,22259
1551.88,1.339625,481832,22043
1554.95,1.332862,474989,22071
1558.02,1.339055,467818,21430
1561.08,1.330483,460730,21526
1564.15,1.344174,454170,20561
1568.22,1.341822,444181,20218
1571.27,1.332655,436947,20313
1574.32,1.326101,429598,20275
1577.36,1.335541,422039,19490
1580.4,1.337567,414375,19047
1583.43,1.340818,406354,18539
1586.46,1.340616,398475,18188
1590.49,1.331651,388982,18125
1593.51,1.326431,380708,17954
1596.53,1.333747,372727,17284
1599.54,1.334760,365060,16889
1602.55,1.334163,357543,16564
1605.55,1.329048,349495,16383
1608.55,1.337937,341154,15668
1612.54,1.333304,330877,15359
1615.53,1.335625,322904,14909
1618.51,1.324207,315116,14937
1621.49,1.341690,307217,13988
1624.47,1.329838,299481,14013
1627.44,1.330640,292112,13643
1630.41,1.325682,284245,13428
1634.36,1.315824,274079,13245
1637.32,1.330857,266916,12460
1640.27,1.316998,259612,12512
1643.22,1.330692,251804,11759
1646.16,1.325427,244348,11550
1649.1,1.329468,236703,11085
1652.04,1.321991,228171,10871
1655.95,1.303878,215408,10700
1658.88,1.337938,204937,9412
1661.8,1.322044,193395,9213
1664.72,1.328428,179728,8437
1667.63,1.344252,163642,7407
1670.54,1.315492,146312,7076
1673.44,1.334075,128451,5952
1677.31,1.372283,105080,4459
1680.21,1.370177,88906,3791
1683.1,1.369018,75033,3208
1685.99,1.387770,63520,2601
1688.87,1.319310,53714,2575
1691.75,1.314096,45653,2215
1694.62,1.340463,39137,1787
1697.49,1.272853,33776,1802
1701.31,1.308101,28175,1386

File: Column 1_078008_20241121_164059.csv
Method:,Column 1,,
Host Date-Time:,21/11/24 @ 16:40:59,,
Header Version:,1,,
System Temp (C):,29.22,,
Detector Temp (C):,25.01,,
Humidity (%):,7.54,,
Lamp PD:,3816,,
Shift Vector Coefficients:,-10.5391,0.0761263,-0.000134223,,
Pixel to Wavelength Coefficients:,1775.68,-0.916766,-0.000235065,,
Serial Number:,5510004,,
Scan Config Name:,Column 1,,
Scan Config Type:,Slew,,
Section 1,,
Start wavelength (nm):,900,,
End wavelength (nm):,1700,,
Pattern Pixel Width (nm):,   7.03,,,,
Exposure (ms):,  0.635,,,,
Digital Resolution:,228,,
Num Repeats:,6,,
PGA Gain:,64,,
Total Measurement Time in sec:,  2.708,,
Wavelength (nm),Absorbance (AU),Reference Signal (unitless),Sample Signal (unitless)
901.51,1.283321,108485,5650
905.376,1.315096,121306,5872
909.237,1.336014,131909,6085
913.095,1.316263,143299,6918
916.948,1.299765,156982,7872
922.079,1.292041,179937,9185
925.923,1.313876,200504,9733
929.762,1.310854,222660,10884
933.597,1.310961,244426,11945
937.427,1.292190,263972,13470
941.254,1.300976,281845,14094
945.076,1.316119,297271,14356
950.165,1.312216,315605,15379
953.978,1.304979,328029,16253
957.786,1.311160,340470,16631
961.59,1.300977,352317,17618
965.389,1.316613,363056,17513
969.185,1.305713,373162,18458
972.976,1.307032,382632,18869
976.763,1.308038,391202,19247
981.806,1.311408,400190,19537
985.583,1.312043,406088,19796
989.355,1.300418,410162,20537
993.124,1.313979,412868,20037
996.888,1.307072,414263,20427
1000.65,1.302953,415476,20682
1004.4,1.313736,415479,20175
1009.41,1.311294,414358,20234
1013.15,1.313278,412923,20072
1016.89,1.306816,411526,20304
1020.63,1.319183,409066,19616
1024.36,1.302996,406777,20247
1028.09,1.313102,404427,19667
1031.82,1.311232,401911,19629
1036.78,1.305600,398410,19712
1040.49,1.312632,396204,19288
1044.2,1.308941,394236,19356
1047.91,1.300899,392042,19608
1051.61,1.312434,389823,18986
1055.31,1.309244,388234,19048
1059,1.313625,387599,18826
1063.92,1.314661,386688,18737
1067.61,1.320675,386598,18475
1071.29,1.310548,387377,18949
1074.96,1.312855,388536,18905
1078.63,1.319317,389855,18689
1082.3,1.316368,391215,18882
1085.96,1.329623,393215,18408
1090.84,1.317732,396270,19066
1094.49,1.314480,398760,19330
1098.14,1.323920,400987,19020
1101.79,1.312235,403477,19660
1105.43,1.313853,406116,19715
1109.06,1.317576,407701,19623
1112.7,1.320622,409859,19589
1117.53,1.318489,412494,19812
1121.15,1.324944,414909,19634
1124.77,1.327066,416559,19616
1128.38,1.310144,418532,20492
1131.99,1.317208,419956,20230
1135.6,1.323814,421946,20019
1139.2,1.317614,423881,20400
1143.99,1.321987,426786,20334
1147.58,1.322780,428617,20384
1151.17,1.320696,431169,20604
1154.75,1.325802,433579,20477
1158.33,1.316910,436264,21030
1161.91,1.320914,439132,20974
1165.48,1.319940,442389,21177
1169.04,1.326491,446101,21035
1173.79,1.321401,451929,21561
1177.34,1.316409,456026,22008
1180.9,1.322713,461306,21942
1184.44,1.322636,467657,22248
1187.99,1.311330,473969,23143
1191.52,1.318101,479856,23068
1195.06,1.320188,487372,23317
1199.76,1.322608,497347,23662
1203.29,1.323592,504311,23939
1206.81,1.329927,511507,23929
1210.33,1.331543,519078,24193
1213.84,1.321614,527163,25138
1217.35,1.327345,534208,25140
1220.85,1.323991,540472,25632
1225.51,1.333409,549929,25521
1229.01,1.336545,556888,25658
1232.5,1.328897,562180,26362
1235.98,1.329219,567975,26614
1239.46,1.323222,574815,27309
1242.94,1.325164,582782,27564
1246.41,1.329708,591476,27684
1251.03,1.324971,604016,28581
1254.5,1.327745,612289,28788
1257.96,1.328707,619125,29045
1261.41,1.327029,624551,29413
1264.86,1.327540,629900,29630
1268.31,1.329204,634345,29725
1271.75,1.329743,638574,29886
1276.33,1.329349,642499,30097
1279.76,1.329099,645905,30274
1283.19,1.325350,648307,30650
1286.61,1.330381,650446,30397
1290.03,1.324630,652132,30882
1293.44,1.334059,653907,30301
1296.85,1.337491,655963,30157
1301.39,1.330813,657349,30689
1304.8,1.333506,657558,30509
1308.19,1.335435,658515,30418
1311.58,1.330713,658804,30764
1314.97,1.335077,659011,30466
1318.36,1.337867,658272,30237
1321.73,1.331413,658022,30678
1326.23,1.337946,657870,30213
1329.6,1.335594,656482,30313
1332.97,1.334621,654926,30309
1336.33,1.331995,653727,30437
1339.69,1.330179,652497,30507
1343.04,1.333582,649913,30149
1346.39,1.331477,647671,30191
1349.73,1.329478,645338,30221
1354.18,1.330522,641175,29954
1357.52,1.330089,638376,29853
1360.85,1.327696,635805,29897
1364.17,1.329706,633413,29647
1367.49,1.328917,631026,29589
1370.81,1.335342,628050,29017
1374.12,1.334600,625034,28927
1378.54,1.326531,620272,29245
1381.84,1.332161,616892,28711
1385.14,1.332654,613613,28526
1388.43,1.330094,611526,28597
1391.72,1.327360,610663,28737
1395.01,1.327007,610634,28759
1398.29,1.326348,611700,28853
1402.66,1.326346,614051,28964
1405.93,1.332857,616268,28636
1409.2,1.337220,617795,28420
1412.46,1.329667,618872,28969
1415.72,1.330150,619795,28980
1418.98,1.333783,620495,28771
1422.23,1.335876,621087,28660
1426.56,1.332982,621375,28865
1429.8,1.330690,621616,29029
1433.04,1.338001,622129,28568
1436.27,1.330283,621526,29052
1439.5,1.333431,621113,28823
1442.72,1.332605,620921,28869
1445.94,1.330452,620270,28982
1450.23,1.340420,618860,28260
1453.44,1.334076,617697,28622
1456.64,1.334465,616264,28530
1459.85,1.339399,614413,28123
1463.04,1.336135,612307,28238
1466.24,1.339998,610032,27884
1469.43,1.333726,607345,28165
1473.67,1.339976,603789,27600
1476.85,1.336537,601175,27699
1480.02,1.340061,597737,27318
1483.19,1.338547,594479,27264
1486.36,1.337556,591232,27177
1489.52,1.330995,587853,27433
1492.68,1.343238,583875,26490
1496.89,1.334375,578062,26767
1500.03,1.341710,574159,26141
1503.18,1.346615,570285,25673
1506.32,1.337400,565444,26001
1509.45,1.336573,560571,25826
1512.58,1.341197,555821,25336
1515.71,1.341497,550344,25069
1519.87,1.338480,543983,24952
1522.99,1.340781,538764,24582
1526.1,1.341131,533692,24331
1529.21,1.345484,527902,23827
1532.32,1.339269,521886,23895
1535.42,1.341321,515888,23509
1538.51,1.338343,509987,23400
1541.6,1.337018,503936,23193
1545.72,1.338923,494694,22668
1548.8,1.338024,488378,22425
1551.88,1.338268,481832,22112
1554.95,1.336577,474989,21883
1558.02,1.336710,467818,21546
1561.08,1.338938,460730,21111
1564.15,1.333018,454170,21096
1568.22,1.329100,444181,20819
1571.27,1.328929,436947,20488
1574.32,1.339125,429598,19676
1577.36,1.339390,422039,19318
1580.4,1.340059,414375,18938
1583.43,1.327508,406354,19116
1586.46,1.339543,398475,18233
1590.49,1.338413,388982,17845
1593.51,1.337157,380708,17516
1596.53,1.330542,372727,17412
1599.54,1.331124,365060,17031
1602.55,1.334583,357543,16548
1605.55,1.329101,349495,16381
1608.55,1.334458,341154,15794
1612.54,1.327294,330877,15573
1615.53,1.335887,322904,14900
1618.51,1.320761,315116,15056
1621.49,1.328089,307217,14433
1624.47,1.339934,299481,13691
1627.44,1.331979,292112,13601
1630.41,1.328960,284245,13327
1634.36,1.325874,274079,12942
1637.32,1.339374,266916,12218
1640.27,1.324914,259612,12286
1643.22,1.317238,251804,12129
1646.16,1.323850,244348,11592
1649.1,1.311471,236703,11554
1652.04,1.314780,228171,11053
1655.95,1.338153,215408,9888
1658.88,1.329530,204937,9596
1661.8,1.313641,193395,9393
1664.72,1.343885,179728,8142
1667.63,1.352420,163642,7269
1670.54,1.308128,146312,7197
1673.44,1.341136,128451,5856
1677.31,1.331235,105080,4901
1680.21,1.330151,88906,4157
1683.1,1.361635,75033,3263
1685.99,1.271176,63520,3402
1688.87,1.382367,53714,2227
1691.75,1.309221,45653,2240
1694.62,1.312693,39137,1905
1697.49,1.345623,33776,1524
1701.31,1.391818,28175,1143

File: Column 1_078011_20241121_164108.csv
Method:,Column 1,,
Host Date-Time:,21/11/24 @ 16:41:8,,
Header Version:,1,,
System Temp (C):,29.35,,
Detector Temp (C):,24.79,,
Humidity (%):,7.25,,
Lamp PD:,3815,,
Shift Vector Coefficients:,-10.5391,0.0761263,-0.000134223,,
Pixel to Wavelength Coefficients:,1775.68,-0.916766,-0.000235065,,
Serial Number:,5510004,,
Scan Config Name:,Column 1,,
Scan Config Type:,Slew,,
Section 1,,
Start wavelength (nm):,900,,
End wavelength (nm):,1700,,
Pattern Pixel Width (nm):,   7.03,,,,
Exposure (ms):,  0.635,,,,
Digital Resolution:,228,,
Num Repeats:,6,,
PGA Gain:,64,,
Total Measurement Time in sec:,  2.723,,
Wavelength (nm),Absorbance (AU),Reference Signal (unitless),Sample Signal (unitless)
901.51,1.318782,108485,5207
905.376,1.315688,121306,5864
909.237,1.327463,131909,6206
913.095,1.294052,143299,7281
916.948,1.323227,156982,7458
922.079,1.313907,179937,8734
925.923,1.306006,200504,9911
929.762,1.312172,222660,10851
933.597,1.304860,244426,12114
937.427,1.309791,263972,12935
941.254,1.324139,281845,13362
945.076,1.319643,297271,14240
950.165,1.311539,315605,15403
953.978,1.315363,328029,15869
957.786,1.313360,340470,16547
961.59,1.306210,352317,17407
965.389,1.319999,363056,17377
969.185,1.303156,373162,18567
972.976,1.315328,382632,18512
976.763,1.316261,391202,18886
981.806,1.309081,400190,19642
985.583,1.306462,406088,20052
989.355,1.315786,410162,19823
993.124,1.309687,412868,20236
996.888,1.311796,414263,20206
1000.65,1.311457,415476,20281
1004.4,1.317888,415479,19983
1009.41,1.310072,414358,20291
1013.15,1.320544,412923,19739
1016.89,1.307222,411526,20285
1020.63,1.318453,409066,19649
1024.36,1.325874,406777,19208
1028.09,1.317697,404427,19460
1031.82,1.310215,401911,19675
1036.78,1.308961,398410,19560
1040.49,1.311507,396204,19338
1044.2,1.310469,394236,19288
1047.91,1.309692,392042,19215
1051.61,1.313855,389823,18924
1055.31,1.312701,388234,18897
1059,1.322316,387599,18453
1063.92,1.305373,386688,19142
1067.61,1.318658,386598,18561
1071.29,1.307555,387377,19080
1074.96,1.318078,388536,18679
1078.63,1.321087,389855,18613
1082.3,1.313799,391215,18994
1085.96,1.310877,393215,19220
1090.84,1.319695,396270,18980
1094.49,1.312641,398760,19412
1098.14,1.311695,400987,19563
1101.79,1.320869,403477,19273
1105.43,1.314780,406116,19673
1109.06,1.318263,407701,19592
1112.7,1.324050,409859,19435
1117.53,1.329478,412494,19317
1121.15,1.318773,414909,19915
1124.77,1.323978,416559,19756
1128.38,1.320916,418532,19990
1131.99,1.328055,419956,19731
1135.6,1.321758,421946,20114
1139.2,1.325953,423881,20012
1143.99,1.329267,426786,19996
1147.58,1.321525,428617,20443
1151.17,1.324422,431169,20428
1154.75,1.323750,433579,20574
1158.33,1.326832,436264,20555
1161.91,1.322470,439132,20899
1165.48,1.316447,442389,21348
1169.04,1.320850,446101,21310
1173.79,1.321180,451929,21572
1177.34,1.321311,456026,21761
1180.9,1.320265,461306,22066
1184.44,1.319854,467657,22391
1187.99,1.322045,473969,22579
1191.52,1.318666,479856,23038
1195.06,1.326340,487372,22989
1199.76,1.327536,497347,23395
1203.29,1.328519,504311,23669
1206.81,1.330000,511507,23925
1210.33,1.321850,519078,24739
1213.84,1.324892,527163,24949
1217.35,1.327138,534208,25152
1220.85,1.324482,540472,25603
1225.51,1.322918,549929,26145
1229.01,1.324197,556888,26398
1232.5,1.327269,562180,26461
1235.98,1.327005,567975,26750
1239.46,1.315702,574815,27786
1242.94,1.326126,582782,27503
1246.41,1.321765,591476,28195
1251.03,1.329446,604016,28288
1254.5,1.323496,612289,29071
1257.96,1.329335,619125,29003
1261.41,1.328597,624551,29307
1264.86,1.330260,629900,29445
1268.31,1.326829,634345,29888
1271.75,1.329395,638574,29910
1276.33,1.333292,642499,29825
1279.76,1.329257,645905,30263
1283.19,1.332335,648307,30161
1286.61,1.326908,650446,30641
1290.03,1.334616,652132,30180
1293.44,1.330718,653907,30535
1296.85,1.331669,655963,30564
1301.39,1.335809,657349,30338
1304.8,1.335018,657558,30403
1308.19,1.332688,658515,30611
1311.58,1.334399,658804,30504
1314.97,1.327965,659011,30969
1318.36,1.330447,658272,30758
1321.73,1.336325,658022,30333
1326.23,1.334710,657870,30439
1329.6,1.337173,656482,30203
1332.97,1.330868,654926,30572
1336.33,1.330542,653727,30539
1339.69,1.331405,652497,30421
1343.04,1.328555,649913,30500
1346.39,1.331592,647671,30183
1349.73,1.329809,645338,30198
1354.18,1.334089,641175,29709
1357.52,1.328245,638376,29980
1360.85,1.328540,635805,29839
1364.17,1.331188,633413,29546
1367.49,1.336931,631026,29048
1370.81,1.335611,628050,28999
1374.12,1.332488,625034,29068
1378.54,1.325448,620272,29318
1381.84,1.327841,616892,28998
1385.14,1.333599,613613,28464
1388.43,1.328412,611526,28708
1391.72,1.328586,610663,28656
1395.01,1.329172,610634,28616
1398.29,1.334982,611700,28285
1402.66,1.334978,614051,28394
1405.93,1.325936,616268,29096
1409.2,1.334721,617795,28584
1412.46,1.333628,618872,28706
1415.72,1.333308,619795,28770
1418.98,1.336342,620495,28602
1422.23,1.341673,621087,28280
1426.56,1.333193,621375,28851
1429.8,1.336913,621616,28616
1433.04,1.334397,622129,28806
1436.27,1.331841,621526,28948
1439.5,1.337549,621113,28551
1442.72,1.333749,620921,28793
1445.94,1.335077,620270,28675
1450.23,1.338473,618860,28387
1453.44,1.338882,617697,28307
1456.64,1.340288,616264,28150
1459.85,1.336290,614413,28325
1463.04,1.340743,612307,27940
1466.24,1.339515,610032,27915
1469.43,1.336215,607345,28004
1473.67,1.337122,603789,27782
1476.85,1.339763,601175,27494
1480.02,1.335286,597737,27620
1483.19,1.339472,594479,27206
1486.36,1.340201,591232,27012
1489.52,1.340778,587853,26822
1492.68,1.337699,583875,26830
1496.89,1.335577,578062,26693
1500.03,1.334853,574159,26557
1503.18,1.340985,570285,26008
1506.32,1.343844,565444,25618
1509.45,1.338968,560571,25684
1512.58,1.336000,555821,25641
1515.71,1.341012,550344,25097
1519.87,1.340644,543983,24828
1522.99,1.334520,538764,24939
1526.1,1.342310,533692,24265
1529.21,1.338935,527902,24189
1532.32,1.338651,521886,23929
1535.42,1.345740,515888,23271
1538.51,1.339012,509987,23364
1541.6,1.339064,503936,23084
1545.72,1.345506,494694,22327
1548.8,1.337404,488378,22457
1551.88,1.340137,481832,22017
1554.95,1.342813,474989,21571
1558.02,1.337235,467818,21520
1561.08,1.337152,460730,21198
1564.15,1.347269,454170,20415
1568.22,1.340878,444181,20262
1571.27,1.337860,436947,20071
1574.32,1.346785,429598,19332
1577.36,1.344911,422039,19074
1580.4,1.340863,414375,18903
1583.43,1.336575,406354,18721
1586.46,1.334334,398475,18453
1590.49,1.334295,388982,18015
1593.51,1.336216,380708,17554
1596.53,1.335282,372727,17223
1599.54,1.340116,365060,16682
1602.55,1.337321,357543,16444
1605.55,1.335000,349495,16160
1608.55,1.343910,341154,15454
1612.54,1.328411,330877,15533
1615.53,1.336733,322904,14871
1618.51,1.336324,315116,14526
1621.49,1.337764,307217,14115
1624.47,1.330210,299481,14001
1627.44,1.330799,292112,13638
1630.41,1.329939,284245,13297
1634.36,1.331957,274079,12762
1637.32,1.334567,266916,12354
1640.27,1.315819,259612,12546
1643.22,1.345914,251804,11354
1646.16,1.325164,244348,11557
1649.1,1.318138,236703,11378
1652.04,1.320197,228171,10916
1655.95,1.329844,215408,10079
1658.88,1.326508,204937,9663
1661.8,1.340583,193395,8828
1664.72,1.340273,179728,8210
1667.63,1.361415,163642,7120
1670.54,1.353571,146312,6482
1673.44,1.334221,128451,5950
1677.31,1.359707,105080,4590
1680.21,1.401772,88906,3525
1683.1,1.412854,75033,2900
1685.99,1.316197,63520,3067
1688.87,1.398458,53714,2146
1691.75,1.456709,45653,1595
1694.62,1.426750,39137,1465
1697.49,1.431698,33776,1250
1701.31,1.272327,28175,1505