Folder: textile_sorting_NIRSCAN_/ML/samples/unknown (part 6)

File: Column 1_078032_20241121_164209.csv
Method:,Column 1,,
Host Date-Time:,21/11/24 @ 16:42:9,,
Header Version:,1,,
System Temp (C):,30.25,,
Detector Temp (C):,25.14,,
Humidity (%):,6.09,,
Lamp PD:,3812,,
Shift Vector Coefficients:,-10.5391,0.0761263,-0.000134223,,
Pixel to Wavelength Coefficients:,1775.68,-0.916766,-0.000235065,,
Serial Number:,5510004,,
Scan Config Name:,Column 1,,
Scan Config Type:,Slew,,
Section 1,,
Start wavelength (nm):,900,,
End wavelength (nm):,1700,,
Pattern Pixel Width (nm):,   7.03,,,,
Exposure (ms):,  0.635,,,,
Digital Resolution:,228,,
Num Repeats:,6,,
PGA Gain:,64,,
Total Measurement Time in sec:,  2.725,,
Wavelength (nm),Absorbance (AU),Reference Signal (unitless),Sample Signal (unitless)
901.51,1.306286,108485,5359
905.376,1.303781,121306,6027
909.237,1.310715,131909,6450
913.095,1.324437,143299,6789
916.948,1.305094,156982,7776
922.079,1.309111,179937,8831
925.923,1.325681,200504,9472
929.762,1.307634,222660,10965
933.597,1.314759,244426,11841
937.427,1.320464,263972,12621
941.254,1.314115,281845,13674
945.076,1.309276,297271,14584
950.165,1.314197,315605,15309
953.978,1.316349,328029,15833
957.786,1.313543,340470,16540
961.59,1.312391,352317,17161
965.389,1.305208,363056,17979
969.185,1.309850,373162,18283
972.976,1.311242,382632,18687
976.763,1.309915,391202,19164
981.806,1.312945,400190,19468
985.583,1.307351,406088,20011
989.355,1.302453,410162,20441
993.124,1.313502,412868,20059
996.888,1.308968,414263,20338
1000.65,1.298379,415476,20901
1004.4,1.308855,415479,20403
1009.41,1.308491,414358,20365
1013.15,1.309873,412923,20230
1016.89,1.302919,411526,20487
1020.63,1.306915,409066,20178
1024.36,1.320057,406777,19467
1028.09,1.307071,404427,19942
1031.82,1.307421,401911,19802
1036.78,1.322240,398410,18971
1040.49,1.309022,396204,19449
1044.2,1.305099,394236,19528
1047.91,1.309783,392042,19211
1051.61,1.306256,389823,19258
1055.31,1.310066,388234,19012
1059,1.317052,387599,18678
1063.92,1.311589,386688,18870
1067.61,1.314166,386598,18754
1071.29,1.311075,387377,18926
1074.96,1.316453,388536,18749
1078.63,1.313592,389855,18937
1082.3,1.319507,391215,18746
1085.96,1.316654,393215,18966
1090.84,1.312389,396270,19302
1094.49,1.312619,398760,19413
1098.14,1.312228,400987,19539
1101.79,1.312169,403477,19663
1105.43,1.318193,406116,19519
1109.06,1.312428,407701,19857
1112.7,1.311909,409859,19986
1117.53,1.326967,412494,19429
1121.15,1.326584,414909,19560
1124.77,1.319712,416559,19951
1128.38,1.320200,418532,20023
1131.99,1.316629,419956,20257
1135.6,1.315584,421946,20402
1139.2,1.320240,423881,20277
1143.99,1.317187,426786,20560
1147.58,1.319236,428617,20551
1151.17,1.311994,431169,21021
1154.75,1.319966,433579,20754
1158.33,1.318856,436264,20936
1161.91,1.326268,439132,20717
1165.48,1.316834,442389,21329
1169.04,1.321931,446101,21257
1173.79,1.322935,451929,21485
1177.34,1.326067,456026,21524
1180.9,1.321764,461306,21990
1184.44,1.313978,467657,22696
1187.99,1.312157,473969,23099
1191.52,1.319893,479856,22973
1195.06,1.320878,487372,23280
1199.76,1.323343,497347,23622
1203.29,1.325447,504311,23837
1206.81,1.325737,511507,24161
1210.33,1.324651,519078,24580
1213.84,1.324370,527163,24979
1217.35,1.320745,534208,25525
1220.85,1.328076,540472,25392
1225.51,1.324849,549929,26029
1229.01,1.325977,556888,26290
1232.5,1.325108,562180,26593
1235.98,1.328942,567975,26631
1239.46,1.326767,574815,27087
1242.94,1.328438,582782,27357
1246.41,1.322752,591476,28131
1251.03,1.326951,604016,28451
1254.5,1.320371,612289,29281
1257.96,1.324481,619125,29329
1261.41,1.322169,624551,29744
1264.86,1.327320,629900,29645
1268.31,1.325813,634345,29958
1271.75,1.324787,638574,30229
1276.33,1.325528,642499,30363
1279.76,1.328912,645905,30287
1283.19,1.332191,648307,30171
1286.61,1.328044,650446,30561
1290.03,1.330948,652132,30436
1293.44,1.329029,653907,30654
1296.85,1.330690,655963,30633
1301.39,1.332075,657349,30600
1304.8,1.327638,657558,30924
1308.19,1.335378,658515,30422
1311.58,1.328868,658804,30895
1314.97,1.331613,659011,30710
1318.36,1.333864,658272,30517
1321.73,1.332931,658022,30571
1326.23,1.331143,657870,30690
1329.6,1.337273,656482,30196
1332.97,1.334076,654926,30347
1336.33,1.331253,653727,30489
1339.69,1.332907,652497,30316
1343.04,1.330353,649913,30374
1346.39,1.331635,647671,30180
1349.73,1.327800,645338,30338
1354.18,1.332323,641175,29830
1357.52,1.322189,638376,30401
1360.85,1.326159,635805,30003
1364.17,1.329135,633413,29686
1367.49,1.324696,631026,29878
1370.81,1.327319,628050,29558
1374.12,1.330387,625034,29209
1378.54,1.328824,620272,29091
1381.84,1.326137,616892,29112
1385.14,1.329589,613613,28728
1388.43,1.328730,611526,28687
1391.72,1.329132,610663,28620
1395.01,1.326328,610634,28804
1398.29,1.328702,611700,28697
1402.66,1.329159,614051,28777
1405.93,1.326354,616268,29068
1409.2,1.329436,617795,28934
1412.46,1.329847,618872,28957
1415.72,1.335685,619795,28613
1418.98,1.330730,620495,28974
1422.23,1.330021,621087,29049
1426.56,1.331360,621375,28973
1429.8,1.332684,621616,28896
1433.04,1.333825,622129,28844
1436.27,1.329865,621526,29080
1439.5,1.335047,621113,28716
1442.72,1.334882,620921,28718
1445.94,1.338529,620270,28448
1450.23,1.337678,618860,28439
1453.44,1.332500,617697,28726
1456.64,1.339025,616264,28232
1459.85,1.337211,614413,28265
1463.04,1.334202,612307,28364
1466.24,1.335936,610032,28146
1469.43,1.333541,607345,28177
1473.67,1.328746,603789,28323
1476.85,1.337746,601175,27622
1480.02,1.341574,597737,27223
1483.19,1.334299,594479,27532
1486.36,1.342911,591232,26844
1489.52,1.333807,587853,27256
1492.68,1.342959,583875,26507
1496.89,1.337076,578062,26601
1500.03,1.343475,574159,26035
1503.18,1.338404,570285,26163
1506.32,1.340787,565444,25799
1509.45,1.333323,560571,26020
1512.58,1.334782,555821,25713
1515.71,1.339527,550344,25183
1519.87,1.344562,543983,24605
1522.99,1.338280,538764,24724
1526.1,1.338018,533692,24506
1529.21,1.340050,527902,24127
1532.32,1.337310,521886,24003
1535.42,1.335632,515888,23819
1538.51,1.339607,509987,23332
1541.6,1.343508,503936,22849
1545.72,1.330819,494694,23095
1548.8,1.340276,488378,22309
1551.88,1.342015,481832,21922
1554.95,1.334577,474989,21984
1558.02,1.331362,467818,21813
1561.08,1.329616,460730,21569
1564.15,1.328513,454170,21316
1568.22,1.332304,444181,20666
1571.27,1.341576,436947,19900
1574.32,1.337143,429598,19766
1577.36,1.334828,422039,19522
1580.4,1.342151,414375,18847
1583.43,1.334423,406354,18814
1586.46,1.332549,398475,18529
1590.49,1.334464,388982,18008
1593.51,1.335894,380708,17567
1596.53,1.328800,372727,17482
1599.54,1.330665,365060,17049
1602.55,1.334898,357543,16536
1605.55,1.341634,349495,15915
1608.55,1.317710,341154,16415
1612.54,1.335941,330877,15266
1615.53,1.322880,322904,15353
1618.51,1.327359,315116,14829
1621.49,1.321311,307217,14660
1624.47,1.326412,299481,14124
1627.44,1.318554,292112,14028
1630.41,1.321689,284245,13552
1634.36,1.321434,274079,13075
1637.32,1.328320,266916,12533
1640.27,1.315266,259612,12562
1643.22,1.318672,251804,12089
1646.16,1.315244,244348,11824
1649.1,1.317108,236703,11405
1652.04,1.321073,228171,10894
1655.95,1.331355,215408,10044
1658.88,1.324714,204937,9703
1661.8,1.306669,193395,9545
1664.72,1.312360,179728,8755
1667.63,1.327460,163642,7699
1670.54,1.333346,146312,6791
1673.44,1.363350,128451,5564
1677.31,1.306688,105080,5186
1680.21,1.349157,88906,3979
1683.1,1.326863,75033,3535
1685.99,1.297625,63520,3201
1688.87,1.348611,53714,2407
1691.75,1.367435,45653,1959
1694.62,1.260351,39137,2149
1697.49,1.401828,33776,1339
1701.31,1.331269,28175,1314

File: Column 1_078034_20241121_164215.csv
Method:,Column 1,,
Host Date-Time:,21/11/24 @ 16:42:15,,
Header Version:,1,,
System Temp (C):,30.31,,
Detector Temp (C):,25.15,,
Humidity (%):,5.95,,
Lamp PD:,3811,,
Shift Vector Coefficients:,-10.5391,0.0761263,-0.000134223,,
Pixel to Wavelength Coefficients:,1775.68,-0.916766,-0.000235065,,
Serial Number:,5510004,,
Scan Config Name:,Column 1,,
Scan Config Type:,Slew,,
Section 1,,
Start wavelength (nm):,900,,
End wavelength (nm):,1700,,
Pattern Pixel Width (nm):,   7.03,,,,
Exposure (ms):,  0.635,,,,
Digital Resolution:,228,,
Num Repeats:,6,,
PGA Gain:,64,,
Total Measurement Time in sec:,  2.708,,
Wavelength (nm),Absorbance (AU),Reference Signal (unitless),Sample Signal (unitless)
901.51,1.319784,108485,5195
905.376,1.284542,121306,6300
909.237,1.337730,131909,6061
913.095,1.329585,143299,6709
916.948,1.329385,156982,7353
922.079,1.303297,179937,8950
925.923,1.307366,200504,9880
929.762,1.298153,222660,11207
933.597,1.310416,244426,11960
937.427,1.308216,263972,12982
941.254,1.313448,281845,13695
945.076,1.306456,297271,14679
950.165,1.311313,315605,15411
953.978,1.316678,328029,15821
957.786,1.311579,340470,16615
961.59,1.316689,352317,16992
965.389,1.309944,363056,17784
969.185,1.312542,373162,18170
972.976,1.312545,382632,18631
976.763,1.313076,391202,19025
981.806,1.300629,400190,20028
985.583,1.314396,406088,19689
989.355,1.305673,410162,20290
993.124,1.303634,412868,20520
996.888,1.308392,414263,20365
1000.65,1.305459,415476,20563
1004.4,1.315591,415479,20089
1009.41,1.308918,414358,20345
1013.15,1.311422,412923,20158
1016.89,1.318149,411526,19781
1020.63,1.304255,409066,20302
1024.36,1.298663,406777,20450
1028.09,1.314983,404427,19582
1031.82,1.309708,401911,19698
1036.78,1.314525,398410,19311
1040.49,1.310050,396204,19403
1044.2,1.311348,394236,19249
1047.91,1.316503,392042,18916
1051.61,1.317241,389823,18777
1055.31,1.308128,388234,19097
1059,1.308055,387599,19069
1063.92,1.305351,386688,19143
1067.61,1.316604,386598,18649
1071.29,1.311052,387377,18927
1074.96,1.311776,388536,18952
1078.63,1.317277,389855,18777
1082.3,1.318581,391215,18786
1085.96,1.318789,393215,18873
1090.84,1.314012,396270,19230
1094.49,1.316732,398760,19230
1098.14,1.311562,400987,19569
1101.79,1.319160,403477,19349
1105.43,1.320021,406116,19437
1109.06,1.314159,407701,19778
1112.7,1.321843,409859,19534
1117.53,1.325584,412494,19491
1121.15,1.317292,414909,19983
1124.77,1.317086,416559,20072
1128.38,1.324581,418532,19822
1131.99,1.314703,419956,20347
1135.6,1.318382,421946,20271
1139.2,1.321162,423881,20234
1143.99,1.312147,426786,20800
1147.58,1.324317,428617,20312
1151.17,1.325294,431169,20387
1154.75,1.321833,433579,20665
1158.33,1.323276,436264,20724
1161.91,1.330587,439132,20512
1165.48,1.314418,442389,21448
1169.04,1.321584,446101,21274
1173.79,1.314091,451929,21927
1177.34,1.316666,456026,21995
1180.9,1.324319,461306,21861
1184.44,1.322676,467657,22246
1187.99,1.321027,473969,22632
1191.52,1.320783,479856,22926
1195.06,1.323160,487372,23158
1199.76,1.326220,497347,23466
1203.29,1.318166,504311,24240
1206.81,1.322477,511507,24343
1210.33,1.319836,519078,24854
1213.84,1.329864,527163,24665
1217.35,1.331127,534208,24922
1220.85,1.325042,540472,25570
1225.51,1.319015,549929,26381
1229.01,1.321213,556888,26580
1232.5,1.326728,562180,26494
1235.98,1.322982,567975,26999
1239.46,1.329453,574815,26920
1242.94,1.321149,582782,27820
1246.41,1.327861,591476,27802
1251.03,1.325032,604016,28577
1254.5,1.327112,612289,28830
1257.96,1.328857,619125,29035
1261.41,1.328315,624551,29326
1264.86,1.324866,629900,29813
1268.31,1.328299,634345,29787
1271.75,1.326472,638574,30112
1276.33,1.327650,642499,30215
1279.76,1.327495,645905,30386
1283.19,1.332191,648307,30171
1286.61,1.323956,650446,30850
1290.03,1.333639,652132,30248
1293.44,1.333715,653907,30325
1296.85,1.333463,655963,30438
1301.39,1.329654,657349,30771
1304.8,1.336076,657558,30329
1308.19,1.333015,658515,30588
1311.58,1.331208,658804,30729
1314.97,1.330088,659011,30818
1318.36,1.332287,658272,30628
1321.73,1.335753,658022,30373
1326.23,1.331837,657870,30641
1329.6,1.342613,656482,29827
1332.97,1.333233,654926,30406
1336.33,1.335332,653727,30204
1339.69,1.336070,652497,30096
1343.04,1.332719,649913,30209
1346.39,1.330471,647671,30261
1349.73,1.328732,645338,30273
1354.18,1.331218,641175,29906
1357.52,1.330540,638376,29822
1360.85,1.328423,635805,29847
1364.17,1.333192,633413,29410
1367.49,1.326414,631026,29760
1370.81,1.325106,628050,29709
1374.12,1.332772,625034,29049
1378.54,1.335639,620272,28638
1381.84,1.335623,616892,28483
1385.14,1.334913,613613,28378
1388.43,1.330885,611526,28545
1391.72,1.329451,610663,28599
1395.01,1.332172,610634,28419
1398.29,1.327282,611700,28791
1402.66,1.334122,614051,28450
1405.93,1.332842,616268,28637
1409.2,1.338077,617795,28364
1412.46,1.331485,618872,28848
1415.72,1.336292,619795,28573
1418.98,1.335841,620495,28635
1422.23,1.332871,621087,28859
1426.56,1.338402,621375,28507
1429.8,1.335368,621616,28718
1433.04,1.335711,622129,28719
1436.27,1.334353,621526,28781
1439.5,1.332243,621113,28902
1442.72,1.335700,620921,28664
1445.94,1.333083,620270,28807
1450.23,1.337358,618860,28460
1453.44,1.333136,617697,28684
1456.64,1.334754,616264,28511
1459.85,1.341473,614413,27989
1463.04,1.339067,612307,28048
1466.24,1.337296,610032,28058
1469.43,1.337722,607345,27907
1473.67,1.345168,603789,27272
1476.85,1.340585,601175,27442
1480.02,1.333623,597737,27726
1483.19,1.341263,594479,27094
1486.36,1.334087,591232,27395
1489.52,1.335323,587853,27161
1492.68,1.341749,583875,26581
1496.89,1.334050,578062,26787
1500.03,1.336541,574159,26454
1503.18,1.335427,570285,26343
1506.32,1.344150,565444,25600
1509.45,1.340425,560571,25598
1512.58,1.336475,555821,25613
1515.71,1.340978,550344,25099
1519.87,1.336552,543983,25063
1522.99,1.340569,538764,24594
1526.1,1.337522,533692,24534
1529.21,1.344937,527902,23857
1532.32,1.340342,521886,23836
1535.42,1.341543,515888,23497
1538.51,1.340800,509987,23268
1541.6,1.341006,503936,22981
1545.72,1.337451,494694,22745
1548.8,1.339051,488378,22372
1551.88,1.336093,481832,22223
1554.95,1.342995,474989,21562
1558.02,1.338832,467818,21441
1561.08,1.335618,460730,21273
1564.15,1.333471,454170,21074
1568.22,1.339316,444181,20335
1571.27,1.335809,436947,20166
1574.32,1.332771,429598,19966
1577.36,1.339615,422039,19308
1580.4,1.334568,414375,19179
1583.43,1.345600,406354,18336
1586.46,1.341333,398475,18158
1590.49,1.343382,388982,17642
1593.51,1.338423,380708,17465
1596.53,1.334451,372727,17256
1599.54,1.327189,365060,17186
1602.55,1.334977,357543,16533
1605.55,1.327117,349495,16456
1608.55,1.327097,341154,16064
1612.54,1.336454,330877,15248
1615.53,1.320314,322904,15444
1618.51,1.321916,315116,15016
1621.49,1.327938,307217,14438
1624.47,1.331671,299481,13954
1627.44,1.325324,292112,13811
1630.41,1.324293,284245,13471
1634.36,1.330802,274079,12796
1637.32,1.327662,266916,12552
1640.27,1.327360,259612,12217
1643.22,1.330877,251804,11754
1646.16,1.340111,244348,11166
1649.1,1.321279,236703,11296
1652.04,1.318807,228171,10951
1655.95,1.341859,215408,9804
1658.88,1.320261,204937,9803
1661.8,1.312994,193395,9407
1664.72,1.318353,179728,8635
1667.63,1.347017,163642,7360
1670.54,1.346197,146312,6593
1673.44,1.351190,128451,5722
1677.31,1.356784,105080,4621
1680.21,1.353766,88906,3937
1683.1,1.385575,75033,3088
1685.99,1.329132,63520,2977
1688.87,1.381588,53714,2231
1691.75,1.334981,45653,2111
1694.62,1.486057,39137,1278
1697.49,1.336599,33776,1556
1701.31,1.367438,28175,1209

File: Column 1_078036_20241121_164221.csv
Method:,Column 1,,
Host Date-Time:,21/11/24 @ 16:42:21,,
Header Version:,1,,
System Temp (C):,30.39,,
Detector Temp (C):,25.19,,
Humidity (%):,5.9,,
Lamp PD:,3812,,
Shift Vector Coefficients:,-10.5391,0.0761263,-0.000134223,,
Pixel to Wavelength Coefficients:,1775.68,-0.916766,-0.000235065,,
Serial Number:,5510004,,
Scan Config Name:,Column 1,,
Scan Config Type:,Slew,,
Section 1,,
Start wavelength (nm):,900,,
End wavelength (nm):,1700,,
Pattern Pixel Width (nm):,   7.03,,,,
Exposure (ms):,  0.635,,,,
Digital Resolution:,228,,
Num Repeats:,6,,
PGA Gain:,64,,
Total Measurement Time in sec:,  2.706,,
Wavelength (nm),Absorbance (AU),Reference Signal (unitless),Sample Signal (unitless)
901.51,1.297303,108485,5471
905.376,1.302773,121306,6041
909.237,1.336657,131909,6076
913.095,1.327841,143299,6736
916.948,1.327029,156982,7393
922.079,1.296557,179937,9090
925.923,1.297931,200504,10097
929.762,1.303652,222660,11066
933.597,1.307629,244426,12037
937.427,1.325065,263972,12488
941.254,1.315069,281845,13644
945.076,1.311515,297271,14509
950.165,1.311792,315605,15394
953.978,1.309383,328029,16089
957.786,1.299159,340470,17097
961.59,1.309239,352317,17286
965.389,1.314807,363056,17586
969.185,1.302104,373162,18612
972.976,1.306549,382632,18890
976.763,1.312917,391202,19032
981.806,1.311164,400190,19548
985.583,1.308264,406088,19969
989.355,1.302517,410162,20438
993.124,1.313069,412868,20079
996.888,1.306498,414263,20454
1000.65,1.311050,415476,20300
1004.4,1.307962,415479,20445
1009.41,1.301468,414358,20697
1013.15,1.313040,412923,20083
1016.89,1.311072,411526,20106
1020.63,1.312809,409066,19906
1024.36,1.313965,406777,19742
1028.09,1.307703,404427,19913
1031.82,1.316283,401911,19402
1036.78,1.307521,398410,19625
1040.49,1.309111,396204,19445
1044.2,1.315110,394236,19083
1047.91,1.310914,392042,19161
1051.61,1.315027,389823,18873
1055.31,1.309632,388234,19031
1059,1.311255,387599,18929
1063.92,1.309225,386688,18973
1067.61,1.307821,386598,19030
1071.29,1.308193,387377,19052
1074.96,1.312418,388536,18924
1078.63,1.318249,389855,18735
1082.3,1.314944,391215,18944
1085.96,1.307613,393215,19365
1090.84,1.310234,396270,19398
1094.49,1.307371,398760,19649
1098.14,1.324194,400987,19008
1101.79,1.322812,403477,19187
1105.43,1.321476,406116,19372
1109.06,1.314687,407701,19754
1112.7,1.315224,409859,19834
1117.53,1.314887,412494,19977
1121.15,1.316510,414909,20019
1124.77,1.323297,416559,19787
1128.38,1.320981,418532,19987
1131.99,1.319900,419956,20105
1135.6,1.314818,421946,20438
1139.2,1.321334,423881,20226
1143.99,1.320836,426786,20388
1147.58,1.315135,428617,20746
1151.17,1.323657,431169,20464
1154.75,1.321308,433579,20690
1158.33,1.323213,436264,20727
1161.91,1.328622,439132,20605
1165.48,1.313770,442389,21480
1169.04,1.312433,446101,21727
1173.79,1.312470,451929,22009
1177.34,1.320214,456026,21816
1180.9,1.318498,461306,22156
1184.44,1.323985,467657,22179
1187.99,1.315820,473969,22905
1191.52,1.318855,479856,23028
1195.06,1.326624,487372,22974
1199.76,1.321820,497347,23705
1203.29,1.319260,504311,24179
1206.81,1.322638,511507,24334
1210.33,1.319400,519078,24879
1213.84,1.322531,527163,25085
1217.35,1.320592,534208,25534
1220.85,1.322840,540472,25700
1225.51,1.324132,549929,26072
1229.01,1.326721,556888,26245
1232.5,1.333768,562180,26068
1235.98,1.322451,567975,27032
1239.46,1.318682,574815,27596
1242.94,1.319855,582782,27903
1246.41,1.323030,591476,28113
1251.03,1.323242,604016,28695
1254.5,1.321321,612289,29217
1257.96,1.327199,619125,29146
1261.41,1.323660,624551,29642
1264.86,1.325551,629900,29766
1268.31,1.327716,634345,29827
1271.75,1.327902,638574,30013
1276.33,1.332521,642499,29878
1279.76,1.329845,645905,30222
1283.19,1.327780,648307,30479
1286.61,1.331969,650446,30286
1290.03,1.328274,652132,30624
1293.44,1.326036,653907,30866
1296.85,1.337923,655963,30127
1301.39,1.334180,657349,30452
1304.8,1.336019,657558,30333
1308.19,1.331187,658515,30717
1311.58,1.336011,658804,30391
1314.97,1.333228,659011,30596
1318.36,1.333522,658272,30541
1321.73,1.330650,658022,30732
1326.23,1.337616,657870,30236
1329.6,1.335107,656482,30347
1332.97,1.334306,654926,30331
1336.33,1.331895,653727,30444
1339.69,1.331476,652497,30416
1343.04,1.331384,649913,30302
1346.39,1.334146,647671,30006
1349.73,1.330846,645338,30126
1354.18,1.330580,641175,29950
1357.52,1.328216,638376,29982
1360.85,1.331798,635805,29616
1364.17,1.329340,633413,29672
1367.49,1.327232,631026,29704
1370.81,1.326835,628050,29591
1374.12,1.332982,625034,29035
1378.54,1.336748,620272,28565
1381.84,1.327691,616892,29008
1385.14,1.327914,613613,28839
1388.43,1.327460,611526,28771
1391.72,1.325806,610663,28840
1395.01,1.328550,610634,28657
1398.29,1.323961,611700,29012
1402.66,1.328013,614051,28853
1405.93,1.333540,616268,28591
1409.2,1.330187,617795,28884
1412.46,1.332480,618872,28782
1415.72,1.335139,619795,28649
1418.98,1.336038,620495,28622
1422.23,1.326997,621087,29252
1426.56,1.334067,621375,28793
1429.8,1.332925,621616,28880
1433.04,1.330749,622129,29049
1436.27,1.332036,621526,28935
1439.5,1.336835,621113,28598
1442.72,1.329860,620921,29052
1445.94,1.337995,620270,28483
1450.23,1.333151,618860,28737
1453.44,1.333939,617697,28631
1456.64,1.331824,616264,28704
1459.85,1.339739,614413,28101
1463.04,1.335167,612307,28301
1466.24,1.334273,610032,28254
1469.43,1.343077,607345,27565
1473.67,1.339929,603789,27603
1476.85,1.339668,601175,27500
1480.02,1.333623,597737,27726
1483.19,1.341376,594479,27087
1486.36,1.339783,591232,27038
1489.52,1.334301,587853,27225
1492.68,1.338866,583875,26758
1496.89,1.339040,578062,26481
1500.03,1.335508,574159,26517
1503.18,1.344506,570285,25798
1506.32,1.340618,565444,25809
1509.45,1.343199,560571,25435
1512.58,1.331250,555821,25923
1515.71,1.336999,550344,25330
1519.87,1.343293,543983,24677
1522.99,1.333493,538764,24998
1526.1,1.333189,533692,24780
1529.21,1.337877,527902,24248
1532.32,1.340014,521886,23854
1535.42,1.342264,515888,23458
1538.51,1.335365,509987,23561
1541.6,1.342976,503936,22877
1545.72,1.336154,494694,22813
1548.8,1.331469,488378,22766
1551.88,1.341204,481832,21963
1554.95,1.344488,474989,21488
1558.02,1.337457,467818,21509
1561.08,1.336456,460730,21232
1564.15,1.334297,454170,21034
1568.22,1.327414,444181,20900
1571.27,1.334519,436947,20226
1574.32,1.328227,429598,20176
1577.36,1.336701,422039,19438
1580.4,1.332241,414375,19282
1583.43,1.342344,406354,18474
1586.46,1.331519,398475,18573
1590.49,1.323698,388982,18460
1593.51,1.333749,380708,17654
1596.53,1.325779,372727,17604
1599.54,1.323917,365060,17316
1602.55,1.331888,357543,16651
1605.55,1.332935,349495,16237
1608.55,1.333086,341154,15844
1612.54,1.324487,330877,15674
1615.53,1.326060,322904,15241
1618.51,1.326013,315116,14875
1621.49,1.322765,307217,14611
1624.47,1.318097,299481,14397
1627.44,1.331404,292112,13619
1630.41,1.325455,284245,13435
1634.36,1.332195,274079,12755
1637.32,1.328632,266916,12524
1640.27,1.326934,259612,12229
1643.22,1.326319,251804,11878
1646.16,1.337436,244348,11235
1649.1,1.313430,236703,11502
1652.04,1.314702,228171,11055
1655.95,1.331355,215408,10044
1658.88,1.334400,204937,9489
1661.8,1.345381,193395,8731
1664.72,1.334023,179728,8329
1667.63,1.326165,163642,7722
1670.54,1.335398,146312,6759
1673.44,1.322838,128451,6108
1677.31,1.329908,105080,4916
1680.21,1.423368,88906,3354
1683.1,1.286309,75033,3881
1685.99,1.286111,63520,3287
1688.87,1.383539,53714,2221
1691.75,1.383237,45653,1889
1694.62,1.346582,39137,1762
1697.49,1.315622,33776,1633
1701.31,1.299415,28175,1414