Folder: textile_sorting_NIRSCAN_/ML/samples/unknown (part 85)

File: Column 1_078599_20241121_171037.csv
Method:,Column 1,,
Host Date-Time:,21/11/24 @ 17:10:37,,
Header Version:,1,,
System Temp (C):,36.93,,
Detector Temp (C):,34.91,,
Humidity (%):,1.08,,
Lamp PD:,3798,,
Shift Vector Coefficients:,-10.5391,0.0761263,-0.000134223,,
Pixel to Wavelength Coefficients:,1775.68,-0.916766,-0.000235065,,
Serial Number:,5510004,,
Scan Config Name:,Column 1,,
Scan Config Type:,Slew,,
Section 1,,
Start wavelength (nm):,900,,
End wavelength (nm):,1700,,
Pattern Pixel Width (nm):,   7.03,,,,
Exposure (ms):,  0.635,,,,
Digital Resolution:,228,,
Num Repeats:,6,,
PGA Gain:,64,,
Total Measurement Time in sec:,  2.724,,
Wavelength (nm),Absorbance (AU),Reference Signal (unitless),Sample Signal (unitless)
901.51,1.311176,108485,5299
905.376,1.322932,121306,5767
909.237,1.308833,131909,6478
913.095,1.332443,143299,6665
916.948,1.327970,156982,7377
922.079,1.333278,179937,8353
925.923,1.323943,200504,9510
929.762,1.309102,222660,10928
933.597,1.302857,244426,12170
937.427,1.322395,263972,12565
941.254,1.329733,281845,13191
945.076,1.315212,297271,14386
950.165,1.322185,315605,15030
953.978,1.310762,328029,16038
957.786,1.312337,340470,16586
961.59,1.308913,352317,17299
965.389,1.315054,363056,17576
969.185,1.305360,373162,18473
972.976,1.319216,382632,18347
976.763,1.301632,391202,19533
981.806,1.314666,400190,19391
985.583,1.306787,406088,20037
989.355,1.306766,410162,20239
993.124,1.311127,412868,20169
996.888,1.312183,414263,20188
1000.65,1.305143,415476,20578
1004.4,1.314274,415479,20150
1009.41,1.301217,414358,20709
1013.15,1.312435,412923,20111
1016.89,1.314890,411526,19930
1020.63,1.307928,409066,20131
1024.36,1.302931,406777,20250
1028.09,1.307137,404427,19939
1031.82,1.318033,401911,19324
1036.78,1.305908,398410,19698
1040.49,1.304092,396204,19671
1044.2,1.323566,394236,18715
1047.91,1.308068,392042,19287
1051.61,1.311041,389823,19047
1055.31,1.313299,388234,18871
1059,1.306169,387599,19152
1063.92,1.305373,386688,19142
1067.61,1.306067,386598,19107
1071.29,1.300556,387377,19390
1074.96,1.314396,388536,18838
1078.63,1.319526,389855,18680
1082.3,1.310632,391215,19133
1085.96,1.311261,393215,19203
1090.84,1.310817,396270,19372
1094.49,1.316371,398760,19246
1098.14,1.308532,400987,19706
1101.79,1.311308,403477,19702
1105.43,1.312687,406116,19768
1109.06,1.325663,407701,19261
1112.7,1.312061,409859,19979
1117.53,1.308371,412494,20279
1121.15,1.320521,414909,19835
1124.77,1.311967,416559,20310
1128.38,1.319290,418532,20065
1131.99,1.309042,419956,20614
1135.6,1.314585,421946,20449
1139.2,1.322646,423881,20165
1143.99,1.321817,426786,20342
1147.58,1.312984,428617,20849
1151.17,1.324656,431169,20417
1154.75,1.310896,433579,21192
1158.33,1.325292,436264,20628
1161.91,1.316464,439132,21190
1165.48,1.306095,442389,21863
1169.04,1.308731,446101,21913
1173.79,1.313952,451929,21934
1177.34,1.321770,456026,21738
1180.9,1.318184,461306,22172
1184.44,1.314955,467657,22645
1187.99,1.309439,473969,23244
1191.52,1.319043,479856,23018
1195.06,1.319183,487372,23371
1199.76,1.344709,497347,22488
1203.29,1.324755,504311,23875
1206.81,1.321159,511507,24417
1210.33,1.318702,519078,24919
1213.84,1.317060,527163,25403
1217.35,1.320524,534208,25538
1220.85,1.319004,540472,25928
1225.51,1.321028,549929,26259
1229.01,1.317131,556888,26831
1232.5,1.319139,562180,26961
1235.98,1.320895,567975,27129
1239.46,1.318304,574815,27620
1242.94,1.323717,582782,27656
1246.41,1.320243,591476,28294
1251.03,1.324591,604016,28606
1254.5,1.321633,612289,29196
1257.96,1.323697,619125,29382
1261.41,1.325820,624551,29495
1264.86,1.325931,629900,29740
1268.31,1.324683,634345,30036
1271.75,1.322209,638574,30409
1276.33,1.323587,642499,30499
1279.76,1.320688,645905,30866
1283.19,1.326187,648307,30591
1286.61,1.328015,650446,30563
1290.03,1.320641,652132,31167
1293.44,1.332842,653907,30386
1296.85,1.325336,655963,31013
1301.39,1.324324,657349,31151
1304.8,1.329045,657558,30824
1308.19,1.326127,658515,31077
1311.58,1.331307,658804,30722
1314.97,1.327909,659011,30973
1318.36,1.323222,658272,31274
1321.73,1.326613,658022,31019
1326.23,1.329956,657870,30774
1329.6,1.326436,656482,30959
1332.97,1.329181,654926,30691
1336.33,1.329576,653727,30607
1339.69,1.325267,652497,30854
1343.04,1.332460,649913,30227
1346.39,1.327995,647671,30434
1349.73,1.331408,645338,30087
1354.18,1.329334,641175,30036
1357.52,1.324222,638376,30259
1360.85,1.329954,635805,29742
1364.17,1.326903,633413,29839
1367.49,1.325918,631026,29794
1370.81,1.326277,628050,29629
1374.12,1.328162,625034,29359
1378.54,1.326620,620272,29239
1381.84,1.330786,616892,28802
1385.14,1.322437,613613,29205
1388.43,1.319785,611526,29284
1391.72,1.326650,610663,28784
1395.01,1.319967,610634,29229
1398.29,1.322944,611700,29080
1402.66,1.329899,614051,28728
1405.93,1.330272,616268,28807
1409.2,1.325075,617795,29226
1412.46,1.327902,618872,29087
1415.72,1.331065,619795,28919
1418.98,1.327936,620495,29161
1422.23,1.331459,621087,28953
1426.56,1.338951,621375,28471
1429.8,1.331199,621616,28995
1433.04,1.328914,622129,29172
1436.27,1.332862,621526,28880
1439.5,1.332814,621113,28864
1442.72,1.324025,620921,29445
1445.94,1.329824,620270,29024
1450.23,1.338764,618860,28368
1453.44,1.329953,617697,28895
1456.64,1.335349,616264,28472
1459.85,1.331882,614413,28614
1463.04,1.333911,612307,28383
1466.24,1.330858,610032,28477
1469.43,1.331910,607345,28283
1473.67,1.327292,603789,28418
1476.85,1.326448,601175,28350
1480.02,1.330206,597737,27945
1483.19,1.333826,594479,27562
1486.36,1.329576,591232,27681
1489.52,1.341053,587853,26805
1492.68,1.337764,583875,26826
1496.89,1.335821,578062,26678
1500.03,1.334641,574159,26570
1503.18,1.335509,570285,26338
1506.32,1.334171,565444,26195
1509.45,1.337011,560571,25800
1512.58,1.337935,555821,25527
1515.71,1.339372,550344,25192
1519.87,1.332740,543983,25284
1522.99,1.332227,538764,25071
1526.1,1.331615,533692,24870
1529.21,1.331071,527902,24631
1532.32,1.330738,521886,24369
1535.42,1.337715,515888,23705
1538.51,1.329234,509987,23896
1541.6,1.328067,503936,23676
1545.72,1.332835,494694,22988
1548.8,1.337153,488378,22470
1551.88,1.332086,481832,22429
1554.95,1.333176,474989,22055
1558.02,1.333557,467818,21703
1561.08,1.342843,460730,20922
1564.15,1.332751,454170,21109
1568.22,1.335573,444181,20511
1571.27,1.334884,436947,20209
1574.32,1.331143,429598,20041
1577.36,1.327811,422039,19840
1580.4,1.334590,414375,19178
1583.43,1.326056,406354,19180
1586.46,1.328559,398475,18700
1590.49,1.331005,388982,18152
1593.51,1.332668,380708,17698
1596.53,1.338928,372727,17079
1599.54,1.314170,365060,17709
1602.55,1.325390,357543,16902
1605.55,1.321141,349495,16684
1608.55,1.324536,341154,16159
1612.54,1.315628,330877,15997
1615.53,1.324666,322904,15290
1618.51,1.329414,315116,14759
1621.49,1.322438,307217,14622
1624.47,1.331453,299481,13961
1627.44,1.327026,292112,13757
1630.41,1.330364,284245,13284
1634.36,1.308379,274079,13474
1637.32,1.309866,266916,13077
1640.27,1.325763,259612,12262
1643.22,1.305754,251804,12454
1646.16,1.305331,244348,12097
1649.1,1.310495,236703,11580
1652.04,1.294627,228171,11578
1655.95,1.299597,215408,10806
1658.88,1.303063,204937,10199
1661.8,1.275044,193395,10266
1664.72,1.267934,179728,9698
1667.63,1.263287,163642,8925
1670.54,1.242295,146312,8375
1673.44,1.231021,128451,7546
1677.31,1.209075,105080,6493
1680.21,1.216618,88906,5399
1683.1,1.189779,75033,4847
1685.99,1.147772,63520,4520
1688.87,1.221558,53714,3225
1691.75,1.156360,45653,3185
1694.62,1.212919,39137,2397
1697.49,1.132234,33776,2491
1701.31,1.202136,28175,1769

File: Column 1_078601_20241121_171043.csv
Method:,Column 1,,
Host Date-Time:,21/11/24 @ 17:10:43,,
Header Version:,1,,
System Temp (C):,36.97,,
Detector Temp (C):,34.91,,
Humidity (%):,0.98,,
Lamp PD:,3798,,
Shift Vector Coefficients:,-10.5391,0.0761263,-0.000134223,,
Pixel to Wavelength Coefficients:,1775.68,-0.916766,-0.000235065,,
Serial Number:,5510004,,
Scan Config Name:,Column 1,,
Scan Config Type:,Slew,,
Section 1,,
Start wavelength (nm):,900,,
End wavelength (nm):,1700,,
Pattern Pixel Width (nm):,   7.03,,,,
Exposure (ms):,  0.635,,,,
Digital Resolution:,228,,
Num Repeats:,6,,
PGA Gain:,64,,
Total Measurement Time in sec:,  2.727,,
Wavelength (nm),Absorbance (AU),Reference Signal (unitless),Sample Signal (unitless)
901.51,1.304749,108485,5378
905.376,1.318959,121306,5820
909.237,1.322176,131909,6282
913.095,1.291376,143299,7326
916.948,1.310206,156982,7685
922.079,1.321077,179937,8591
925.923,1.327519,200504,9432
929.762,1.317893,222660,10709
933.597,1.319516,244426,11712
937.427,1.326319,263972,12452
941.254,1.316663,281845,13594
945.076,1.317240,297271,14319
950.165,1.312724,315605,15361
953.978,1.323986,328029,15557
957.786,1.302346,340470,16972
961.59,1.302954,352317,17538
965.389,1.307606,363056,17880
969.185,1.303413,373162,18556
972.976,1.304943,382632,18960
976.763,1.305249,391202,19371
981.806,1.307580,400190,19710
985.583,1.302345,406088,20243
989.355,1.306166,410162,20267
993.124,1.299631,412868,20710
996.888,1.301474,414263,20692
1000.65,1.301381,415476,20757
1004.4,1.308430,415479,20423
1009.41,1.315413,414358,20043
1013.15,1.305452,412923,20437
1016.89,1.301184,411526,20569
1020.63,1.299976,409066,20503
1024.36,1.306571,406777,20081
1028.09,1.297636,404427,20380
1031.82,1.301951,401911,20053
1036.78,1.301783,398410,19886
1040.49,1.303188,396204,19712
1044.2,1.301400,394236,19695
1047.91,1.309150,392042,19239
1051.61,1.305288,389823,19301
1055.31,1.314543,388234,18817
1059,1.306577,387599,19134
1063.92,1.308036,386688,19025
1067.61,1.303190,386598,19234
1071.29,1.303230,387377,19271
1074.96,1.311662,388536,18957
1078.63,1.306269,389855,19259
1082.3,1.313479,391215,19008
1085.96,1.308219,393215,19338
1090.84,1.306267,396270,19576
1094.49,1.318860,398760,19136
1098.14,1.309922,400987,19643
1101.79,1.311154,403477,19709
1105.43,1.317459,406116,19552
1109.06,1.309290,407701,20001
1112.7,1.308920,409859,20124
1117.53,1.308542,412494,20271
1121.15,1.305247,414909,20545
1124.77,1.317844,416559,20037
1128.38,1.307461,418532,20619
1131.99,1.323435,419956,19942
1135.6,1.316821,421946,20344
1139.2,1.329090,423881,19868
1143.99,1.319177,426786,20466
1147.58,1.317844,428617,20617
1151.17,1.305392,431169,21343
1154.75,1.318025,433579,20847
1158.33,1.302290,436264,21750
1161.91,1.310500,439132,21483
1165.48,1.307866,442389,21774
1169.04,1.311834,446101,21757
1173.79,1.317391,451929,21761
1177.34,1.307271,456026,22476
1180.9,1.314848,461306,22343
1184.44,1.318750,467657,22448
1187.99,1.322026,473969,22580
1191.52,1.314221,479856,23275
1195.06,1.318867,487372,23388
1199.76,1.319280,497347,23844
1203.29,1.306656,504311,24891
1206.81,1.323478,511507,24287
1210.33,1.320676,519078,24806
1213.84,1.319288,527163,25273
1217.35,1.323167,534208,25383
1220.85,1.317683,540472,26007
1225.51,1.320466,549929,26293
1229.01,1.316500,556888,26870
1232.5,1.318399,562180,27007
1235.98,1.326049,567975,26809
1239.46,1.319801,574815,27525
1242.94,1.315380,582782,28192
1246.41,1.318405,591476,28414
1251.03,1.317484,604016,29078
1254.5,1.321559,612289,29201
1257.96,1.317358,619125,29814
1261.41,1.324952,624551,29554
1264.86,1.320821,629900,30092
1268.31,1.323240,634345,30136
1271.75,1.323482,638574,30320
1276.33,1.323644,642499,30495
1279.76,1.325229,645905,30545
1283.19,1.327239,648307,30517
1286.61,1.325564,650446,30736
1290.03,1.325137,652132,30846
1293.44,1.325445,653907,30908
1296.85,1.325182,655963,31024
1301.39,1.321503,657349,31354
1304.8,1.324239,657558,31167
1308.19,1.323299,658515,31280
1311.58,1.327619,658804,30984
1314.97,1.325546,659011,31142
1318.36,1.324139,658272,31208
1321.73,1.333528,658022,30529
1326.23,1.324041,657870,31196
1329.6,1.325847,656482,31001
1332.97,1.328912,654926,30710
1336.33,1.324890,653727,30939
1339.69,1.325830,652497,30814
1343.04,1.324883,649913,30759
1346.39,1.322071,647671,30852
1349.73,1.323498,645338,30640
1354.18,1.323461,641175,30445
1357.52,1.327912,638376,30003
1360.85,1.319252,635805,30484
1364.17,1.321364,633413,30222
1367.49,1.319983,631026,30204
1370.81,1.320815,628050,30004
1374.12,1.321673,625034,29801
1378.54,1.318089,620272,29819
1381.84,1.326286,616892,29102
1385.14,1.319872,613613,29378
1388.43,1.324961,611526,28937
1391.72,1.323868,610663,28969
1395.01,1.328823,610634,28639
1398.29,1.324155,611700,28999
1402.66,1.323357,614051,29164
1405.93,1.326384,616268,29066
1409.2,1.327878,617795,29038
1412.46,1.325772,618872,29230
1415.72,1.324255,619795,29376
1418.98,1.327861,620495,29166
1422.23,1.326952,621087,29255
1426.56,1.326486,621375,29300
1429.8,1.326136,621616,29335
1433.04,1.330989,622129,29033
1436.27,1.328374,621526,29180
1439.5,1.331792,621113,28932
1442.72,1.328174,620921,29165
1445.94,1.332420,620270,28851
1450.23,1.328656,618860,29036
1453.44,1.326286,617697,29140
1456.64,1.331371,616264,28734
1459.85,1.321874,614413,29281
1463.04,1.334815,612307,28324
1466.24,1.332157,610032,28392
1469.43,1.333186,607345,28200
1473.67,1.334690,603789,27938
1476.85,1.326984,601175,28315
1480.02,1.330020,597737,27957
1483.19,1.327522,594479,27965
1486.36,1.328120,591232,27774
1489.52,1.338243,587853,26979
1492.68,1.335584,583875,26961
1496.89,1.336603,578062,26630
1500.03,1.331708,574159,26750
1503.18,1.329483,570285,26706
1506.32,1.332483,565444,26297
1509.45,1.333874,560571,25987
1512.58,1.336339,555821,25621
1515.71,1.330634,550344,25704
1519.87,1.331453,543983,25359
1522.99,1.339159,538764,24674
1526.1,1.331545,533692,24874
1529.21,1.338971,527902,24187
1532.32,1.327082,521886,24575
1535.42,1.335085,515888,23849
1538.51,1.335642,509987,23546
1541.6,1.322508,503936,23981
1545.72,1.339767,494694,22624
1548.8,1.333420,488378,22664
1551.88,1.330019,481832,22536
1554.95,1.335566,474989,21934
1558.02,1.322747,467818,22250
1561.08,1.326667,460730,21716
1564.15,1.330555,454170,21216
1568.22,1.340535,444181,20278
1571.27,1.318540,436947,20984
1574.32,1.325780,429598,20290
1577.36,1.320690,422039,20168
1580.4,1.324872,414375,19612
1583.43,1.326963,406354,19140
1586.46,1.329024,398475,18680
1590.49,1.327621,388982,18294
1593.51,1.323826,380708,18062
1596.53,1.321679,372727,17771
1599.54,1.318681,365060,17526
1602.55,1.323570,357543,16973
1605.55,1.321037,349495,16688
1608.55,1.323811,341154,16186
1612.54,1.326626,330877,15597
1615.53,1.323900,322904,15317
1618.51,1.314887,315116,15261
1621.49,1.322676,307217,14614
1624.47,1.310561,299481,14649
1627.44,1.306976,292112,14407
1630.41,1.325067,284245,13447
1634.36,1.303826,274079,13616
1637.32,1.306163,266916,13189
1640.27,1.322658,259612,12350
1643.22,1.301106,251804,12588
1646.16,1.323177,244348,11610
1649.1,1.320511,236703,11316
1652.04,1.299796,228171,11441
1655.95,1.289153,215408,11069
1658.88,1.274672,204937,10888
1661.8,1.280836,193395,10130
1664.72,1.264455,179728,9776
1667.63,1.246675,163642,9273
1670.54,1.228264,146312,8650
1673.44,1.203644,128451,8037
1677.31,1.186654,105080,6837
1680.21,1.168542,88906,6031
1683.1,1.138856,75033,5450
1685.99,1.152312,63520,4473
1688.87,1.126078,53714,4018
1691.75,1.151209,45653,3223
1694.62,1.117789,39137,2984
1697.49,1.137320,33776,2462
1701.31,1.159607,28175,1951

File: Column 1_078603_20241121_171049.csv
Method:,Column 1,,
Host Date-Time:,21/11/24 @ 17:10:49,,
Header Version:,1,,
System Temp (C):,36.98,,
Detector Temp (C):,34.96,,
Humidity (%):,1.03,,
Lamp PD:,3798,,
Shift Vector Coefficients:,-10.5391,0.0761263,-0.000134223,,
Pixel to Wavelength Coefficients:,1775.68,-0.916766,-0.000235065,,
Serial Number:,5510004,,
Scan Config Name:,Column 1,,
Scan Config Type:,Slew,,
Section 1,,
Start wavelength (nm):,900,,
End wavelength (nm):,1700,,
Pattern Pixel Width (nm):,   7.03,,,,
Exposure (ms):,  0.635,,,,
Digital Resolution:,228,,
Num Repeats:,6,,
PGA Gain:,64,,
Total Measurement Time in sec:,  2.726,,
Wavelength (nm),Absorbance (AU),Reference Signal (unitless),Sample Signal (unitless)
901.51,1.323225,108485,5154
905.376,1.304574,121306,6016
909.237,1.318802,131909,6331
913.095,1.314696,143299,6943
916.948,1.319748,156982,7518
922.079,1.335519,179937,8310
925.923,1.320259,200504,9591
929.762,1.329108,222660,10436
933.597,1.327979,244426,11486
937.427,1.330137,263972,12343
941.254,1.312910,281845,13712
945.076,1.324303,297271,14088
950.165,1.309120,315605,15489
953.978,1.314433,328029,15903
957.786,1.315807,340470,16454
961.59,1.310447,352317,17238
965.389,1.300547,363056,18173
969.185,1.305242,373162,18478
972.976,1.304371,382632,18985
976.763,1.308602,391202,19222
981.806,1.307646,400190,19707
985.583,1.298033,406088,20445
989.355,1.302900,410162,20420
993.124,1.305182,412868,20447
996.888,1.299881,414263,20768
1000.65,1.304869,415476,20591
1004.4,1.300757,415479,20787
1009.41,1.310886,414358,20253
1013.15,1.306005,412923,20411
1016.89,1.302072,411526,20527
1020.63,1.294064,409066,20784
1024.36,1.305513,406777,20130
1028.09,1.299879,404427,20275
1031.82,1.305845,401911,19874
1036.78,1.303621,398410,19802
1040.49,1.310453,396204,19385
1044.2,1.308022,394236,19397
1047.91,1.306405,392042,19361
1051.61,1.318678,389823,18715
1055.31,1.300487,388234,19436
1059,1.306123,387599,19154
1063.92,1.313850,386688,18772
1067.61,1.317280,386598,18620
1071.29,1.307487,387377,19083
1074.96,1.309354,388536,19058
1078.63,1.307218,389855,19217
1082.3,1.304010,391215,19427
1085.96,1.311963,393215,19172
1090.84,1.311400,396270,19346
1094.49,1.310543,398760,19506
1098.14,1.306136,400987,19815
1101.79,1.307752,403477,19864
1105.43,1.309601,406116,19909
1109.06,1.313808,407701,19794
1112.7,1.314262,409859,19878
1117.53,1.318095,412494,19830
1121.15,1.313505,414909,20158
1124.77,1.318017,416559,20029
1128.38,1.320373,418532,20015
1131.99,1.320397,419956,20082
1135.6,1.313355,421946,20507
1139.2,1.314200,423881,20561
1143.99,1.316174,426786,20608
1147.58,1.317339,428617,20641
1151.17,1.317357,431169,20763
1154.75,1.320385,433579,20734
1158.33,1.317758,436264,20989
1161.91,1.311715,439132,21423
1165.48,1.322243,442389,21065
1169.04,1.314417,446101,21628
1173.79,1.307682,451929,22253
1177.34,1.321031,456026,21775
1180.9,1.312405,461306,22469
1184.44,1.316146,467657,22583
1187.99,1.315914,473969,22900
1191.52,1.322548,479856,22833
1195.06,1.314709,487372,23613
1199.76,1.320978,497347,23751
1203.29,1.313426,504311,24506
1206.81,1.324194,511507,24247
1210.33,1.320186,519078,24834
1213.84,1.320062,527163,25228
1217.35,1.319980,534208,25570
1220.85,1.316749,540472,26063
1225.51,1.318588,549929,26407
1229.01,1.318606,556888,26740
1232.5,1.322357,562180,26762
1235.98,1.313216,567975,27613
1239.46,1.318981,574815,27577
1242.94,1.318922,582782,27963
1246.41,1.320873,591476,28253
1251.03,1.323076,604016,28706
1254.5,1.318905,612289,29380
1257.96,1.321324,619125,29543
1261.41,1.323324,624551,29665
1264.86,1.319725,629900,30168
1268.31,1.321198,634345,30278
1271.75,1.320271,638574,30545
1276.33,1.328398,642499,30163
1279.76,1.329228,645905,30265
1283.19,1.324006,648307,30745
1286.61,1.325239,650446,30759
1290.03,1.324082,652132,30921
1293.44,1.325853,653907,30879
1296.85,1.319259,655963,31450
1301.39,1.334708,657349,30415
1304.8,1.326586,657558,30999
1308.19,1.328298,658515,30922
1311.58,1.320970,658804,31462
1314.97,1.326258,659011,31091
1318.36,1.329516,658272,30824
1321.73,1.327580,658022,30950
1326.23,1.325897,657870,31063
1329.6,1.328686,656482,30799
1332.97,1.327684,654926,30797
1336.33,1.328442,653727,30687
1339.69,1.328460,652497,30628
1343.04,1.323628,649913,30848
1346.39,1.328052,647671,30430
1349.73,1.328617,645338,30281
1354.18,1.325563,641175,30298
1357.52,1.325876,638376,30144
1360.85,1.327116,635805,29937
1364.17,1.329516,633413,29660
1367.49,1.331360,631026,29423
1370.81,1.328688,628050,29465
1374.12,1.324905,625034,29580
1378.54,1.317725,620272,29844
1381.84,1.318097,616892,29656
1385.14,1.328668,613613,28789
1388.43,1.319162,611526,29326
1391.72,1.324513,610663,28926
1395.01,1.321798,610634,29106
1398.29,1.320888,611700,29218
1402.66,1.324565,614051,29083
1405.93,1.330996,616268,28759
1409.2,1.328162,617795,29019
1412.46,1.328709,618872,29033
1415.72,1.322662,619795,29484
1418.98,1.325930,620495,29296
1422.23,1.326151,621087,29309
1426.56,1.331555,621375,28960
1429.8,1.336853,621616,28620
1433.04,1.332607,622129,28925
1436.27,1.328314,621526,29184
1439.5,1.328666,621113,29141
1442.72,1.332394,620921,28883
1445.94,1.330707,620270,28965
1450.23,1.325660,618860,29237
1453.44,1.335702,617697,28515
1456.64,1.337858,616264,28308
1459.85,1.337965,614413,28216
1463.04,1.335582,612307,28274
1466.24,1.331805,610032,28415
1469.43,1.331112,607345,28335
1473.67,1.332968,603789,28049
1476.85,1.337212,601175,27656
1480.02,1.332966,597737,27768
1483.19,1.333716,594479,27569
1486.36,1.333073,591232,27459
1489.52,1.336973,587853,27058
1492.68,1.334121,583875,27052
1496.89,1.333597,578062,26815
1500.03,1.333042,574159,26668
1503.18,1.334307,570285,26411
1506.32,1.340686,565444,25805
1509.45,1.333841,560571,25989
1512.58,1.342433,555821,25264
1515.71,1.331191,550344,25671
1519.87,1.335341,543983,25133
1522.99,1.329567,538764,25225
1526.1,1.331999,533692,24848
1529.21,1.338433,527902,24217
1532.32,1.329368,521886,24446
1535.42,1.322769,515888,24535
1538.51,1.330836,509987,23808
1541.6,1.336457,503936,23223
1545.72,1.336726,494694,22783
1548.8,1.337578,488378,22448
1551.88,1.318945,481832,23118
1554.95,1.330115,474989,22211
1558.02,1.334739,467818,21644
1561.08,1.343487,460730,20891
1564.15,1.336325,454170,20936
1568.22,1.330019,444181,20775
1571.27,1.331822,436947,20352
1574.32,1.326744,429598,20245
1577.36,1.330468,422039,19719
1580.4,1.331117,414375,19332
1583.43,1.334816,406354,18797
1586.46,1.331589,398475,18570
1590.49,1.328001,388982,18278
1593.51,1.328540,380708,17867
1596.53,1.325139,372727,17630
1599.54,1.322764,365060,17362
1602.55,1.323902,357543,16960
1605.55,1.321323,349495,16677
1608.55,1.337660,341154,15678
1612.54,1.323518,330877,15709
1615.53,1.325178,322904,15272
1618.51,1.324673,315116,14921
1621.49,1.319213,307217,14731
1624.47,1.321976,299481,14269
1627.44,1.318120,292112,14042
1630.41,1.316022,284245,13730
1634.36,1.321235,274079,13081
1637.32,1.324765,266916,12636
1640.27,1.308406,259612,12762
1643.22,1.312430,251804,12264
1646.16,1.304041,244348,12133
1649.1,1.308736,236703,11627
1652.04,1.303226,228171,11351
1655.95,1.293610,215408,10956
1658.88,1.308850,204937,10064
1661.8,1.280193,193395,10145
1664.72,1.262460,179728,9821
1667.63,1.254281,163642,9112
1670.54,1.239916,146312,8421
1673.44,1.252250,128451,7186
1677.31,1.192860,105080,6740
1680.21,1.180885,88906,5862
1683.1,1.140133,75033,5434
1685.99,1.120495,63520,4813
1688.87,1.154207,53714,3766
1691.75,1.147720,45653,3249
1694.62,1.203954,39137,2447
1697.49,1.173924,33776,2263
1701.31,1.221977,28175,1690