Folder: textile_sorting_NIRSCAN_/ML/samples/unknown (part 64)

File: Column 1_078440_20241121_170247.csv
Method:,Column 1,,
Host Date-Time:,21/11/24 @ 17:2:47,,
Header Version:,1,,
System Temp (C):,34.9,,
Detector Temp (C):,33.77,,
Humidity (%):,1.96,,
Lamp PD:,3802,,
Shift Vector Coefficients:,-10.5391,0.0761263,-0.000134223,,
Pixel to Wavelength Coefficients:,1775.68,-0.916766,-0.000235065,,
Serial Number:,5510004,,
Scan Config Name:,Column 1,,
Scan Config Type:,Slew,,
Section 1,,
Start wavelength (nm):,900,,
End wavelength (nm):,1700,,
Pattern Pixel Width (nm):,   7.03,,,,
Exposure (ms):,  0.635,,,,
Digital Resolution:,228,,
Num Repeats:,6,,
PGA Gain:,64,,
Total Measurement Time in sec:,  2.706,,
Wavelength (nm),Absorbance (AU),Reference Signal (unitless),Sample Signal (unitless)
901.51,1.313230,108485,5274
905.376,1.334919,121306,5610
909.237,1.304232,131909,6547
913.095,1.317394,143299,6900
916.948,1.312302,156982,7648
922.079,1.315951,179937,8693
925.923,1.312985,200504,9753
929.762,1.320415,222660,10647
933.597,1.335107,244426,11299
937.427,1.323572,263972,12531
941.254,1.313924,281845,13680
945.076,1.306367,297271,14682
950.165,1.326249,315605,14890
953.978,1.306156,328029,16209
957.786,1.310691,340470,16649
961.59,1.312745,352317,17147
965.389,1.310824,363056,17748
969.185,1.318172,373162,17936
972.976,1.307723,382632,18839
976.763,1.316353,391202,18882
981.806,1.314532,400190,19397
985.583,1.308220,406088,19971
989.355,1.309803,410162,20098
993.124,1.303846,412868,20510
996.888,1.309823,414263,20298
1000.65,1.312142,415476,20249
1004.4,1.308961,415479,20398
1009.41,1.310286,414358,20281
1013.15,1.304688,412923,20473
1016.89,1.306794,411526,20305
1020.63,1.306184,409066,20212
1024.36,1.301454,406777,20319
1028.09,1.308162,404427,19892
1031.82,1.300437,401911,20123
1036.78,1.312484,398410,19402
1040.49,1.309916,396204,19409
1044.2,1.311551,394236,19240
1047.91,1.319591,392042,18782
1051.61,1.315073,389823,18871
1055.31,1.320258,388234,18571
1059,1.303163,387599,19285
1063.92,1.307147,386688,19064
1067.61,1.306363,386598,19094
1071.29,1.313884,387377,18804
1074.96,1.321041,388536,18552
1078.63,1.316514,389855,18810
1082.3,1.316598,391215,18872
1085.96,1.314872,393215,19044
1090.84,1.309116,396270,19448
1094.49,1.318135,398760,19168
1098.14,1.323737,400987,19028
1101.79,1.311882,403477,19676
1105.43,1.315796,406116,19627
1109.06,1.323504,407701,19357
1112.7,1.316826,409859,19761
1117.53,1.318972,412494,19790
1121.15,1.314995,414909,20089
1124.77,1.323209,416559,19791
1128.38,1.323859,418532,19855
1131.99,1.318799,419956,20156
1135.6,1.319906,421946,20200
1139.2,1.312829,423881,20626
1143.99,1.321624,426786,20351
1147.58,1.326031,428617,20232
1151.17,1.316000,431169,20828
1154.75,1.317442,433579,20875
1158.33,1.307917,436264,21470
1161.91,1.314215,439132,21300
1165.48,1.322140,442389,21070
1169.04,1.320117,446101,21346
1173.79,1.318851,451929,21688
1177.34,1.306730,456026,22504
1180.9,1.315490,461306,22310
1184.44,1.328354,467657,21957
1187.99,1.327173,473969,22314
1191.52,1.314837,479856,23242
1195.06,1.323403,487372,23145
1199.76,1.319062,497347,23856
1203.29,1.318560,504311,24218
1206.81,1.316225,511507,24696
1210.33,1.319278,519078,24886
1213.84,1.319942,527163,25235
1217.35,1.321460,534208,25483
1220.85,1.323889,540472,25638
1225.51,1.328384,549929,25818
1229.01,1.325350,556888,26328
1232.5,1.325860,562180,26547
1235.98,1.317261,567975,27357
1239.46,1.324736,574815,27214
1242.94,1.323905,582782,27644
1246.41,1.325913,591476,27927
1251.03,1.326310,604016,28493
1254.5,1.326389,612289,28878
1257.96,1.323062,619125,29425
1261.41,1.329086,624551,29274
1264.86,1.322759,629900,29958
1268.31,1.325450,634345,29983
1271.75,1.327945,638574,30010
1276.33,1.330158,642499,30041
1279.76,1.328726,645905,30300
1283.19,1.326514,648307,30568
1286.61,1.333780,650446,30160
1290.03,1.329196,652132,30559
1293.44,1.329015,653907,30655
1296.85,1.335594,655963,30289
1301.39,1.332089,657349,30599
1304.8,1.332553,657558,30576
1308.19,1.329508,658515,30836
1311.58,1.328348,658804,30932
1314.97,1.332009,659011,30682
1318.36,1.326694,658272,31025
1321.73,1.331767,658022,30653
1326.23,1.336454,657870,30317
1329.6,1.334106,656482,30417
1332.97,1.327811,654926,30788
1336.33,1.330755,653727,30524
1339.69,1.329496,652497,30555
1343.04,1.329825,649913,30411
1346.39,1.333799,647671,30030
1349.73,1.331827,645338,30058
1354.18,1.325319,641175,30315
1357.52,1.329159,638376,29917
1360.85,1.325884,635805,30022
1364.17,1.324088,633413,30033
1367.49,1.327101,631026,29713
1370.81,1.328924,628050,29449
1374.12,1.321717,625034,29798
1378.54,1.327512,620272,29179
1381.84,1.326033,616892,29119
1385.14,1.327207,613613,28886
1388.43,1.335012,611526,28275
1391.72,1.322177,610663,29082
1395.01,1.326057,610634,28822
1398.29,1.329732,611700,28629
1402.66,1.325896,614051,28994
1405.93,1.332206,616268,28679
1409.2,1.330142,617795,28887
1412.46,1.333326,618872,28726
1415.72,1.332841,619795,28801
1418.98,1.330041,620495,29020
1422.23,1.327799,621087,29198
1426.56,1.338052,621375,28530
1429.8,1.330077,621616,29070
1433.04,1.334956,622129,28769
1436.27,1.337184,621526,28594
1439.5,1.328800,621113,29132
1442.72,1.335366,620921,28686
1445.94,1.333113,620270,28805
1450.23,1.334847,618860,28625
1453.44,1.331172,617697,28814
1456.64,1.334282,616264,28542
1459.85,1.330881,614413,28680
1463.04,1.338325,612307,28096
1466.24,1.333520,610032,28303
1469.43,1.330347,607345,28385
1473.67,1.336154,603789,27844
1476.85,1.334753,601175,27813
1480.02,1.327773,597737,28102
1483.19,1.339073,594479,27231
1486.36,1.330566,591232,27618
1489.52,1.335451,587853,27153
1492.68,1.342157,583875,26556
1496.89,1.341722,578062,26318
1500.03,1.342076,574159,26119
1503.18,1.337112,570285,26241
1506.32,1.335250,565444,26130
1509.45,1.339814,560571,25634
1512.58,1.339077,555821,25460
1515.71,1.334708,550344,25464
1519.87,1.336085,543983,25090
1522.99,1.329086,538764,25253
1526.1,1.336974,533692,24565
1529.21,1.335805,527902,24364
1532.32,1.337527,521886,23991
1535.42,1.341358,515888,23507
1538.51,1.332646,509987,23709
1541.6,1.334852,503936,23309
1545.72,1.335869,494694,22828
1548.8,1.338275,488378,22412
1551.88,1.339940,481832,22027
1554.95,1.327989,474989,22320
1558.02,1.337881,467818,21488
1561.08,1.337070,460730,21202
1564.15,1.327312,454170,21375
1568.22,1.334706,444181,20552
1571.27,1.339942,436947,19975
1574.32,1.335915,429598,19822
1577.36,1.338044,422039,19378
1580.4,1.342313,414375,18840
1583.43,1.329329,406354,19036
1586.46,1.329955,398475,18640
1590.49,1.332347,388982,18096
1593.51,1.332030,380708,17724
1596.53,1.333495,372727,17294
1599.54,1.333656,365060,16932
1602.55,1.326496,357543,16859
1605.55,1.323071,349495,16610
1608.55,1.333360,341154,15834
1612.54,1.335089,330877,15296
1615.53,1.318798,322904,15498
1618.51,1.314887,315116,15261
1621.49,1.319862,307217,14709
1624.47,1.333292,299481,13902
1627.44,1.322941,292112,13887
1630.41,1.325714,284245,13427
1634.36,1.331175,274079,12785
1637.32,1.315011,266916,12923
1640.27,1.318423,259612,12471
1643.22,1.320580,251804,12036
1646.16,1.299944,244348,12248
1649.1,1.306464,236703,11688
1652.04,1.307997,228171,11227
1655.95,1.309064,215408,10573
1658.88,1.299965,204937,10272
1661.8,1.296862,193395,9763
1664.72,1.286460,179728,9293
1667.63,1.269363,163642,8801
1670.54,1.230984,146312,8596
1673.44,1.222134,128451,7702
1677.31,1.213579,105080,6426
1680.21,1.182370,88906,5842
1683.1,1.178285,75033,4977
1685.99,1.166623,63520,4328
1688.87,1.183915,53714,3517
1691.75,1.177597,45653,3033
1694.62,1.203421,39137,2450
1697.49,1.218127,33776,2044
1701.31,1.204351,28175,1760

File: Column 1_078441_20241121_170250.csv
Method:,Column 1,,
Host Date-Time:,21/11/24 @ 17:2:50,,
Header Version:,1,,
System Temp (C):,34.86,,
Detector Temp (C):,33.77,,
Humidity (%):,1.96,,
Lamp PD:,3802,,
Shift Vector Coefficients:,-10.5391,0.0761263,-0.000134223,,
Pixel to Wavelength Coefficients:,1775.68,-0.916766,-0.000235065,,
Serial Number:,5510004,,
Scan Config Name:,Column 1,,
Scan Config Type:,Slew,,
Section 1,,
Start wavelength (nm):,900,,
End wavelength (nm):,1700,,
Pattern Pixel Width (nm):,   7.03,,,,
Exposure (ms):,  0.635,,,,
Digital Resolution:,228,,
Num Repeats:,6,,
PGA Gain:,64,,
Total Measurement Time in sec:,  2.721,,
Wavelength (nm),Absorbance (AU),Reference Signal (unitless),Sample Signal (unitless)
901.51,1.320035,108485,5192
905.376,1.339668,121306,5549
909.237,1.330623,131909,6161
913.095,1.326554,143299,6756
916.948,1.326208,156982,7407
922.079,1.330945,179937,8398
925.923,1.344420,200504,9072
929.762,1.322336,222660,10600
933.597,1.322269,244426,11638
937.427,1.324578,263972,12502
941.254,1.320707,281845,13468
945.076,1.315001,297271,14393
950.165,1.313913,315605,15319
953.978,1.306478,328029,16197
957.786,1.308946,340470,16716
961.59,1.312087,352317,17173
965.389,1.313352,363056,17645
969.185,1.312686,373162,18164
972.976,1.307470,382632,18850
976.763,1.310074,391202,19157
981.806,1.314800,400190,19385
985.583,1.305316,406088,20105
989.355,1.309457,410162,20114
993.124,1.307930,412868,20318
996.888,1.308840,414263,20344
1000.65,1.312035,415476,20254
1004.4,1.312918,415479,20213
1009.41,1.306300,414358,20468
1013.15,1.314991,412923,19993
1016.89,1.317666,411526,19803
1020.63,1.311850,409066,19950
1024.36,1.302460,406777,20272
1028.09,1.297828,404427,20371
1031.82,1.312717,401911,19562
1036.78,1.312193,398410,19415
1040.49,1.309826,396204,19413
1044.2,1.307194,394236,19434
1047.91,1.306764,392042,19345
1051.61,1.307001,389823,19225
1055.31,1.310752,388234,18982
1059,1.309675,387599,18998
1063.92,1.310004,386688,18939
1067.61,1.313032,386598,18803
1071.29,1.319018,387377,18583
1074.96,1.323600,388536,18443
1078.63,1.317508,389855,18767
1082.3,1.306633,391215,19310
1085.96,1.309118,393215,19298
1090.84,1.309005,396270,19453
1094.49,1.310499,398760,19508
1098.14,1.318451,400987,19261
1101.79,1.313275,403477,19613
1105.43,1.319463,406116,19462
1109.06,1.308813,407701,20023
1112.7,1.320268,409859,19605
1117.53,1.313932,412494,20021
1121.15,1.314282,414909,20122
1124.77,1.318777,416559,19994
1128.38,1.317669,418532,20140
1131.99,1.313063,419956,20424
1135.6,1.322580,421946,20076
1139.2,1.314369,423881,20553
1143.99,1.321326,426786,20365
1147.58,1.323356,428617,20357
1151.17,1.312987,431169,20973
1154.75,1.321518,433579,20680
1158.33,1.310697,436264,21333
1161.91,1.321432,439132,20949
1165.48,1.313467,442389,21495
1169.04,1.316067,446101,21546
1173.79,1.319753,451929,21643
1177.34,1.315857,456026,22036
1180.9,1.320994,461306,22029
1184.44,1.323535,467657,22202
1187.99,1.312232,473969,23095
1191.52,1.311821,479856,23404
1195.06,1.320151,487372,23319
1199.76,1.316937,497347,23973
1203.29,1.322379,504311,24006
1206.81,1.323728,511507,24273
1210.33,1.320746,519078,24802
1213.84,1.316035,527163,25463
1217.35,1.321528,534208,25479
1220.85,1.320884,540472,25816
1225.51,1.318571,549929,26408
1229.01,1.318249,556888,26762
1232.5,1.321141,562180,26837
1235.98,1.327867,567975,26697
1239.46,1.318242,574815,27624
1242.94,1.325117,582782,27567
1246.41,1.322443,591476,28151
1251.03,1.319880,604016,28918
1254.5,1.326976,612289,28839
1257.96,1.320604,619125,29592
1261.41,1.328582,624551,29308
1264.86,1.326047,629900,29732
1268.31,1.324712,634345,30034
1271.75,1.326255,638574,30127
1276.33,1.329104,642499,30114
1279.76,1.331746,645905,30090
1283.19,1.329436,648307,30363
1286.61,1.327305,650446,30613
1290.03,1.327013,652132,30713
1293.44,1.329809,653907,30599
1296.85,1.330024,655963,30680
1301.39,1.326210,657349,31016
1304.8,1.329383,657558,30800
1308.19,1.334579,658515,30478
1311.58,1.330135,658804,30805
1314.97,1.331740,659011,30701
1318.36,1.331140,658272,30709
1321.73,1.331782,658022,30652
1326.23,1.330238,657870,30754
1329.6,1.332596,656482,30523
1332.97,1.332962,654926,30425
1336.33,1.336873,653727,30097
1339.69,1.330834,652497,30461
1343.04,1.331011,649913,30328
1346.39,1.333091,647671,30079
1349.73,1.327958,645338,30327
1354.18,1.327444,641175,30167
1357.52,1.327116,638376,30058
1360.85,1.322742,635805,30240
1364.17,1.332720,633413,29442
1367.49,1.325379,631026,29831
1370.81,1.330120,628050,29368
1374.12,1.329689,625034,29256
1378.54,1.328182,620272,29134
1381.84,1.327213,616892,29040
1385.14,1.327929,613613,28838
1388.43,1.325097,611526,28928
1391.72,1.329709,610663,28582
1395.01,1.326539,610634,28790
1398.29,1.324200,611700,28996
1402.66,1.332948,614051,28527
1405.93,1.330784,616268,28773
1409.2,1.333962,617795,28634
1412.46,1.329547,618872,28977
1415.72,1.328161,619795,29113
1418.98,1.329831,620495,29034
1422.23,1.332119,621087,28909
1426.56,1.333886,621375,28805
1429.8,1.331364,621616,28984
1433.04,1.339462,622129,28472
1436.27,1.333073,621526,28866
1439.5,1.338189,621113,28509
1442.72,1.336094,620921,28638
1445.94,1.333445,620270,28783
1450.23,1.342685,618860,28113
1453.44,1.338391,617697,28339
1456.64,1.331567,616264,28721
1459.85,1.336551,614413,28308
1463.04,1.336551,612307,28211
1466.24,1.331011,610032,28467
1469.43,1.335549,607345,28047
1473.67,1.330929,603789,28181
1476.85,1.338045,601175,27603
1480.02,1.335412,597737,27612
1483.19,1.341231,594479,27096
1486.36,1.338917,591232,27092
1489.52,1.339823,587853,26881
1492.68,1.341471,583875,26598
1496.89,1.340947,578062,26365
1500.03,1.340399,574159,26220
1503.18,1.342038,570285,25945
1506.32,1.335533,565444,26113
1509.45,1.332573,560571,26065
1512.58,1.337612,555821,25546
1515.71,1.338459,550344,25245
1519.87,1.338950,543983,24925
1522.99,1.337210,538764,24785
1526.1,1.352194,533692,23719
1529.21,1.343738,527902,23923
1532.32,1.335342,521886,24112
1535.42,1.330232,515888,24117
1538.51,1.332060,509987,23741
1541.6,1.335878,503936,23254
1545.72,1.333100,494694,22974
1548.8,1.336246,488378,22517
1551.88,1.336210,481832,22217
1554.95,1.340064,474989,21708
1558.02,1.331541,467818,21804
1561.08,1.327808,460730,21659
1564.15,1.333039,454170,21095
1568.22,1.338015,444181,20396
1571.27,1.332291,436947,20330
1574.32,1.337517,429598,19749
1577.36,1.339121,422039,19330
1580.4,1.331656,414375,19308
1583.43,1.326577,406354,19157
1586.46,1.336126,398475,18377
1590.49,1.329715,388982,18206
1593.51,1.324861,380708,18019
1596.53,1.329471,372727,17455
1599.54,1.322815,365060,17360
1602.55,1.326213,357543,16870
1605.55,1.335807,349495,16130
1608.55,1.327800,341154,16038
1612.54,1.326598,330877,15598
1615.53,1.319836,322904,15461
1618.51,1.324178,315116,14938
1621.49,1.325269,307217,14527
1624.47,1.326319,299481,14127
1627.44,1.318554,292112,14028
1630.41,1.332330,284245,13224
1634.36,1.336816,274079,12620
1637.32,1.310398,266916,13061
1640.27,1.316339,259612,12531
1643.22,1.312289,251804,12268
1646.16,1.303862,244348,12138
1649.1,1.306910,236703,11676
1652.04,1.302118,228171,11380
1655.95,1.300240,215408,10790
1658.88,1.309281,204937,10054
1661.8,1.285534,193395,10021
1664.72,1.276618,179728,9506
1667.63,1.262314,163642,8945
1670.54,1.254122,146312,8150
1673.44,1.236640,128451,7449
1677.31,1.192925,105080,6739
1680.21,1.167822,88906,6041
1683.1,1.174116,75033,5025
1685.99,1.192996,63520,4073
1688.87,1.193908,53714,3437
1691.75,1.210145,45653,2814
1694.62,1.207339,39137,2428
1697.49,1.306673,33776,1667
1701.31,1.200176,28175,1777

File: Column 1_078448_20241121_170311.csv
Method:,Column 1,,
Host Date-Time:,21/11/24 @ 17:3:11,,
Header Version:,1,,
System Temp (C):,34.61,,
Detector Temp (C):,33.75,,
Humidity (%):,1.95,,
Lamp PD:,3801,,
Shift Vector Coefficients:,-10.5391,0.0761263,-0.000134223,,
Pixel to Wavelength Coefficients:,1775.68,-0.916766,-0.000235065,,
Serial Number:,5510004,,
Scan Config Name:,Column 1,,
Scan Config Type:,Slew,,
Section 1,,
Start wavelength (nm):,900,,
End wavelength (nm):,1700,,
Pattern Pixel Width (nm):,   7.03,,,,
Exposure (ms):,  0.635,,,,
Digital Resolution:,228,,
Num Repeats:,6,,
PGA Gain:,64,,
Total Measurement Time in sec:,  2.907,,
Wavelength (nm),Absorbance (AU),Reference Signal (unitless),Sample Signal (unitless)
901.51,1.296748,108485,5478
905.376,1.310608,121306,5933
909.237,1.303106,131909,6564
913.095,1.305230,143299,7096
916.948,1.341301,156982,7154
922.079,1.333122,179937,8356
925.923,1.322939,200504,9532
929.762,1.311333,222660,10872
933.597,1.314979,244426,11835
937.427,1.315843,263972,12756
941.254,1.320804,281845,13465
945.076,1.310947,297271,14528
950.165,1.323168,315605,14996
953.978,1.322788,328029,15600
957.786,1.316785,340470,16417
961.59,1.311784,352317,17185
965.389,1.309578,363056,17799
969.185,1.309826,373162,18284
972.976,1.305929,382632,18917
976.763,1.316583,391202,18872
981.806,1.310587,400190,19574
985.583,1.315280,406088,19649
989.355,1.311296,410162,20029
993.124,1.307845,412868,20322
996.888,1.311280,414263,20230
1000.65,1.303058,415476,20677
1004.4,1.305737,415479,20550
1009.41,1.313510,414358,20131
1013.15,1.305664,412923,20427
1016.89,1.317469,411526,19812
1020.63,1.301887,409066,20413
1024.36,1.300963,406777,20342
1028.09,1.310219,404427,19798
1031.82,1.309708,401911,19698
1036.78,1.312238,398410,19413
1040.49,1.318686,396204,19021
1044.2,1.304232,394236,19567
1047.91,1.312800,392042,19078
1051.61,1.310107,389823,19088
1055.31,1.312402,388234,18910
1059,1.318007,387599,18637
1063.92,1.313180,386688,18801
1067.61,1.313726,386598,18773
1071.29,1.311948,387377,18888
1074.96,1.321556,388536,18530
1078.63,1.309711,389855,19107
1082.3,1.308866,391215,19211
1085.96,1.316746,393215,18962
1090.84,1.317003,396270,19098
1094.49,1.309898,398760,19535
1098.14,1.311340,400987,19579
1101.79,1.310296,403477,19748
1105.43,1.309884,406116,19896
1109.06,1.310769,407701,19933
1112.7,1.316408,409859,19780
1117.53,1.317307,412494,19866
1121.15,1.316945,414909,19999
1124.77,1.317974,416559,20031
1128.38,1.316055,418532,20215
1131.99,1.320613,419956,20072
1135.6,1.315861,421946,20389
1139.2,1.320733,423881,20254
1143.99,1.315606,426786,20635
1147.58,1.318877,428617,20568
1151.17,1.320211,431169,20627
1154.75,1.319047,433579,20798
1158.33,1.323611,436264,20708
1161.91,1.320479,439132,20995
1165.48,1.321090,442389,21121
1169.04,1.315885,446101,21555
1173.79,1.312944,451929,21985
1177.34,1.310218,456026,22324
1180.9,1.318694,461306,22146
1184.44,1.327327,467657,22009
1187.99,1.318940,473969,22741
1191.52,1.324130,479856,22750
1195.06,1.316867,487372,23496
1199.76,1.319116,497347,23853
1203.29,1.319817,504311,24148
1206.81,1.320679,511507,24444
1210.33,1.324421,519078,24593
1213.84,1.327686,527163,24789
1217.35,1.329423,534208,25020
1220.85,1.344939,540472,24425
1225.51,1.326487,549929,25931
1229.01,1.327384,556888,26205
1232.5,1.322795,562180,26735
1235.98,1.319665,567975,27206
1239.46,1.324034,574815,27258
1242.94,1.320899,582782,27836
1246.41,1.324438,591476,28022
1251.03,1.325260,604016,28562
1254.5,1.329014,612289,28704
1257.96,1.327080,619125,29154
1261.41,1.329012,624551,29279
1264.86,1.330408,629900,29435
1268.31,1.328912,634345,29745
1271.75,1.328829,638574,29949
1276.33,1.328326,642499,30168
1279.76,1.330766,645905,30158
1283.19,1.326485,648307,30570
1286.61,1.335121,650446,30067
1290.03,1.331862,652132,30372
1293.44,1.326528,653907,30831
1296.85,1.323156,655963,31169
1301.39,1.333211,657349,30520
1304.8,1.333236,657558,30528
1308.19,1.325261,658515,31139
1311.58,1.334015,658804,30531
1314.97,1.327083,659011,31032
1318.36,1.329516,658272,30824
1321.73,1.331753,658022,30654
1326.23,1.330818,657870,30713
1329.6,1.331913,656482,30571
1332.97,1.326360,654926,30891
1336.33,1.331752,653727,30454
1339.69,1.325126,652497,30864
1343.04,1.326170,649913,30668
1346.39,1.328895,647671,30371
1349.73,1.334261,645338,29890
1354.18,1.328078,641175,30123
1357.52,1.332057,638376,29718
1360.85,1.332678,635805,29556
1364.17,1.325900,633413,29908
1367.49,1.332750,631026,29329
1370.81,1.329056,628050,29440
1374.12,1.327231,625034,29422
1378.54,1.327676,620272,29168
1381.84,1.325854,616892,29131
1385.14,1.325122,613613,29025
1388.43,1.327113,611526,28794
1391.72,1.331155,610663,28487
1395.01,1.326630,610634,28784
1398.29,1.323482,611700,29044
1402.66,1.324864,614051,29063
1405.93,1.328406,616268,28931
1409.2,1.332796,617795,28711
1412.46,1.330928,618872,28885
1415.72,1.327654,619795,29147
1418.98,1.334599,620495,28717
1422.23,1.333458,621087,28820
1426.56,1.335048,621375,28728
1429.8,1.334296,621616,28789
1433.04,1.329063,622129,29162
1436.27,1.333374,621526,28846
1439.5,1.333160,621113,28841
1442.72,1.330938,620921,28980
1445.94,1.336215,620270,28600
1450.23,1.332125,618860,28805
1453.44,1.331458,617697,28795
1456.64,1.334648,616264,28518
1459.85,1.333220,614413,28526
1463.04,1.334110,612307,28370
1466.24,1.332356,610032,28379
1469.43,1.337629,607345,27913
1473.67,1.335499,603789,27886
1476.85,1.329075,601175,28179
1480.02,1.331950,597737,27833
1483.19,1.338133,594479,27290
1486.36,1.331085,591232,27585
1489.52,1.348224,587853,26366
1492.68,1.339532,583875,26717
1496.89,1.333597,578062,26815
1500.03,1.339787,574159,26257
1503.18,1.338820,570285,26138
1506.32,1.339358,565444,25884
1509.45,1.338275,560571,25725
1512.58,1.333500,555821,25789
1515.71,1.340424,550344,25131
1519.87,1.338497,543983,24951
1522.99,1.342215,538764,24501
1526.1,1.339367,533692,24430
1529.21,1.343248,527902,23950
1532.32,1.341967,521886,23747
1535.42,1.336764,515888,23757
1538.51,1.334831,509987,23590
1541.6,1.328967,503936,23627
1545.72,1.333327,494694,22962
1548.8,1.335494,488378,22556
1551.88,1.340611,481832,21993
1554.95,1.340284,474989,21697
1558.02,1.335040,467818,21629
1561.08,1.343217,460730,20904
1564.15,1.332957,454170,21099
1568.22,1.340235,444181,20292
1571.27,1.335766,436947,20168
1574.32,1.336507,429598,19795
1577.36,1.328556,422039,19806
1580.4,1.329525,414375,19403
1583.43,1.342438,406354,18470
1586.46,1.332081,398475,18549
1590.49,1.336640,388982,17918
1593.51,1.333331,380708,17671
1596.53,1.330093,372727,17430
1599.54,1.336719,365060,16813
1602.55,1.328097,357543,16797
1605.55,1.328279,349495,16412
1608.55,1.325720,341154,16115
1612.54,1.325402,330877,15641
1615.53,1.323248,322904,15340
1618.51,1.329796,315116,14746
1621.49,1.330775,307217,14344
1624.47,1.324540,299481,14185
1627.44,1.328164,292112,13721
1630.41,1.320889,284245,13577
1634.36,1.329920,274079,12822
1637.32,1.312131,266916,13009
1640.27,1.328428,259612,12187
1643.22,1.320256,251804,12045
1646.16,1.316790,244348,11782
1649.1,1.309633,236703,11603
1652.04,1.311843,228171,11128
1655.95,1.301086,215408,10769
1658.88,1.308763,204937,10066
1661.8,1.287315,193395,9980
1664.72,1.279552,179728,9442
1667.63,1.254090,163642,9116
1670.54,1.240897,146312,8402
1673.44,1.217256,128451,7789
1677.31,1.225362,105080,6254
1680.21,1.175950,88906,5929
1683.1,1.208173,75033,4646
1685.99,1.188541,63520,4115
1688.87,1.185647,53714,3503
1691.75,1.127735,45653,3402
1694.62,1.114310,39137,3008
1697.49,1.219830,33776,2036
1701.31,1.214841,28175,1718