Folder: textile_sorting_NIRSCAN_/ML/samples/unknown (part 99)

File: Column 1_078701_20241121_171801.csv
Method:,Column 1,,
Host Date-Time:,21/11/24 @ 17:18:1,,
Header Version:,1,,
System Temp (C):,35.46,,
Detector Temp (C):,34.36,,
Humidity (%):,1.66,,
Lamp PD:,3799,,
Shift Vector Coefficients:,-10.5391,0.0761263,-0.000134223,,
Pixel to Wavelength Coefficients:,1775.68,-0.916766,-0.000235065,,
Serial Number:,5510004,,
Scan Config Name:,Column 1,,
Scan Config Type:,Slew,,
Section 1,,
Start wavelength (nm):,900,,
End wavelength (nm):,1700,,
Pattern Pixel Width (nm):,   7.03,,,,
Exposure (ms):,  0.635,,,,
Digital Resolution:,228,,
Num Repeats:,6,,
PGA Gain:,64,,
Total Measurement Time in sec:,  2.729,,
Wavelength (nm),Absorbance (AU),Reference Signal (unitless),Sample Signal (unitless)
901.51,1.308887,108485,5327
905.376,1.310242,121306,5938
909.237,1.302775,131909,6569
913.095,1.327197,143299,6746
916.948,1.329385,156982,7353
922.079,1.334528,179937,8329
925.923,1.334950,200504,9272
929.762,1.302358,222660,11099
933.597,1.315383,244426,11824
937.427,1.308986,263972,12959
941.254,1.304006,281845,13996
945.076,1.320009,297271,14228
950.165,1.317415,315605,15196
953.978,1.310573,328029,16045
957.786,1.299896,340470,17068
961.59,1.312467,352317,17158
965.389,1.305450,363056,17969
969.185,1.308664,373162,18333
972.976,1.308462,382632,18807
976.763,1.302122,391202,19511
981.806,1.304746,400190,19839
985.583,1.300034,406088,20351
989.355,1.304284,410162,20355
993.124,1.303401,412868,20531
996.888,1.304169,414263,20564
1000.65,1.309107,415476,20391
1004.4,1.307028,415479,20489
1009.41,1.305177,414358,20521
1013.15,1.310453,412923,20203
1016.89,1.298112,411526,20715
1020.63,1.310590,409066,20008
1024.36,1.301818,406777,20302
1028.09,1.308162,404427,19892
1031.82,1.311165,401911,19632
1036.78,1.305159,398410,19732
1040.49,1.309111,396204,19445
1044.2,1.305544,394236,19508
1047.91,1.294501,392042,19899
1051.61,1.302127,389823,19442
1055.31,1.299549,388234,19478
1059,1.301455,387599,19361
1063.92,1.307694,386688,19040
1067.61,1.313495,386598,18783
1071.29,1.315017,387377,18755
1074.96,1.311341,388536,18971
1078.63,1.303012,389855,19404
1082.3,1.306858,391215,19300
1085.96,1.314393,393215,19065
1090.84,1.307311,396270,19529
1094.49,1.304639,398760,19773
1098.14,1.310896,400987,19599
1101.79,1.313585,403477,19599
1105.43,1.310277,406116,19878
1109.06,1.315787,407701,19704
1112.7,1.316804,409859,19762
1117.53,1.321547,412494,19673
1121.15,1.316402,414909,20024
1124.77,1.315294,416559,20155
1128.38,1.312375,418532,20387
1131.99,1.320202,419956,20091
1135.6,1.317162,421946,20328
1139.2,1.310980,423881,20714
1143.99,1.315269,426786,20651
1147.58,1.309726,428617,21006
1151.17,1.319917,431169,20641
1154.75,1.313548,433579,21063
1158.33,1.314727,436264,21136
1161.91,1.321992,439132,20922
1165.48,1.312659,442389,21535
1169.04,1.312114,446101,21743
1173.79,1.313438,451929,21960
1177.34,1.312715,456026,22196
1180.9,1.313334,461306,22421
1184.44,1.315109,467657,22637
1187.99,1.314098,473969,22996
1191.52,1.317725,479856,23088
1195.06,1.313387,487372,23685
1199.76,1.316141,497347,24017
1203.29,1.321295,504311,24066
1206.81,1.318995,511507,24539
1210.33,1.322571,519078,24698
1213.84,1.320734,527163,25189
1217.35,1.314427,534208,25899
1220.85,1.317650,540472,26009
1225.51,1.318900,549929,26388
1229.01,1.320217,556888,26641
1232.5,1.311824,562180,27419
1235.98,1.316515,567975,27404
1239.46,1.322031,574815,27384
1242.94,1.317155,582782,28077
1246.41,1.320366,591476,28286
1251.03,1.312775,604016,29395
1254.5,1.321410,612289,29211
1257.96,1.321133,619125,29556
1261.41,1.322680,624551,29709
1264.86,1.324153,629900,29862
1268.31,1.324192,634345,30070
1271.75,1.322538,638574,30386
1276.33,1.322449,642499,30579
1279.76,1.324944,645905,30565
1283.19,1.329064,648307,30389
1286.61,1.325098,650446,30769
1290.03,1.325108,652132,30848
1293.44,1.327671,653907,30750
1296.85,1.327343,655963,30870
1301.39,1.330813,657349,30689
1304.8,1.330131,657558,30747
1308.19,1.322328,658515,31350
1311.58,1.327535,658804,30990
1314.97,1.326090,659011,31103
1318.36,1.327969,658272,30934
1321.73,1.327229,658022,30975
1326.23,1.325757,657870,31073
1329.6,1.331658,656482,30589
1332.97,1.326206,654926,30902
1336.33,1.328782,653727,30663
1339.69,1.328800,652497,30604
1343.04,1.321788,649913,30979
1346.39,1.326642,647671,30529
1349.73,1.329363,645338,30229
1354.18,1.324417,641175,30378
1357.52,1.322989,638376,30345
1360.85,1.321094,635805,30355
1364.17,1.323626,633413,30065
1367.49,1.320803,631026,30147
1370.81,1.323326,628050,29831
1374.12,1.327660,625034,29393
1378.54,1.323011,620272,29483
1381.84,1.327871,616892,28996
1385.14,1.326186,613613,28954
1388.43,1.322895,611526,29075
1391.72,1.327995,610663,28695
1395.01,1.321769,610634,29108
1398.29,1.319167,611700,29334
1402.66,1.327322,614051,28899
1405.93,1.322206,616268,29347
1409.2,1.324333,617795,29276
1412.46,1.327439,618872,29118
1415.72,1.330900,619795,28930
1418.98,1.324568,620495,29388
1422.23,1.325855,621087,29329
1426.56,1.331450,621375,28967
1429.8,1.329644,621616,29099
1433.04,1.326939,622129,29305
1436.27,1.329119,621526,29130
1439.5,1.327104,621113,29246
1442.72,1.329950,620921,29046
1445.94,1.330872,620270,28954
1450.23,1.320330,618860,29598
1453.44,1.328048,617697,29022
1456.64,1.326426,616264,29063
1459.85,1.335708,614413,28363
1463.04,1.334646,612307,28335
1466.24,1.334642,610032,28230
1469.43,1.328469,607345,28508
1473.67,1.328700,603789,28326
1476.85,1.332759,601175,27941
1480.02,1.333639,597737,27725
1483.19,1.337449,594479,27333
1486.36,1.326107,591232,27903
1489.52,1.338162,587853,26984
1492.68,1.328474,583875,27406
1496.89,1.336359,578062,26645
1500.03,1.331838,574159,26742
1503.18,1.334587,570285,26394
1506.32,1.334005,565444,26205
1509.45,1.334862,560571,25928
1512.58,1.338327,555821,25504
1515.71,1.328342,550344,25840
1519.87,1.337680,543983,24998
1522.99,1.335321,538764,24893
1526.1,1.339936,533692,24398
1529.21,1.332060,527902,24575
1532.32,1.330489,521886,24383
1535.42,1.331079,515888,24070
1538.51,1.338232,509987,23406
1541.6,1.331548,503936,23487
1545.72,1.332873,494694,22986
1548.8,1.330459,488378,22819
1551.88,1.332861,481832,22389
1554.95,1.332291,474989,22100
1558.02,1.327674,467818,21999
1561.08,1.330645,460730,21518
1564.15,1.334131,454170,21042
1568.22,1.324432,444181,21044
1571.27,1.339030,436947,20017
1574.32,1.326316,429598,20265
1577.36,1.335118,422039,19509
1580.4,1.334998,414375,19160
1583.43,1.325264,406354,19215
1586.46,1.327446,398475,18748
1590.49,1.329596,388982,18211
1593.51,1.325923,380708,17975
1596.53,1.323688,372727,17689
1599.54,1.328303,365060,17142
1602.55,1.328718,357543,16773
1605.55,1.334033,349495,16196
1608.55,1.322873,341154,16221
1612.54,1.315004,330877,16020
1615.53,1.318966,322904,15492
1618.51,1.317571,315116,15167
1621.49,1.313560,307217,14924
1624.47,1.326996,299481,14105
1627.44,1.330321,292112,13653
1630.41,1.320537,284245,13588
1634.36,1.320903,274079,13091
1637.32,1.306756,266916,13171
1640.27,1.317137,259612,12508
1643.22,1.319859,251804,12056
1646.16,1.305654,244348,12088
1649.1,1.299022,236703,11890
1652.04,1.300252,228171,11429
1655.95,1.305994,215408,10648
1658.88,1.299078,204937,10293
1661.8,1.289496,193395,9930
1664.72,1.268068,179728,9695
1667.63,1.265384,163642,8882
1670.54,1.230529,146312,8605
1673.44,1.207225,128451,7971
1677.31,1.207539,105080,6516
1680.21,1.171359,88906,5992
1683.1,1.135917,75033,5487
1685.99,1.161040,63520,4384
1688.87,1.105805,53714,4210
1691.75,1.191713,45653,2936
1694.62,1.115466,39137,3000
1697.49,1.180693,33776,2228
1701.31,1.174783,28175,1884

File: Column 1_078706_20241121_171815.csv
Method:,Column 1,,
Host Date-Time:,21/11/24 @ 17:18:15,,
Header Version:,1,,
System Temp (C):,35.66,,
Detector Temp (C):,34.34,,
Humidity (%):,1.66,,
Lamp PD:,3800,,
Shift Vector Coefficients:,-10.5391,0.0761263,-0.000134223,,
Pixel to Wavelength Coefficients:,1775.68,-0.916766,-0.000235065,,
Serial Number:,5510004,,
Scan Config Name:,Column 1,,
Scan Config Type:,Slew,,
Section 1,,
Start wavelength (nm):,900,,
End wavelength (nm):,1700,,
Pattern Pixel Width (nm):,   7.03,,,,
Exposure (ms):,  0.635,,,,
Digital Resolution:,228,,
Num Repeats:,6,,
PGA Gain:,64,,
Total Measurement Time in sec:,  2.671,,
Wavelength (nm),Absorbance (AU),Reference Signal (unitless),Sample Signal (unitless)
901.51,1.300970,108485,5425
905.376,1.309219,121306,5952
909.237,1.318802,131909,6331
913.095,1.299031,143299,7198
916.948,1.325153,156982,7425
922.079,1.303929,179937,8937
925.923,1.311252,200504,9792
929.762,1.320619,222660,10642
933.597,1.317039,244426,11779
937.427,1.319811,263972,12640
941.254,1.308561,281845,13850
945.076,1.306486,297271,14678
950.165,1.308896,315605,15497
953.978,1.301837,328029,16371
957.786,1.301681,340470,16998
961.59,1.310346,352317,17242
965.389,1.312491,363056,17680
969.185,1.306584,373162,18421
972.976,1.298554,382632,19241
976.763,1.303437,391202,19452
981.806,1.301540,400190,19986
985.583,1.303333,406088,20197
989.355,1.301456,410162,20488
993.124,1.302197,412868,20588
996.888,1.296465,414263,20932
1000.65,1.298504,415476,20895
1004.4,1.306626,415479,20508
1009.41,1.315998,414358,20016
1013.15,1.309895,412923,20229
1016.89,1.307694,411526,20263
1020.63,1.295760,409066,20703
1024.36,1.296756,406777,20540
1028.09,1.305007,404427,20037
1031.82,1.307618,401911,19793
1036.78,1.303555,398410,19805
1040.49,1.312339,396204,19301
1044.2,1.303633,394236,19594
1047.91,1.299661,392042,19664
1051.61,1.307363,389823,19209
1055.31,1.305702,388234,19204
1059,1.305670,387599,19174
1063.92,1.303449,386688,19227
1067.61,1.315372,386598,18702
1071.29,1.299594,387377,19433
1074.96,1.304302,388536,19281
1078.63,1.301069,389855,19491
1082.3,1.310337,391215,19146
1085.96,1.311306,393215,19201
1090.84,1.310503,396270,19386
1094.49,1.309809,398760,19539
1098.14,1.308356,400987,19714
1101.79,1.307490,403477,19876
1105.43,1.309513,406116,19913
1109.06,1.309985,407701,19969
1112.7,1.311322,409859,20013
1117.53,1.309529,412494,20225
1121.15,1.309260,414909,20356
1124.77,1.308431,416559,20476
1128.38,1.308853,418532,20553
1131.99,1.312808,419956,20436
1135.6,1.314033,421946,20475
1139.2,1.312913,423881,20622
1143.99,1.317483,426786,20546
1147.58,1.316540,428617,20679
1151.17,1.304620,431169,21381
1154.75,1.312025,433579,21137
1158.33,1.306060,436264,21562
1161.91,1.312242,439132,21397
1165.48,1.309064,442389,21714
1169.04,1.306793,446101,22011
1173.79,1.304745,451929,22404
1177.34,1.312402,456026,22212
1180.9,1.313722,461306,22401
1184.44,1.316204,467657,22580
1187.99,1.307798,473969,23332
1191.52,1.314333,479856,23269
1195.06,1.311503,487372,23788
1199.76,1.325887,497347,23484
1203.29,1.314349,504311,24454
1206.81,1.327015,511507,24090
1210.33,1.322237,519078,24717
1213.84,1.311927,527163,25705
1217.35,1.314763,534208,25879
1220.85,1.314605,540472,26192
1225.51,1.316717,549929,26521
1229.01,1.321442,556888,26566
1232.5,1.315738,562180,27173
1235.98,1.317594,567975,27336
1239.46,1.322539,574815,27352
1242.94,1.321461,582782,27800
1246.41,1.318237,591476,28425
1251.03,1.310491,604016,29550
1254.5,1.318831,612289,29385
1257.96,1.320942,619125,29569
1261.41,1.318013,624551,30030
1264.86,1.320229,629900,30133
1268.31,1.322923,634345,30158
1271.75,1.324601,638574,30242
1276.33,1.320819,642499,30694
1279.76,1.321477,645905,30810
1283.19,1.321415,648307,30929
1286.61,1.332644,650446,30239
1290.03,1.325038,652132,30853
1293.44,1.328576,653907,30686
1296.85,1.326935,655963,30899
1301.39,1.322224,657349,31302
1304.8,1.329567,657558,30787
1308.19,1.329437,658515,30841
1311.58,1.328278,658804,30937
1314.97,1.327139,659011,31028
1318.36,1.323139,658272,31280
1321.73,1.328465,658022,30887
1326.23,1.324975,657870,31129
1329.6,1.321901,656482,31284
1332.97,1.322149,654926,31192
1336.33,1.327749,653727,30736
1339.69,1.320633,652497,31185
1343.04,1.320626,649913,31062
1346.39,1.321565,647671,30888
1349.73,1.326514,645338,30428
1354.18,1.329017,641175,30058
1357.52,1.321689,638376,30436
1360.85,1.320865,635805,30371
1364.17,1.321191,633413,30234
1367.49,1.329343,631026,29560
1370.81,1.319183,628050,30117
1374.12,1.327290,625034,29418
1378.54,1.322731,620272,29502
1381.84,1.323119,616892,29315
1385.14,1.321427,613613,29273
1388.43,1.319221,611526,29322
1391.72,1.322730,610663,29045
1395.01,1.322889,610634,29033
1398.29,1.324605,611700,28969
1402.66,1.327938,614051,28858
1405.93,1.328586,616268,28919
1409.2,1.330097,617795,28890
1412.46,1.326129,618872,29206
1415.72,1.324773,619795,29341
1418.98,1.323948,620495,29430
1422.23,1.325707,621087,29339
1426.56,1.331570,621375,28959
1429.8,1.326151,621616,29334
1433.04,1.333870,622129,28841
1436.27,1.321610,621526,29638
1439.5,1.331012,621113,28984
1442.72,1.330758,620921,28992
1445.94,1.332947,620270,28816
1450.23,1.327610,618860,29106
1453.44,1.332773,617697,28708
1456.64,1.335440,616264,28466
1459.85,1.334439,614413,28446
1463.04,1.332170,612307,28497
1466.24,1.330935,610032,28472
1469.43,1.328210,607345,28525
1473.67,1.331638,603789,28135
1476.85,1.327767,601175,28264
1480.02,1.331015,597737,27893
1483.19,1.330154,594479,27796
1486.36,1.334182,591232,27389
1489.52,1.334636,587853,27204
1492.68,1.335681,583875,26955
1496.89,1.334018,578062,26789
1500.03,1.329765,574159,26870
1503.18,1.336731,570285,26264
1506.32,1.333211,565444,26253
1509.45,1.332240,560571,26085
1512.58,1.332760,555821,25833
1515.71,1.330228,550344,25728
1519.87,1.325652,543983,25700
1522.99,1.329619,538764,25222
1526.1,1.336903,533692,24569
1529.21,1.337806,527902,24252
1532.32,1.329563,521886,24435
1535.42,1.333794,515888,23920
1538.51,1.324642,509987,24150
1541.6,1.330901,503936,23522
1545.72,1.326813,494694,23309
1548.8,1.332233,488378,22726
1551.88,1.336954,481832,22179
1554.95,1.330468,474989,22193
1558.02,1.326471,467818,22060
1561.08,1.326827,460730,21708
1564.15,1.325447,454170,21467
1568.22,1.331296,444181,20714
1571.27,1.332526,436947,20319
1574.32,1.333098,429598,19951
1577.36,1.324409,422039,19996
1580.4,1.326047,414375,19559
1583.43,1.330791,406354,18972
1586.46,1.326914,398475,18771
1590.49,1.315195,388982,18825
1593.51,1.319353,380708,18249
1596.53,1.329371,372727,17459
1599.54,1.323691,365060,17325
1602.55,1.324825,357543,16924
1605.55,1.322392,349495,16636
1608.55,1.320417,341154,16313
1612.54,1.319363,330877,15860
1615.53,1.320511,322904,15437
1618.51,1.306991,315116,15541
1621.49,1.324016,307217,14569
1624.47,1.320639,299481,14313
1627.44,1.309273,292112,14331
1630.41,1.316845,284245,13704
1634.36,1.311679,274079,13372
1637.32,1.316189,266916,12888
1640.27,1.309326,259612,12735
1643.22,1.313246,251804,12241
1646.16,1.296905,244348,12334
1649.1,1.300522,236703,11849
1652.04,1.308694,228171,11209
1655.95,1.312321,215408,10494
1658.88,1.294963,204937,10391
1661.8,1.282425,193395,10093
1664.72,1.269279,179728,9668
1667.63,1.256623,163642,9063
1670.54,1.217454,146312,8868
1673.44,1.206191,128451,7990
1677.31,1.188182,105080,6813
1680.21,1.170346,88906,6006
1683.1,1.153359,75033,5271
1685.99,1.171365,63520,4281
1688.87,1.161299,53714,3705
1691.75,1.141482,45653,3296
1694.62,1.121149,39137,2961
1697.49,1.138734,33776,2454
1701.31,1.181754,28175,1854

File: Column 1_078709_20241121_171824.csv
Method:,Column 1,,
Host Date-Time:,21/11/24 @ 17:18:24,,
Header Version:,1,,
System Temp (C):,35.82,,
Detector Temp (C):,34.36,,
Humidity (%):,1.67,,
Lamp PD:,3800,,
Shift Vector Coefficients:,-10.5391,0.0761263,-0.000134223,,
Pixel to Wavelength Coefficients:,1775.68,-0.916766,-0.000235065,,
Serial Number:,5510004,,
Scan Config Name:,Column 1,,
Scan Config Type:,Slew,,
Section 1,,
Start wavelength (nm):,900,,
End wavelength (nm):,1700,,
Pattern Pixel Width (nm):,   7.03,,,,
Exposure (ms):,  0.635,,,,
Digital Resolution:,228,,
Num Repeats:,6,,
PGA Gain:,64,,
Total Measurement Time in sec:,  2.723,,
Wavelength (nm),Absorbance (AU),Reference Signal (unitless),Sample Signal (unitless)
901.51,1.288735,108485,5580
905.376,1.331526,121306,5654
909.237,1.310176,131909,6458
913.095,1.317268,143299,6902
916.948,1.330509,156982,7334
922.079,1.332551,179937,8367
925.923,1.305349,200504,9926
929.762,1.313696,222660,10813
933.597,1.325039,244426,11564
937.427,1.314314,263972,12801
941.254,1.310289,281845,13795
945.076,1.311605,297271,14506
950.165,1.314594,315605,15295
953.978,1.315062,328029,15880
957.786,1.311605,340470,16614
961.59,1.303152,352317,17530
965.389,1.306321,363056,17933
969.185,1.302314,373162,18603
972.976,1.300522,382632,19154
976.763,1.316330,391202,18883
981.806,1.305009,400190,19827
985.583,1.296168,406088,20533
989.355,1.310343,410162,20073
993.124,1.301565,412868,20618
996.888,1.299380,414263,20792
1000.65,1.301089,415476,20771
1004.4,1.303881,415479,20638
1009.41,1.299125,414358,20809
1013.15,1.299354,412923,20726
1016.89,1.305023,411526,20388
1020.63,1.303165,409066,20353
1024.36,1.300963,406777,20342
1028.09,1.305615,404427,20009
1031.82,1.312118,401911,19589
1036.78,1.309006,398410,19558
1040.49,1.299153,396204,19896
1044.2,1.308986,394236,19354
1047.91,1.307236,392042,19324
1051.61,1.310494,389823,19071
1055.31,1.305498,388234,19213
1059,1.302218,387599,19327
1063.92,1.317241,386688,18626
1067.61,1.309444,386598,18959
1071.29,1.308832,387377,19024
1074.96,1.310403,388536,19012
1078.63,1.320434,389855,18641
1082.3,1.309295,391215,19192
1085.96,1.300318,393215,19693
1090.84,1.312524,396270,19296
1094.49,1.307216,398760,19656
1098.14,1.310321,400987,19625
1101.79,1.309439,403477,19787
1105.43,1.315420,406116,19644
1109.06,1.307513,407701,20083
1112.7,1.313520,409859,19912
1117.53,1.310217,412494,20193
1121.15,1.317401,414909,19978
1124.77,1.312502,416559,20285
1128.38,1.308579,418532,20566
1131.99,1.320916,419956,20058
1135.6,1.312910,421946,20528
1139.2,1.311714,423881,20679
1143.99,1.304715,426786,21159
1147.58,1.310057,428617,20990
1151.17,1.316250,431169,20816
1154.75,1.307772,433579,21345
1158.33,1.314111,436264,21166
1161.91,1.320852,439132,20977
1165.48,1.319100,442389,21218
1169.04,1.312653,446101,21716
1173.79,1.314309,451929,21916
1177.34,1.315266,456026,22066
1180.9,1.313179,461306,22429
1184.44,1.317108,467657,22533
1187.99,1.316788,473969,22854
1191.52,1.316447,479856,23156
1195.06,1.315483,487372,23571
1199.76,1.310625,497347,24324
1203.29,1.310230,504311,24687
1206.81,1.318340,511507,24576
1210.33,1.319365,519078,24881
1213.84,1.316479,527163,25437
1217.35,1.318217,534208,25674
1220.85,1.322131,540472,25742
1225.51,1.314658,549929,26647
1229.01,1.321932,556888,26536
1232.5,1.319833,562180,26918
1235.98,1.322210,567975,27047
1239.46,1.322047,574815,27383
1242.94,1.316506,582782,28119
1246.41,1.315419,591476,28610
1251.03,1.320331,604016,28888
1254.5,1.316208,612289,29563
1257.96,1.318394,619125,29743
1261.41,1.319331,624551,29939
1264.86,1.320402,629900,30121
1268.31,1.321600,634345,30250
1271.75,1.323196,638574,30340
1276.33,1.321102,642499,30674
1279.76,1.321731,645905,30792
1283.19,1.325081,648307,30669
1286.61,1.322930,650446,30923
1290.03,1.326646,652132,30739
1293.44,1.325024,653907,30938
1296.85,1.324692,655963,31059
1301.39,1.330036,657349,30744
1304.8,1.321807,657558,31342
1308.19,1.324620,658515,31185
1311.58,1.330911,658804,30750
1314.97,1.330582,659011,30783
1318.36,1.324822,658272,31159
1321.73,1.327355,658022,30966
1326.23,1.329829,657870,30783
1329.6,1.332581,656482,30524
1332.97,1.333647,654926,30377
1336.33,1.322273,653727,31126
1339.69,1.325323,652497,30850
1343.04,1.321634,649913,30990
1346.39,1.329038,647671,30361
1349.73,1.321406,645338,30788
1354.18,1.325434,641175,30307
1357.52,1.320634,638376,30510
1360.85,1.329224,635805,29792
1364.17,1.325522,633413,29934
1367.49,1.324725,631026,29876
1370.81,1.319919,628050,30066
1374.12,1.321571,625034,29808
1378.54,1.324989,620272,29349
1381.84,1.317906,616892,29669
1385.14,1.320627,613613,29327
1388.43,1.321672,611526,29157
1391.72,1.324964,610663,28896
1395.01,1.322964,610634,29028
1398.29,1.321811,611700,29156
1402.66,1.318471,614051,29494
1405.93,1.325966,616268,29094
1409.2,1.326564,617795,29126
1412.46,1.327678,618872,29102
1415.72,1.329506,619795,29023
1418.98,1.329234,620495,29074
1422.23,1.334635,621087,28742
1426.56,1.332787,621375,28878
1429.8,1.331304,621616,28988
1433.04,1.336210,622129,28686
1436.27,1.328508,621526,29171
1439.5,1.327728,621113,29204
1442.72,1.330833,620921,28987
1445.94,1.331923,620270,28884
1450.23,1.327461,618860,29116
1453.44,1.339050,617697,28296
1456.64,1.335532,616264,28460
1459.85,1.329536,614413,28769
1463.04,1.335106,612307,28305
1466.24,1.334734,610032,28224
1469.43,1.331036,607345,28340
1473.67,1.326315,603789,28482
1476.85,1.332417,601175,27963
1480.02,1.334438,597737,27674
1483.19,1.331782,594479,27692
1486.36,1.338244,591232,27134
1489.52,1.334556,587853,27209
1492.68,1.333864,583875,27068
1496.89,1.330032,578062,27036
1500.03,1.332163,574159,26722
1503.18,1.332895,570285,26497
1506.32,1.334254,565444,26190
1509.45,1.327932,560571,26345
1512.58,1.324666,555821,26319
1515.71,1.332242,550344,25609
1519.87,1.338376,543983,24958
1522.99,1.331638,538764,25105
1526.1,1.326494,533692,25165
1529.21,1.328540,527902,24775
1532.32,1.332900,521886,24248
1535.42,1.330881,515888,24081
1538.51,1.331457,509987,23774
1541.6,1.335318,503936,23284
1545.72,1.331685,494694,23049
1548.8,1.333995,488378,22634
1551.88,1.326985,481832,22694
1554.95,1.330840,474989,22174
1558.02,1.330030,467818,21880
1561.08,1.326247,460730,21737
1564.15,1.333616,454170,21067
1568.22,1.322969,444181,21115
1571.27,1.330437,436947,20417
1574.32,1.339081,429598,19678
1577.36,1.323325,422039,20046
1580.4,1.322971,414375,19698
1583.43,1.330494,406354,18985
1586.46,1.327076,398475,18764
1590.49,1.324829,388982,18412
1593.51,1.329587,380708,17824
1596.53,1.326471,372727,17576
1599.54,1.318582,365060,17530
1602.55,1.331549,357543,16664
1605.55,1.326642,349495,16474
1608.55,1.318875,341154,16371
1612.54,1.331836,330877,15411
1615.53,1.304411,322904,16020
1618.51,1.315485,315116,15240
1621.49,1.316421,307217,14826
1624.47,1.322433,299481,14254
1627.44,1.317966,292112,14047
1630.41,1.314854,284245,13767
1634.36,1.304145,274079,13606
1637.32,1.306624,266916,13175
1640.27,1.301284,259612,12973
1643.22,1.318062,251804,12106
1646.16,1.302754,244348,12169
1649.1,1.315854,236703,11438
1652.04,1.305528,228171,11291
1655.95,1.310009,215408,10550
1658.88,1.280818,204937,10735
1661.8,1.289103,193395,9939
1664.72,1.264455,179728,9776
1667.63,1.254138,163642,9115
1670.54,1.234331,146312,8530
1673.44,1.223037,128451,7686
1677.31,1.176981,105080,6991
1680.21,1.158787,88906,6168
1683.1,1.184348,75033,4908
1685.99,1.168332,63520,4311
1688.87,1.126294,53714,4016
1691.75,1.199775,45653,2882
1694.62,1.165426,39137,2674
1697.49,1.160135,33776,2336
1701.31,1.117425,28175,2150