Folder: textile_sorting_NIRSCAN_/ML/samples/unknown (part 98)

File: Column 1_078695_20241121_171743.csv
Method:,Column 1,,
Host Date-Time:,21/11/24 @ 17:17:43,,
Header Version:,1,,
System Temp (C):,35.04,,
Detector Temp (C):,34.48,,
Humidity (%):,1.76,,
Lamp PD:,3801,,
Shift Vector Coefficients:,-10.5391,0.0761263,-0.000134223,,
Pixel to Wavelength Coefficients:,1775.68,-0.916766,-0.000235065,,
Serial Number:,5510004,,
Scan Config Name:,Column 1,,
Scan Config Type:,Slew,,
Section 1,,
Start wavelength (nm):,900,,
End wavelength (nm):,1700,,
Pattern Pixel Width (nm):,   7.03,,,,
Exposure (ms):,  0.635,,,,
Digital Resolution:,228,,
Num Repeats:,6,,
PGA Gain:,64,,
Total Measurement Time in sec:,  2.693,,
Wavelength (nm),Absorbance (AU),Reference Signal (unitless),Sample Signal (unitless)
901.51,1.319366,108485,5200
905.376,1.311634,121306,5919
909.237,1.327673,131909,6203
913.095,1.336633,143299,6601
916.948,1.314808,156982,7604
922.079,1.315751,179937,8697
925.923,1.327059,200504,9442
929.762,1.325998,222660,10511
933.597,1.303000,244426,12166
937.427,1.327296,263972,12424
941.254,1.314687,281845,13656
945.076,1.312564,297271,14474
950.165,1.309149,315605,15488
953.978,1.304338,328029,16277
957.786,1.309883,340470,16680
961.59,1.311329,352317,17203
965.389,1.309871,363056,17787
969.185,1.308806,373162,18327
972.976,1.314250,382632,18558
976.763,1.309100,391202,19200
981.806,1.306018,400190,19781
985.583,1.304669,406088,20135
989.355,1.303730,410162,20381
993.124,1.307097,412868,20357
996.888,1.308370,414263,20366
1000.65,1.311307,415476,20288
1004.4,1.306435,415479,20517
1009.41,1.296731,414358,20924
1013.15,1.290887,412923,21134
1016.89,1.296230,411526,20805
1020.63,1.307131,409066,20168
1024.36,1.304737,406777,20166
1028.09,1.299387,404427,20298
1031.82,1.304209,401911,19949
1036.78,1.303841,398410,19792
1040.49,1.310767,396204,19371
1044.2,1.302460,394236,19647
1047.91,1.310937,392042,19160
1051.61,1.311109,389823,19044
1055.31,1.303131,388234,19318
1059,1.311163,387599,18933
1063.92,1.306327,386688,19100
1067.61,1.306454,386598,19090
1071.29,1.314230,387377,18789
1074.96,1.312717,388536,18911
1078.63,1.310393,389855,19077
1082.3,1.322389,391215,18622
1085.96,1.308893,393215,19308
1090.84,1.311153,396270,19357
1094.49,1.318384,398760,19157
1098.14,1.312228,400987,19539
1101.79,1.309329,403477,19792
1105.43,1.306709,406116,20042
1109.06,1.309268,407701,20002
1112.7,1.311366,409859,20011
1117.53,1.316216,412494,19916
1121.15,1.312107,414909,20223
1124.77,1.317627,416559,20047
1128.38,1.310229,418532,20488
1131.99,1.316607,419956,20258
1135.6,1.312128,421946,20565
1139.2,1.313250,423881,20606
1143.99,1.315606,426786,20635
1147.58,1.314090,428617,20796
1151.17,1.317190,431169,20771
1154.75,1.314560,433579,21014
1158.33,1.315508,436264,21098
1161.91,1.318663,439132,21083
1165.48,1.307527,442389,21791
1169.04,1.320952,446101,21305
1173.79,1.314269,451929,21918
1177.34,1.308315,456026,22422
1180.9,1.312270,461306,22476
1184.44,1.317996,467657,22487
1187.99,1.316370,473969,22876
1191.52,1.321029,479856,22913
1195.06,1.319983,487372,23328
1199.76,1.318934,497347,23863
1203.29,1.312842,504311,24539
1206.81,1.317599,511507,24618
1210.33,1.320361,519078,24824
1213.84,1.320045,527163,25229
1217.35,1.318742,534208,25643
1220.85,1.318686,540472,25947
1225.51,1.320417,549929,26296
1229.01,1.320429,556888,26628
1232.5,1.324146,562180,26652
1235.98,1.317245,567975,27358
1239.46,1.315671,574815,27788
1242.94,1.321539,582782,27795
1246.41,1.318986,591476,28376
1251.03,1.318920,604016,28982
1254.5,1.323123,612289,29096
1257.96,1.323727,619125,29380
1261.41,1.322388,624551,29729
1264.86,1.320676,629900,30102
1268.31,1.326916,634345,29882
1271.75,1.321995,638574,30424
1276.33,1.321867,642499,30620
1279.76,1.321731,645905,30792
1283.19,1.323710,648307,30766
1286.61,1.324435,650446,30816
1290.03,1.331291,652132,30412
1293.44,1.322337,653907,31130
1296.85,1.320974,655963,31326
1301.39,1.323711,657349,31195
1304.8,1.322459,657558,31295
1308.19,1.332844,658515,30600
1311.58,1.323254,658804,31297
1314.97,1.326775,659011,31054
1318.36,1.329742,658272,30808
1321.73,1.325131,658022,31125
1326.23,1.330295,657870,30750
1329.6,1.323291,656482,31184
1332.97,1.323418,654926,31101
1336.33,1.326677,653727,30812
1339.69,1.322699,652497,31037
1343.04,1.325689,649913,30702
1346.39,1.326713,647671,30524
1349.73,1.320983,645338,30818
1354.18,1.329045,641175,30056
1357.52,1.332744,638376,29671
1360.85,1.322025,635805,30290
1364.17,1.319915,633413,30323
1367.49,1.326458,631026,29757
1370.81,1.328319,628050,29490
1374.12,1.318334,625034,30031
1378.54,1.323644,620272,29440
1381.84,1.322956,616892,29326
1385.14,1.322393,613613,29208
1388.43,1.318984,611526,29338
1391.72,1.311964,610663,29774
1395.01,1.325409,610634,28865
1398.29,1.322645,611700,29100
1402.66,1.323760,614051,29137
1405.93,1.327491,616268,28992
1409.2,1.323606,617795,29325
1412.46,1.331440,618872,28851
1415.72,1.329955,619795,28993
1418.98,1.328204,620495,29143
1422.23,1.331399,621087,28957
1426.56,1.323399,621375,29509
1429.8,1.329048,621616,29139
1433.04,1.329644,622129,29123
1436.27,1.328002,621526,29205
1439.5,1.329561,621113,29081
1442.72,1.331178,620921,28964
1445.94,1.330108,620270,29005
1450.23,1.329389,618860,28987
1453.44,1.325229,617697,29211
1456.64,1.323537,616264,29257
1459.85,1.331487,614413,28640
1463.04,1.331272,612307,28556
1466.24,1.334888,610032,28214
1469.43,1.331680,607345,28298
1473.67,1.330621,603789,28201
1476.85,1.331548,601175,28019
1480.02,1.328562,597737,28051
1483.19,1.331782,594479,27692
1486.36,1.337429,591232,27185
1489.52,1.335755,587853,27134
1492.68,1.337408,583875,26848
1496.89,1.339910,578062,26428
1500.03,1.334004,574159,26609
1503.18,1.332797,570285,26503
1506.32,1.341781,565444,25740
1509.45,1.332090,560571,26094
1512.58,1.329811,555821,26009
1515.71,1.336536,550344,25357
1519.87,1.325787,543983,25692
1522.99,1.332071,538764,25080
1526.1,1.330377,533692,24941
1529.21,1.323676,527902,25054
1532.32,1.330310,521886,24393
1535.42,1.333940,515888,23912
1538.51,1.327909,509987,23969
1541.6,1.327389,503936,23713
1545.72,1.335279,494694,22859
1548.8,1.333458,488378,22662
1551.88,1.325762,481832,22758
1554.95,1.334024,474989,22012
1558.02,1.328880,467818,21938
1561.08,1.327187,460730,21690
1564.15,1.331826,454170,21154
1568.22,1.332198,444181,20671
1571.27,1.324395,436947,20703
1574.32,1.333708,429598,19923
1577.36,1.329126,422039,19780
1580.4,1.330870,414375,19343
1583.43,1.331938,406354,18922
1586.46,1.324284,398475,18885
1590.49,1.322687,388982,18503
1593.51,1.326382,380708,17956
1596.53,1.325015,372727,17635
1599.54,1.324619,365060,17288
1602.55,1.328977,357543,16763
1605.55,1.320985,349495,16690
1608.55,1.326125,341154,16100
1612.54,1.319774,330877,15845
1615.53,1.318350,322904,15514
1618.51,1.322292,315116,15003
1621.49,1.317595,307217,14786
1624.47,1.312880,299481,14571
1627.44,1.326615,292112,13770
1630.41,1.312776,284245,13833
1634.36,1.325505,274079,12953
1637.32,1.321376,266916,12735
1640.27,1.312475,259612,12643
1643.22,1.306382,251804,12436
1646.16,1.310932,244348,11942
1649.1,1.324714,236703,11207
1652.04,1.313956,228171,11074
1655.95,1.280222,215408,11299
1658.88,1.297520,204937,10330
1661.8,1.300794,193395,9675
1664.72,1.266235,179728,9736
1667.63,1.263092,163642,8929
1670.54,1.204286,146312,9141
1673.44,1.229642,128451,7570
1677.31,1.209208,105080,6491
1680.21,1.169840,88906,6013
1683.1,1.176022,75033,5003
1685.99,1.213296,63520,3887
1688.87,1.186516,53714,3496
1691.75,1.167268,45653,3106
1694.62,1.206624,39137,2432
1697.49,1.149847,33776,2392
1701.31,1.188125,28175,1827

File: Column 1_078697_20241121_171749.csv
Method:,Column 1,,
Host Date-Time:,21/11/24 @ 17:17:49,,
Header Version:,1,,
System Temp (C):,35.14,,
Detector Temp (C):,34.37,,
Humidity (%):,1.66,,
Lamp PD:,3801,,
Shift Vector Coefficients:,-10.5391,0.0761263,-0.000134223,,
Pixel to Wavelength Coefficients:,1775.68,-0.916766,-0.000235065,,
Serial Number:,5510004,,
Scan Config Name:,Column 1,,
Scan Config Type:,Slew,,
Section 1,,
Start wavelength (nm):,900,,
End wavelength (nm):,1700,,
Pattern Pixel Width (nm):,   7.03,,,,
Exposure (ms):,  0.635,,,,
Digital Resolution:,228,,
Num Repeats:,6,,
PGA Gain:,64,,
Total Measurement Time in sec:,  2.727,,
Wavelength (nm),Absorbance (AU),Reference Signal (unitless),Sample Signal (unitless)
901.51,1.303137,108485,5398
905.376,1.284197,121306,6305
909.237,1.311389,131909,6440
913.095,1.330752,143299,6691
916.948,1.321948,156982,7480
922.079,1.311033,179937,8792
925.923,1.338571,200504,9195
929.762,1.309022,222660,10930
933.597,1.317113,244426,11777
937.427,1.323399,263972,12536
941.254,1.314496,281845,13662
945.076,1.316967,297271,14328
950.165,1.309036,315605,15492
953.978,1.314624,328029,15896
957.786,1.312783,340470,16569
961.59,1.310396,352317,17240
965.389,1.308262,363056,17853
969.185,1.303671,373162,18545
972.976,1.301862,382632,19095
976.763,1.313419,391202,19010
981.806,1.296592,400190,20215
985.583,1.308634,406088,19952
989.355,1.295561,410162,20768
993.124,1.305649,412868,20425
996.888,1.303240,414263,20608
1000.65,1.301612,415476,20746
1004.4,1.304956,415479,20587
1009.41,1.299626,414358,20785
1013.15,1.297597,412923,20810
1016.89,1.310964,411526,20111
1020.63,1.306614,409066,20192
1024.36,1.298132,406777,20475
1028.09,1.308315,404427,19885
1031.82,1.295075,401911,20373
1036.78,1.304060,398410,19782
1040.49,1.300969,396204,19813
1044.2,1.303988,394236,19578
1047.91,1.308676,392042,19260
1051.61,1.304613,389823,19331
1055.31,1.306245,388234,19180
1059,1.300402,387599,19408
1063.92,1.302772,386688,19257
1067.61,1.315999,386598,18675
1071.29,1.305217,387377,19183
1074.96,1.298929,388536,19521
1078.63,1.303751,389855,19371
1082.3,1.312566,391215,19048
1085.96,1.317181,393215,18943
1090.84,1.304761,396270,19644
1094.49,1.314727,398760,19319
1098.14,1.304889,400987,19872
1101.79,1.315918,403477,19494
1105.43,1.313611,406116,19726
1109.06,1.313019,407701,19830
1112.7,1.308791,409859,20130
1117.53,1.310776,412494,20167
1121.15,1.311893,414909,20233
1124.77,1.321982,416559,19847
1128.38,1.323968,418532,19850
1131.99,1.323413,419956,19943
1135.6,1.312974,421946,20525
1139.2,1.310477,423881,20738
1143.99,1.316870,426786,20575
1147.58,1.303527,428617,21308
1151.17,1.306717,431169,21278
1154.75,1.313734,433579,21054
1158.33,1.315467,436264,21100
1161.91,1.311127,439132,21452
1165.48,1.305916,442389,21872
1169.04,1.312194,446101,21739
1173.79,1.313557,451929,21954
1177.34,1.313420,456026,22160
1180.9,1.318615,461306,22150
1184.44,1.309864,467657,22912
1187.99,1.321622,473969,22601
1191.52,1.315398,479856,23212
1195.06,1.319258,487372,23367
1199.76,1.316521,497347,23996
1203.29,1.318829,504311,24203
1206.81,1.319278,511507,24523
1210.33,1.316425,519078,25050
1213.84,1.318807,527163,25301
1217.35,1.317473,534208,25718
1220.85,1.316233,540472,26094
1225.51,1.314105,549929,26681
1229.01,1.313906,556888,27031
1232.5,1.316794,562180,27107
1235.98,1.316246,567975,27421
1239.46,1.315843,574815,27777
1242.94,1.312356,582782,28389
1246.41,1.318084,591476,28435
1251.03,1.327165,604016,28437
1254.5,1.319985,612289,29307
1257.96,1.316151,619125,29897
1261.41,1.324042,624551,29616
1264.86,1.318575,629900,30248
1268.31,1.328197,634345,29794
1271.75,1.323339,638574,30330
1276.33,1.319618,642499,30779
1279.76,1.324050,645905,30628
1283.19,1.329450,648307,30362
1286.61,1.323984,650446,30848
1290.03,1.330064,652132,30498
1293.44,1.322574,653907,31113
1296.85,1.323686,655963,31131
1301.39,1.327627,657349,30915
1304.8,1.330810,657558,30699
1308.19,1.326350,658515,31061
1311.58,1.319289,658804,31584
1314.97,1.325295,659011,31160
1318.36,1.323694,658272,31240
1321.73,1.330833,658022,30719
1326.23,1.325659,657870,31080
1329.6,1.326155,656482,30979
1332.97,1.327106,654926,30838
1336.33,1.329647,653727,30602
1339.69,1.324395,652497,30916
1343.04,1.325759,649913,30697
1346.39,1.324768,647671,30661
1349.73,1.325929,645338,30469
1354.18,1.321057,641175,30614
1357.52,1.323319,638376,30322
1360.85,1.329108,635805,29800
1364.17,1.321925,633413,30183
1367.49,1.322969,631026,29997
1370.81,1.325121,628050,29708
1374.12,1.324407,625034,29614
1378.54,1.321981,620272,29553
1381.84,1.320520,616892,29491
1385.14,1.318736,613613,29455
1388.43,1.323822,611526,29013
1391.72,1.323568,610663,28989
1395.01,1.326253,610634,28809
1398.29,1.324815,611700,28955
1402.66,1.323506,614051,29154
1405.93,1.317335,616268,29678
1409.2,1.326191,617795,29151
1412.46,1.327022,618872,29146
1415.72,1.323473,619795,29429
1418.98,1.330520,620495,28988
1422.23,1.322845,621087,29533
1426.56,1.324682,621375,29422
1429.8,1.331184,621616,28996
1433.04,1.330630,622129,29057
1436.27,1.333103,621526,28864
1439.5,1.332483,621113,28886
1442.72,1.330713,620921,28995
1445.94,1.330872,620270,28954
1450.23,1.325838,618860,29225
1453.44,1.332259,617697,28742
1456.64,1.325934,616264,29096
1459.85,1.333296,614413,28521
1463.04,1.326974,612307,28840
1466.24,1.328061,610032,28661
1469.43,1.325538,607345,28701
1473.67,1.332442,603789,28083
1476.85,1.330604,601175,28080
1480.02,1.332122,597737,27822
1483.19,1.335610,594479,27449
1486.36,1.331605,591232,27552
1489.52,1.333488,587853,27276
1492.68,1.334153,583875,27050
1496.89,1.331738,578062,26930
1500.03,1.330007,574159,26855
1503.18,1.330199,570285,26662
1506.32,1.334221,565444,26192
1509.45,1.332790,560571,26052
1512.58,1.333080,555821,25814
1515.71,1.333073,550344,25560
1519.87,1.328398,543983,25538
1522.99,1.328570,538764,25283
1526.1,1.336515,533692,24591
1529.21,1.336876,527902,24304
1532.32,1.328800,521886,24478
1535.42,1.333649,515888,23928
1538.51,1.336824,509987,23482
1541.6,1.328654,503936,23644
1545.72,1.327951,494694,23248
1548.8,1.326424,488378,23032
1551.88,1.330539,481832,22509
1554.95,1.333551,474989,22036
1558.02,1.329276,467818,21918
1561.08,1.334476,460730,21329
1564.15,1.326825,454170,21399
1568.22,1.330249,444181,20764
1571.27,1.326477,436947,20604
1574.32,1.330385,429598,20076
1577.36,1.325149,422039,19962
1580.4,1.327626,414375,19488
1583.43,1.324993,406354,19227
1586.46,1.318527,398475,19137
1590.49,1.326341,388982,18348
1593.51,1.334020,380708,17643
1596.53,1.319364,372727,17866
1599.54,1.322489,365060,17373
1602.55,1.324107,357543,16952
1605.55,1.337993,349495,16049
1608.55,1.316758,341154,16451
1612.54,1.318597,330877,15888
1615.53,1.312483,322904,15725
1618.51,1.321280,315116,15038
1621.49,1.319095,307217,14735
1624.47,1.309288,299481,14692
1627.44,1.313843,292112,14181
1630.41,1.332987,284245,13204
1634.36,1.311614,274079,13374
1637.32,1.327869,266916,12546
1640.27,1.314679,259612,12579
1643.22,1.330581,251804,11762
1646.16,1.324863,244348,11565
1649.1,1.310795,236703,11572
1652.04,1.314780,228171,11053
1655.95,1.294403,215408,10936
1658.88,1.297184,204937,10338
1661.8,1.277079,193395,10218
1664.72,1.283108,179728,9365
1667.63,1.270895,163642,8770
1670.54,1.248247,146312,8261
1673.44,1.233271,128451,7507
1677.31,1.201122,105080,6613
1680.21,1.167319,88906,6048
1683.1,1.165220,75033,5129
1685.99,1.157980,63520,4415
1688.87,1.198864,53714,3398
1691.75,1.135983,45653,3338
1694.62,1.151678,39137,2760
1697.49,1.103400,33776,2662
1701.31,1.121688,28175,2129

File: Column 1_078699_20241121_171755.csv
Method:,Column 1,,
Host Date-Time:,21/11/24 @ 17:17:55,,
Header Version:,1,,
System Temp (C):,35.29,,
Detector Temp (C):,34.4,,
Humidity (%):,1.66,,
Lamp PD:,3800,,
Shift Vector Coefficients:,-10.5391,0.0761263,-0.000134223,,
Pixel to Wavelength Coefficients:,1775.68,-0.916766,-0.000235065,,
Serial Number:,5510004,,
Scan Config Name:,Column 1,,
Scan Config Type:,Slew,,
Section 1,,
Start wavelength (nm):,900,,
End wavelength (nm):,1700,,
Pattern Pixel Width (nm):,   7.03,,,,
Exposure (ms):,  0.635,,,,
Digital Resolution:,228,,
Num Repeats:,6,,
PGA Gain:,64,,
Total Measurement Time in sec:,  2.724,,
Wavelength (nm),Absorbance (AU),Reference Signal (unitless),Sample Signal (unitless)
901.51,1.308480,108485,5332
905.376,1.323686,121306,5757
909.237,1.312875,131909,6418
913.095,1.334206,143299,6638
916.948,1.312188,156982,7650
922.079,1.337930,179937,8264
925.923,1.317191,200504,9659
929.762,1.311772,222660,10861
933.597,1.321225,244426,11666
937.427,1.314993,263972,12781
941.254,1.308153,281845,13863
945.076,1.306131,297271,14690
950.165,1.307274,315605,15555
953.978,1.302846,328029,16333
957.786,1.305144,340470,16863
961.59,1.313227,352317,17128
965.389,1.312074,363056,17697
969.185,1.296747,373162,18843
972.976,1.314554,382632,18545
976.763,1.304778,391202,19392
981.806,1.301845,400190,19972
985.583,1.300355,406088,20336
989.355,1.303304,410162,20401
993.124,1.305904,412868,20413
996.888,1.303282,414263,20606
1000.65,1.306284,415476,20524
1004.4,1.288176,415479,21398
1009.41,1.302014,414358,20671
1013.15,1.306771,412923,20375
1016.89,1.295896,411526,20821
1020.63,1.307820,409066,20136
1024.36,1.300557,406777,20361
1028.09,1.302738,404427,20142
1031.82,1.302167,401911,20043
1036.78,1.301106,398410,19917
1040.49,1.304335,396204,19660
1044.2,1.301775,394236,19678
1047.91,1.305912,392042,19383
1051.61,1.307702,389823,19194
1055.31,1.306585,388234,19165
1059,1.307440,387599,19096
1063.92,1.300725,386688,19348
1067.61,1.300938,386598,19334
1071.29,1.307169,387377,19097
1074.96,1.308330,388536,19103
1078.63,1.317832,389855,18753
1082.3,1.301247,391215,19551
1085.96,1.309455,393215,19283
1090.84,1.304231,396270,19668
1094.49,1.312641,398760,19412
1098.14,1.316203,400987,19361
1101.79,1.311264,403477,19704
1105.43,1.311349,406116,19829
1109.06,1.313896,407701,19790
1112.7,1.310975,409859,20029
1117.53,1.314171,412494,20010
1121.15,1.310093,414909,20317
1124.77,1.314519,416559,20191
1128.38,1.317950,418532,20127
1131.99,1.313574,419956,20400
1135.6,1.309643,421946,20683
1139.2,1.312513,423881,20641
1143.99,1.296964,426786,21540
1147.58,1.314905,428617,20757
1151.17,1.319643,431169,20654
1154.75,1.313095,433579,21085
1158.33,1.313618,436264,21190
1161.91,1.314195,439132,21301
1165.48,1.305559,442389,21890
1169.04,1.312234,446101,21737
1173.79,1.310678,451929,22100
1177.34,1.315266,456026,22066
1180.9,1.314401,461306,22366
1184.44,1.312812,467657,22757
1187.99,1.316275,473969,22881
1191.52,1.308438,479856,23587
1195.06,1.306511,487372,24063
1199.76,1.312647,497347,24211
1203.29,1.315504,504311,24389
1206.81,1.313123,511507,24873
1210.33,1.316720,519078,25033
1213.84,1.321856,527163,25124
1217.35,1.317186,534208,25735
1220.85,1.312372,540472,26327
1225.51,1.311104,549929,26866
1229.01,1.317487,556888,26809
1232.5,1.320640,562180,26868
1235.98,1.319649,567975,27207
1239.46,1.316876,574815,27711
1242.94,1.317109,582782,28080
1246.41,1.318099,591476,28434
1251.03,1.314522,604016,29277
1254.5,1.323990,612289,29038
1257.96,1.318642,619125,29726
1261.41,1.322139,624551,29746
1264.86,1.321470,629900,30047
1268.31,1.318311,634345,30480
1271.75,1.319036,638574,30632
1276.33,1.324456,642499,30438
1279.76,1.329745,645905,30229
1283.19,1.319272,648307,31082
1286.61,1.320088,650446,31126
1290.03,1.321519,652132,31104
1293.44,1.326359,653907,30843
1296.85,1.324958,655963,31040
1301.39,1.321005,657349,31390
1304.8,1.326979,657558,30971
1308.19,1.325666,658515,31110
1311.58,1.327591,658804,30986
1314.97,1.325937,659011,31114
1318.36,1.327156,658272,30992
1321.73,1.322280,658022,31330
1326.23,1.323096,657870,31264
1329.6,1.327208,656482,30904
1332.97,1.328757,654926,30721
1336.33,1.328060,653727,30714
1339.69,1.326564,652497,30762
1343.04,1.322672,649913,30916
1346.39,1.319349,647671,31046
1349.73,1.325046,645338,30531
1354.18,1.324703,641175,30358
1357.52,1.324538,638376,30237
1360.85,1.329312,635805,29786
1364.17,1.324421,633413,30010
1367.49,1.330166,631026,29504
1370.81,1.322992,628050,29854
1374.12,1.329347,625034,29279
1378.54,1.318220,620272,29810
1381.84,1.327617,616892,29013
1385.14,1.323360,613613,29143
1388.43,1.316873,611526,29481
1391.72,1.324153,610663,28950
1395.01,1.329871,610634,28570
1398.29,1.324170,611700,28998
1402.66,1.326586,614051,28948
1405.93,1.323555,616268,29256
1409.2,1.324392,617795,29272
1412.46,1.324644,618872,29306
1415.72,1.325247,619795,29309
1418.98,1.332246,620495,28873
1422.23,1.325160,621087,29376
1426.56,1.333554,621375,28827
1429.8,1.332414,621616,28914
1433.04,1.328483,622129,29201
1436.27,1.328017,621526,29204
1439.5,1.323938,621113,29460
1442.72,1.328815,620921,29122
1445.94,1.329734,620270,29030
1450.23,1.329075,618860,29008
1453.44,1.329037,617697,28956
1456.64,1.331325,616264,28737
1459.85,1.329490,614413,28772
1463.04,1.329375,612307,28681
1466.24,1.335442,610032,28178
1469.43,1.333371,607345,28188
1473.67,1.325173,603789,28557
1476.85,1.330171,601175,28108
1480.02,1.334438,597737,27674
1483.19,1.336481,594479,27394
1486.36,1.328198,591232,27769
1489.52,1.332995,587853,27307
1492.68,1.333094,583875,27116
1496.89,1.325844,578062,27298
1500.03,1.338268,574159,26349
1503.18,1.330183,570285,26663
1506.32,1.331790,565444,26339
1509.45,1.333240,560571,26025
1512.58,1.328128,555821,26110
1515.71,1.334350,550344,25485
1519.87,1.336206,543983,25083
1522.99,1.330274,538764,25184
1526.1,1.330203,533692,24951
1529.21,1.331795,527902,24590
1532.32,1.320923,521886,24926
1535.42,1.334703,515888,23870
1538.51,1.331548,509987,23769
1541.6,1.337731,503936,23155
1545.72,1.332779,494694,22991
1548.8,1.332902,488378,22691
1551.88,1.336210,481832,22217
1554.95,1.330194,474989,22207
1558.02,1.332458,467818,21758
1561.08,1.326767,460730,21711
1564.15,1.325670,454170,21456
1568.22,1.320630,444181,21229
1571.27,1.325319,436947,20659
1574.32,1.328658,429598,20156
1577.36,1.338761,422039,19346
1580.4,1.331634,414375,19309
1583.43,1.327530,406354,19115
1586.46,1.328026,398475,18723
1590.49,1.322570,388982,18508
1593.51,1.323105,380708,18092
1596.53,1.311869,372727,18177
1599.54,1.325273,365060,17262
1602.55,1.332541,357543,16626
1605.55,1.313887,349495,16965
1608.55,1.319566,341154,16345
1612.54,1.318515,330877,15891
1615.53,1.312897,322904,15710
1618.51,1.320617,315116,15061
1621.49,1.318359,307217,14760
1624.47,1.327859,299481,14077
1627.44,1.328385,292112,13714
1630.41,1.322331,284245,13532
1634.36,1.312037,274079,13361
1637.32,1.305472,266916,13210
1640.27,1.318737,259612,12462
1643.22,1.317094,251804,12133
1646.16,1.307599,244348,12034
1649.1,1.306724,236703,11681
1652.04,1.308190,228171,11222
1655.95,1.291672,215408,11005
1658.88,1.294545,204937,10401
1661.8,1.275721,193395,10250
1664.72,1.273477,179728,9575
1667.63,1.255522,163642,9086
1670.54,1.240639,146312,8407
1673.44,1.217925,128451,7777
1677.31,1.178599,105080,6965
1680.21,1.175657,88906,5933
1683.1,1.170673,75033,5065
1685.99,1.148157,63520,4516
1688.87,1.141816,53714,3875
1691.75,1.136895,45653,3331
1694.62,1.171807,39137,2635
1697.49,1.174692,33776,2259
1701.31,1.168376,28175,1912