Folder: textile_sorting_NIRSCAN_/ML/samples/unknown (part 90)

File: Column 1_078632_20241121_171215.csv
Method:,Column 1,,
Host Date-Time:,21/11/24 @ 17:12:15,,
Header Version:,1,,
System Temp (C):,36.88,,
Detector Temp (C):,35.17,,
Humidity (%):,0.78,,
Lamp PD:,3797,,
Shift Vector Coefficients:,-10.5391,0.0761263,-0.000134223,,
Pixel to Wavelength Coefficients:,1775.68,-0.916766,-0.000235065,,
Serial Number:,5510004,,
Scan Config Name:,Column 1,,
Scan Config Type:,Slew,,
Section 1,,
Start wavelength (nm):,900,,
End wavelength (nm):,1700,,
Pattern Pixel Width (nm):,   7.03,,,,
Exposure (ms):,  0.635,,,,
Digital Resolution:,228,,
Num Repeats:,6,,
PGA Gain:,64,,
Total Measurement Time in sec:,  2.722,,
Wavelength (nm),Absorbance (AU),Reference Signal (unitless),Sample Signal (unitless)
901.51,1.316287,108485,5237
905.376,1.309950,121306,5942
909.237,1.314570,131909,6393
913.095,1.288481,143299,7375
916.948,1.306380,156982,7753
922.079,1.323663,179937,8540
925.923,1.321620,200504,9561
929.762,1.327613,222660,10472
933.597,1.311216,244426,11938
937.427,1.327996,263972,12404
941.254,1.318135,281845,13548
945.076,1.306574,297271,14675
950.165,1.305574,315605,15616
953.978,1.298191,328029,16509
957.786,1.310352,340470,16662
961.59,1.313455,352317,17119
965.389,1.309822,363056,17789
969.185,1.300404,373162,18685
972.976,1.311381,382632,18681
976.763,1.304756,391202,19393
981.806,1.302432,400190,19945
985.583,1.305705,406088,20087
989.355,1.303070,410162,20412
993.124,1.308808,412868,20277
996.888,1.309203,414263,20327
1000.65,1.303079,415476,20676
1004.4,1.297593,415479,20939
1009.41,1.313920,414358,20112
1013.15,1.307347,412923,20348
1016.89,1.303938,411526,20439
1020.63,1.302888,409066,20366
1024.36,1.309283,406777,19956
1028.09,1.306484,404427,19969
1031.82,1.299855,401911,20150
1036.78,1.312484,398410,19402
1040.49,1.314753,396204,19194
1044.2,1.298237,394236,19839
1047.91,1.307528,392042,19311
1051.61,1.297328,389823,19658
1055.31,1.305566,388234,19210
1059,1.306032,387599,19158
1063.92,1.305623,386688,19131
1067.61,1.302987,386598,19243
1071.29,1.311305,387377,18916
1074.96,1.305475,388536,19229
1078.63,1.307647,389855,19198
1082.3,1.309092,391215,19201
1085.96,1.314758,393215,19049
1090.84,1.309451,396270,19433
1094.49,1.322255,398760,18987
1098.14,1.307585,400987,19749
1101.79,1.313895,403477,19585
1105.43,1.313457,406116,19733
1109.06,1.316228,407701,19684
1112.7,1.313694,409859,19904
1117.53,1.312740,412494,20076
1121.15,1.317879,414909,19956
1124.77,1.310792,416559,20365
1128.38,1.312120,418532,20399
1131.99,1.315066,419956,20330
1135.6,1.309266,421946,20701
1139.2,1.316062,423881,20473
1143.99,1.320985,426786,20381
1147.58,1.315198,428617,20743
1151.17,1.309070,431169,21163
1154.75,1.312025,433579,21137
1158.33,1.313127,436264,21214
1161.91,1.317162,439132,21156
1165.48,1.313932,442389,21472
1169.04,1.314276,446101,21635
1173.79,1.312509,451929,22007
1177.34,1.308625,456026,22406
1180.9,1.316640,461306,22251
1184.44,1.312965,467657,22749
1187.99,1.317377,473969,22823
1191.52,1.315062,479856,23230
1195.06,1.315464,487372,23572
1199.76,1.315274,497347,24065
1203.29,1.313923,504311,24478
1206.81,1.317193,511507,24641
1210.33,1.317154,519078,25008
1213.84,1.323467,527163,25031
1217.35,1.319047,534208,25625
1220.85,1.319038,540472,25926
1225.51,1.319114,549929,26375
1229.01,1.317374,556888,26816
1232.5,1.322811,562180,26734
1235.98,1.324819,567975,26885
1239.46,1.322396,574815,27361
1242.94,1.316059,582782,28148
1246.41,1.322274,591476,28162
1251.03,1.321701,604016,28797
1254.5,1.317473,612289,29477
1257.96,1.322546,619125,29460
1261.41,1.319534,624551,29925
1264.86,1.324604,629900,29831
1268.31,1.321356,634345,30267
1271.75,1.325132,638574,30205
1276.33,1.325342,642499,30376
1279.76,1.318849,645905,30997
1283.19,1.327452,648307,30502
1286.61,1.323646,650446,30872
1290.03,1.319222,652132,31269
1293.44,1.320805,653907,31240
1296.85,1.328300,655963,30802
1301.39,1.324994,657349,31103
1304.8,1.330372,657558,30730
1308.19,1.325261,658515,31139
1311.58,1.325535,658804,31133
1314.97,1.322475,659011,31363
1318.36,1.326876,658272,31012
1321.73,1.330664,658022,30731
1326.23,1.325394,657870,31099
1329.6,1.326352,656482,30965
1332.97,1.331451,654926,30531
1336.33,1.321200,653727,31203
1339.69,1.324761,652497,30890
1343.04,1.324968,649913,30753
1346.39,1.327553,647671,30465
1349.73,1.325274,645338,30515
1354.18,1.323475,641175,30444
1357.52,1.325890,638376,30143
1360.85,1.324988,635805,30084
1364.17,1.325044,633413,29967
1367.49,1.328067,631026,29647
1370.81,1.325428,628050,29687
1374.12,1.325052,625034,29570
1378.54,1.327140,620272,29204
1381.84,1.322867,616892,29332
1385.14,1.326681,613613,28921
1388.43,1.328760,611526,28685
1391.72,1.323553,610663,28990
1395.01,1.319908,610634,29233
1398.29,1.326016,611700,28875
1402.66,1.326721,614051,28939
1405.93,1.327926,616268,28963
1409.2,1.330383,617795,28871
1412.46,1.328694,618872,29034
1415.72,1.326107,619795,29251
1418.98,1.334720,620495,28709
1422.23,1.323154,621087,29512
1426.56,1.329133,621375,29122
1429.8,1.330496,621616,29042
1433.04,1.327962,622129,29236
1436.27,1.327512,621526,29238
1439.5,1.328651,621113,29142
1442.72,1.329114,620921,29102
1445.94,1.334275,620270,28728
1450.23,1.332321,618860,28792
1453.44,1.331519,617697,28791
1456.64,1.327294,616264,29005
1459.85,1.331730,614413,28624
1463.04,1.332826,612307,28454
1466.24,1.329762,610032,28549
1469.43,1.335116,607345,28075
1473.67,1.333216,603789,28033
1476.85,1.328767,601175,28199
1480.02,1.323054,597737,28409
1483.19,1.338404,594479,27273
1486.36,1.333089,591232,27458
1489.52,1.333600,587853,27269
1492.68,1.328902,583875,27379
1496.89,1.336505,578062,26636
1500.03,1.332147,574159,26723
1503.18,1.331684,570285,26571
1506.32,1.333691,565444,26224
1509.45,1.337466,560571,25773
1512.58,1.334478,555821,25731
1515.71,1.334759,550344,25461
1519.87,1.332963,543983,25271
1522.99,1.339670,538764,24645
1526.1,1.335491,533692,24649
1529.21,1.335537,527902,24379
1532.32,1.332649,521886,24262
1535.42,1.337642,515888,23709
1538.51,1.327891,509987,23970
1541.6,1.328452,503936,23655
1545.72,1.324954,494694,23409
1548.8,1.327085,488378,22997
1551.88,1.328730,481832,22603
1554.95,1.328535,474989,22292
1558.02,1.334840,467818,21639
1561.08,1.328490,460730,21625
1564.15,1.326419,454170,21419
1568.22,1.335023,444181,20537
1571.27,1.332014,436947,20343
1574.32,1.332641,429598,19972
1577.36,1.332875,422039,19610
1580.4,1.325670,414375,19576
1583.43,1.334585,406354,18807
1586.46,1.339162,398475,18249
1590.49,1.332059,388982,18108
1593.51,1.329465,380708,17829
1596.53,1.316215,372727,17996
1599.54,1.326079,365060,17230
1602.55,1.312654,357543,17405
1605.55,1.318287,349495,16794
1608.55,1.319220,341154,16358
1612.54,1.313138,330877,16089
1615.53,1.321581,322904,15399
1618.51,1.305931,315116,15579
1621.49,1.333966,307217,14239
1624.47,1.313954,299481,14535
1627.44,1.308758,292112,14348
1630.41,1.323295,284245,13502
1634.36,1.305232,274079,13572
1637.32,1.318961,266916,12806
1640.27,1.309292,259612,12736
1643.22,1.302800,251804,12539
1646.16,1.304470,244348,12121
1649.1,1.302506,236703,11795
1652.04,1.301241,228171,11403
1655.95,1.293451,215408,10960
1658.88,1.289274,204937,10528
1661.8,1.284322,193395,10049
1664.72,1.270223,179728,9647
1667.63,1.267492,163642,8839
1670.54,1.244218,146312,8338
1673.44,1.221458,128451,7714
1677.31,1.174997,105080,7023
1680.21,1.180811,88906,5863
1683.1,1.132370,75033,5532
1685.99,1.161238,63520,4382
1688.87,1.168867,53714,3641
1691.75,1.193047,45653,2927
1694.62,1.203421,39137,2450
1697.49,1.056877,33776,2963
1701.31,1.168831,28175,1910

File: Column 1_078636_20241121_171227.csv
Method:,Column 1,,
Host Date-Time:,21/11/24 @ 17:12:27,,
Header Version:,1,,
System Temp (C):,36.83,,
Detector Temp (C):,35.19,,
Humidity (%):,0.68,,
Lamp PD:,3797,,
Shift Vector Coefficients:,-10.5391,0.0761263,-0.000134223,,
Pixel to Wavelength Coefficients:,1775.68,-0.916766,-0.000235065,,
Serial Number:,5510004,,
Scan Config Name:,Column 1,,
Scan Config Type:,Slew,,
Section 1,,
Start wavelength (nm):,900,,
End wavelength (nm):,1700,,
Pattern Pixel Width (nm):,   7.03,,,,
Exposure (ms):,  0.635,,,,
Digital Resolution:,228,,
Num Repeats:,6,,
PGA Gain:,64,,
Total Measurement Time in sec:,  2.725,,
Wavelength (nm),Absorbance (AU),Reference Signal (unitless),Sample Signal (unitless)
901.51,1.304345,108485,5383
905.376,1.310462,121306,5935
909.237,1.296670,131909,6662
913.095,1.289660,143299,7355
916.948,1.316353,156982,7577
922.079,1.319110,179937,8630
925.923,1.324674,200504,9494
929.762,1.328443,222660,10452
933.597,1.304358,244426,12128
937.427,1.318850,263972,12668
941.254,1.306028,281845,13931
945.076,1.311336,297271,14515
950.165,1.314594,315605,15295
953.978,1.306049,328029,16213
957.786,1.300609,340470,17040
961.59,1.315898,352317,17023
965.389,1.303040,363056,18069
969.185,1.301941,373162,18619
972.976,1.313245,382632,18601
976.763,1.299392,391202,19634
981.806,1.300304,400190,20043
985.583,1.301638,406088,20276
989.355,1.309565,410162,20109
993.124,1.301712,412868,20611
996.888,1.298295,414263,20844
1000.65,1.313345,415476,20193
1004.4,1.305167,415479,20577
1009.41,1.301175,414358,20711
1013.15,1.305792,412923,20421
1016.89,1.308401,411526,20230
1020.63,1.308705,409066,20095
1024.36,1.303747,406777,20212
1028.09,1.297423,404427,20390
1031.82,1.297791,401911,20246
1036.78,1.301717,398410,19889
1040.49,1.302506,396204,19743
1044.2,1.305254,394236,19521
1047.91,1.299043,392042,19692
1051.61,1.304883,389823,19319
1055.31,1.301225,388234,19403
1059,1.301208,387599,19372
1063.92,1.296369,386688,19543
1067.61,1.313102,386598,18800
1071.29,1.311373,387377,18913
1074.96,1.308125,388536,19112
1078.63,1.311830,389855,19014
1082.3,1.314440,391215,18966
1085.96,1.306001,393215,19437
1090.84,1.304717,396270,19646
1094.49,1.311881,398760,19446
1098.14,1.307871,400987,19736
1101.79,1.317659,403477,19416
1105.43,1.312995,406116,19754
1109.06,1.308227,407701,20050
1112.7,1.317419,409859,19734
1117.53,1.315998,412494,19926
1121.15,1.310307,414909,20307
1124.77,1.306358,416559,20574
1128.38,1.310568,418532,20472
1131.99,1.312022,419956,20473
1135.6,1.323684,421946,20025
1139.2,1.312808,423881,20627
1143.99,1.317737,426786,20534
1147.58,1.317381,428617,20639
1151.17,1.311891,431169,21026
1154.75,1.313569,433579,21062
1158.33,1.317902,436264,20982
1161.91,1.318271,439132,21102
1165.48,1.311612,442389,21587
1169.04,1.309306,446101,21884
1173.79,1.310265,451929,22121
1177.34,1.304497,456026,22620
1180.9,1.318694,461306,22146
1184.44,1.314533,467657,22667
1187.99,1.318215,473969,22779
1191.52,1.320593,479856,22936
1195.06,1.315298,487372,23581
1199.76,1.322406,497347,23673
1203.29,1.315273,504311,24402
1206.81,1.313683,511507,24841
1210.33,1.318894,519078,24908
1213.84,1.315541,527163,25492
1217.35,1.318420,534208,25662
1220.85,1.314041,540472,26226
1225.51,1.324349,549929,26059
1229.01,1.315322,556888,26943
1232.5,1.315690,562180,27176
1235.98,1.318135,567975,27302
1239.46,1.311425,574815,28061
1242.94,1.331704,582782,27152
1246.41,1.322505,591476,28147
1251.03,1.320015,604016,28909
1254.5,1.320860,612289,29248
1257.96,1.321647,619125,29521
1261.41,1.321366,624551,29799
1264.86,1.324342,629900,29849
1268.31,1.321428,634345,30262
1271.75,1.318682,638574,30657
1276.33,1.316875,642499,30974
1279.76,1.319522,645905,30949
1283.19,1.318602,648307,31130
1286.61,1.324322,650446,30824
1290.03,1.328061,652132,30639
1293.44,1.323231,653907,31066
1296.85,1.323170,655963,31168
1301.39,1.328133,657349,30879
1304.8,1.321891,657558,31336
1308.19,1.325931,658515,31091
1311.58,1.325842,658804,31111
1314.97,1.322309,659011,31375
1318.36,1.326372,658272,31048
1321.73,1.325871,658022,31072
1326.23,1.325827,657870,31068
1329.6,1.323263,656482,31186
1332.97,1.325770,654926,30933
1336.33,1.327241,653727,30772
1339.69,1.319381,652497,31275
1343.04,1.330682,649913,30351
1346.39,1.323749,647671,30733
1349.73,1.326571,645338,30424
1354.18,1.326366,641175,30242
1357.52,1.324523,638376,30238
1360.85,1.328671,635805,29830
1364.17,1.321536,633413,30210
1367.49,1.328228,631026,29636
1370.81,1.326717,628050,29599
1374.12,1.315983,625034,30194
1378.54,1.315186,620272,30019
1381.84,1.320284,616892,29507
1385.14,1.322660,613613,29190
1388.43,1.315270,611526,29590
1391.72,1.316628,610663,29456
1395.01,1.327823,610634,28705
1398.29,1.322690,611700,29097
1402.66,1.321426,614051,29294
1405.93,1.326534,616268,29056
1409.2,1.324704,617795,29251
1412.46,1.330342,618872,28924
1415.72,1.321162,619795,29586
1418.98,1.328786,620495,29104
1422.23,1.327041,621087,29249
1426.56,1.330282,621375,29045
1429.8,1.327991,621616,29210
1433.04,1.327636,622129,29258
1436.27,1.328300,621526,29185
1439.5,1.326525,621113,29285
1442.72,1.331748,620921,28926
1445.94,1.330303,620270,28992
1450.23,1.334028,618860,28679
1453.44,1.334258,617697,28610
1456.64,1.330978,616264,28760
1459.85,1.335724,614413,28362
1463.04,1.330558,612307,28603
1466.24,1.327395,610032,28705
1469.43,1.329796,607345,28421
1473.67,1.330005,603789,28241
1476.85,1.333054,601175,27922
1480.02,1.324095,597737,28341
1483.19,1.333905,594479,27557
1486.36,1.338644,591232,27109
1489.52,1.336059,587853,27115
1492.68,1.327461,583875,27470
1496.89,1.331077,578062,26971
1500.03,1.339572,574159,26270
1503.18,1.328103,570285,26791
1506.32,1.336949,565444,26028
1509.45,1.325713,560571,26480
1512.58,1.335848,555821,25650
1515.71,1.331903,550344,25629
1519.87,1.327651,543983,25582
1522.99,1.331829,538764,25094
1526.1,1.333628,533692,24755
1529.21,1.332838,527902,24531
1532.32,1.324299,521886,24733
1535.42,1.329476,515888,24159
1538.51,1.327511,509987,23991
1541.6,1.330255,503936,23557
1545.72,1.336345,494694,22803
1548.8,1.323175,488378,23205
1551.88,1.331467,481832,22461
1554.95,1.333866,474989,22020
1558.02,1.333017,467818,21730
1561.08,1.325548,460730,21772
1564.15,1.330350,454170,21226
1568.22,1.330186,444181,20767
1571.27,1.332035,436947,20342
1574.32,1.332706,429598,19969
1577.36,1.324453,422039,19994
1580.4,1.328988,414375,19427
1583.43,1.322358,406354,19344
1586.46,1.325966,398475,18812
1590.49,1.315010,388982,18833
1593.51,1.322793,380708,18105
1596.53,1.325385,372727,17620
1599.54,1.311920,365060,17801
1602.55,1.313503,357543,17371
1605.55,1.322105,349495,16647
1608.55,1.323462,341154,16199
1612.54,1.317833,330877,15916
1615.53,1.311297,322904,15768
1618.51,1.315115,315116,15253
1621.49,1.315777,307217,14848
1624.47,1.327335,299481,14094
1627.44,1.315653,292112,14122
1630.41,1.311554,284245,13872
1634.36,1.302870,274079,13646
1637.32,1.297523,266916,13454
1640.27,1.307386,259612,12792
1643.22,1.308798,251804,12367
1646.16,1.321981,244348,11642
1649.1,1.312186,236703,11535
1652.04,1.289074,228171,11727
1655.95,1.301571,215408,10757
1658.88,1.281466,204937,10719
1661.8,1.265960,193395,10483
1664.72,1.266815,179728,9723
1667.63,1.256623,163642,9063
1670.54,1.230731,146312,8601
1673.44,1.216977,128451,7794
1677.31,1.177665,105080,6980
1680.21,1.152565,88906,6257
1683.1,1.125671,75033,5618
1685.99,1.144613,63520,4553
1688.87,1.090701,53714,4359
1691.75,1.172472,45653,3069
1694.62,1.061236,39137,3399
1697.49,1.240135,33776,1943
1701.31,1.109420,28175,2190

File: Column 1_078644_20241121_171251.csv
Method:,Column 1,,
Host Date-Time:,21/11/24 @ 17:12:51,,
Header Version:,1,,
System Temp (C):,36.17,,
Detector Temp (C):,35.19,,
Humidity (%):,0.29,,
Lamp PD:,3797,,
Shift Vector Coefficients:,-10.5391,0.0761263,-0.000134223,,
Pixel to Wavelength Coefficients:,1775.68,-0.916766,-0.000235065,,
Serial Number:,5510004,,
Scan Config Name:,Column 1,,
Scan Config Type:,Slew,,
Section 1,,
Start wavelength (nm):,900,,
End wavelength (nm):,1700,,
Pattern Pixel Width (nm):,   7.03,,,,
Exposure (ms):,  0.635,,,,
Digital Resolution:,228,,
Num Repeats:,6,,
PGA Gain:,64,,
Total Measurement Time in sec:,  2.727,,
Wavelength (nm),Absorbance (AU),Reference Signal (unitless),Sample Signal (unitless)
901.51,1.315873,108485,5242
905.376,1.328694,121306,5691
909.237,1.324881,131909,6243
913.095,1.330882,143299,6689
916.948,1.302699,156982,7819
922.079,1.315901,179937,8694
925.923,1.333173,200504,9310
929.762,1.312293,222660,10848
933.597,1.325942,244426,11540
937.427,1.323191,263972,12542
941.254,1.314178,281845,13672
945.076,1.321476,297271,14180
950.165,1.317472,315605,15194
953.978,1.309707,328029,16077
957.786,1.315939,340470,16449
961.59,1.314751,352317,17068
965.389,1.303809,363056,18037
969.185,1.307954,373162,18363
972.976,1.307631,382632,18843
976.763,1.310187,391202,19152
981.806,1.307315,400190,19722
985.583,1.304755,406088,20131
989.355,1.308443,410162,20161
993.124,1.307781,412868,20325
996.888,1.306434,414263,20457
1000.65,1.303584,415476,20652
1004.4,1.297738,415479,20932
1009.41,1.305135,414358,20523
1013.15,1.305898,412923,20416
1016.89,1.305598,411526,20361
1020.63,1.310264,409066,20023
1024.36,1.302674,406777,20262
1028.09,1.306549,404427,19966
1031.82,1.302948,401911,20007
1036.78,1.307277,398410,19636
1040.49,1.308598,396204,19468
1044.2,1.313542,394236,19152
1047.91,1.305397,392042,19406
1051.61,1.313350,389823,18946
1055.31,1.309815,388234,19023
1059,1.302376,387599,19320
1063.92,1.309614,386688,18956
1067.61,1.303800,386598,19207
1071.29,1.313976,387377,18800
1074.96,1.311272,388536,18974
1078.63,1.323497,389855,18510
1082.3,1.317727,391215,18823
1085.96,1.304751,393215,19493
1090.84,1.312546,396270,19295
1094.49,1.310432,398760,19511
1098.14,1.311628,400987,19566
1101.79,1.317212,403477,19436
1105.43,1.306038,406116,20073
1109.06,1.312844,407701,19838
1112.7,1.316935,409859,19756
1117.53,1.309615,412494,20221
1121.15,1.312580,414909,20201
1124.77,1.312973,416559,20263
1128.38,1.314104,418532,20306
1131.99,1.317852,419956,20200
1135.6,1.322623,421946,20074
1139.2,1.318829,423881,20343
1143.99,1.311980,426786,20808
1147.58,1.318730,428617,20575
1151.17,1.319307,431169,20670
1154.75,1.299589,433579,21751
1158.33,1.318918,436264,20933
1161.91,1.317942,439132,21118
1165.48,1.321748,442389,21089
1169.04,1.311754,446101,21761
1173.79,1.323036,451929,21480
1177.34,1.311738,456026,22246
1180.9,1.309381,461306,22626
1184.44,1.311117,467657,22846
1187.99,1.310449,473969,23190
1191.52,1.309784,479856,23514
1195.06,1.319778,487372,23339
1199.76,1.321270,497347,23735
1203.29,1.326304,504311,23790
1206.81,1.321141,511507,24418
1210.33,1.320939,519078,24791
1213.84,1.316018,527163,25464
1217.35,1.321733,534208,25467
1220.85,1.318619,540472,25951
1225.51,1.322155,549929,26191
1229.01,1.322571,556888,26497
1232.5,1.320899,562180,26852
1235.98,1.321056,567975,27119
1239.46,1.318037,574815,27637
1242.94,1.313566,582782,28310
1246.41,1.316529,591476,28537
1251.03,1.326707,604016,28467
1254.5,1.324139,612289,29028
1257.96,1.323239,619125,29413
1261.41,1.321891,624551,29763
1264.86,1.324706,629900,29824
1268.31,1.324134,634345,30074
1271.75,1.323382,638574,30327
1276.33,1.323302,642499,30519
1279.76,1.320098,645905,30908
1283.19,1.325733,648307,30623
1286.61,1.330595,650446,30382
1290.03,1.324026,652132,30925
1293.44,1.328675,653907,30679
1296.85,1.319770,655963,31413
1301.39,1.321102,657349,31383
1304.8,1.325118,657558,31104
1308.19,1.324300,658515,31208
1311.58,1.326219,658804,31084
1314.97,1.327041,659011,31035
1318.36,1.327478,658272,30969
1321.73,1.329845,658022,30789
1326.23,1.328252,657870,30895
1329.6,1.323946,656482,31137
1332.97,1.324676,654926,31011
1336.33,1.324329,653727,30979
1339.69,1.327610,652497,30688
1343.04,1.330983,649913,30330
1346.39,1.330199,647671,30280
1349.73,1.327414,645338,30365
1354.18,1.328150,641175,30118
1357.52,1.320791,638376,30499
1360.85,1.322771,635805,30238
1364.17,1.324551,633413,30001
1367.49,1.325190,631026,29844
1370.81,1.323195,628050,29840
1374.12,1.324377,625034,29616
1378.54,1.330334,620272,28990
1381.84,1.334846,616892,28534
1385.14,1.319710,613613,29389
1388.43,1.318348,611526,29381
1391.72,1.323673,610663,28982
1395.01,1.330160,610634,28551
1398.29,1.329808,611700,28624
1402.66,1.325298,614051,29034
1405.93,1.322591,616268,29321
1409.2,1.327310,617795,29076
1412.46,1.322811,618872,29430
1415.72,1.330885,619795,28931
1418.98,1.331240,620495,28940
1422.23,1.327012,621087,29251
1426.56,1.330806,621375,29010
1429.8,1.331289,621616,28989
1433.04,1.326716,622129,29320
1436.27,1.330537,621526,29035
1439.5,1.329666,621113,29074
1442.72,1.328472,620921,29145
1445.94,1.326010,620270,29280
1450.23,1.328880,618860,29021
1453.44,1.334455,617697,28597
1456.64,1.329817,616264,28837
1459.85,1.324045,614413,29135
1463.04,1.333101,612307,28436
1466.24,1.328516,610032,28631
1469.43,1.334513,607345,28114
1473.67,1.329329,603789,28285
1476.85,1.336427,601175,27706
1480.02,1.329461,597737,27993
1483.19,1.328922,594479,27875
1486.36,1.331636,591232,27550
1489.52,1.334094,587853,27238
1492.68,1.336019,583875,26934
1496.89,1.332885,578062,26859
1500.03,1.335246,574159,26533
1503.18,1.331913,570285,26557
1506.32,1.331494,565444,26357
1509.45,1.332290,560571,26082
1512.58,1.324319,555821,26340
1515.71,1.335185,550344,25436
1519.87,1.338671,543983,24941
1522.99,1.332626,538764,25048
1526.1,1.328865,533692,25028
1529.21,1.335698,527902,24370
1532.32,1.334946,521886,24134
1535.42,1.327683,515888,24259
1538.51,1.321703,509987,24314
1541.6,1.329721,503936,23586
1545.72,1.327093,494694,23294
1548.8,1.338334,488378,22409
1551.88,1.327157,481832,22685
1554.95,1.327309,474989,22355
1558.02,1.327536,467818,22006
1561.08,1.334171,460730,21344
1564.15,1.344618,454170,20540
1568.22,1.330270,444181,20763
1571.27,1.320470,436947,20891
1574.32,1.326123,429598,20274
1577.36,1.326281,422039,19910
1580.4,1.330825,414375,19345
1583.43,1.331249,406354,18952
1586.46,1.320689,398475,19042
1590.49,1.322758,388982,18500
1593.51,1.325030,380708,18012
1596.53,1.326693,372727,17567
1599.54,1.321965,365060,17394
1602.55,1.330482,357543,16705
1605.55,1.324381,349495,16560
1608.55,1.318186,341154,16397
1612.54,1.325874,330877,15624
1615.53,1.312649,322904,15719
1618.51,1.320184,315116,15076
1621.49,1.324941,307217,14538
1624.47,1.310680,299481,14645
1627.44,1.319639,292112,13993
1630.41,1.320985,284245,13574
1634.36,1.301885,274079,13677
1637.32,1.313234,266916,12976
1640.27,1.318110,259612,12480
1643.22,1.317059,251804,12134
1646.16,1.303397,244348,12151
1649.1,1.304647,236703,11737
1652.04,1.309857,228171,11179
1655.95,1.306157,215408,10644
1658.88,1.286396,204937,10598
1661.8,1.278314,193395,10189
1664.72,1.273976,179728,9564
1667.63,1.260715,163642,8978
1670.54,1.237961,146312,8459
1673.44,1.226327,128451,7628
1677.31,1.171487,105080,7080
1680.21,1.211420,88906,5464
1683.1,1.154928,75033,5252
1685.99,1.172788,63520,4267
1688.87,1.179615,53714,3552
1691.75,1.155543,45653,3191
1694.62,1.212015,39137,2402
1697.49,1.172965,33776,2268
1701.31,1.231591,28175,1653