Folder: textile_sorting_NIRSCAN_/ML/samples/unknown (part 61)

File: Column 1_078412_20241121_170124.csv
Method:,Column 1,,
Host Date-Time:,21/11/24 @ 17:1:24,,
Header Version:,1,,
System Temp (C):,34.78,,
Detector Temp (C):,33.73,,
Humidity (%):,2.16,,
Lamp PD:,3802,,
Shift Vector Coefficients:,-10.5391,0.0761263,-0.000134223,,
Pixel to Wavelength Coefficients:,1775.68,-0.916766,-0.000235065,,
Serial Number:,5510004,,
Scan Config Name:,Column 1,,
Scan Config Type:,Slew,,
Section 1,,
Start wavelength (nm):,900,,
End wavelength (nm):,1700,,
Pattern Pixel Width (nm):,   7.03,,,,
Exposure (ms):,  0.635,,,,
Digital Resolution:,228,,
Num Repeats:,6,,
PGA Gain:,64,,
Total Measurement Time in sec:,  2.730,,
Wavelength (nm),Absorbance (AU),Reference Signal (unitless),Sample Signal (unitless)
901.51,1.319450,108485,5199
905.376,1.291841,121306,6195
909.237,1.318185,131909,6340
913.095,1.320806,143299,6846
916.948,1.303922,156982,7797
922.079,1.335938,179937,8302
925.923,1.316562,200504,9673
929.762,1.312693,222660,10838
933.597,1.319813,244426,11704
937.427,1.325622,263972,12472
941.254,1.328680,281845,13223
945.076,1.308413,297271,14613
950.165,1.311933,315605,15389
953.978,1.305808,328029,16222
957.786,1.311134,340470,16632
961.59,1.312821,352317,17144
965.389,1.304171,363056,18022
969.185,1.303999,373162,18531
972.976,1.304005,382632,19001
976.763,1.304241,391202,19416
981.806,1.306457,400190,19761
985.583,1.310422,406088,19870
989.355,1.303453,410162,20394
993.124,1.307439,412868,20341
996.888,1.306201,414263,20468
1000.65,1.299752,415476,20835
1004.4,1.304155,415479,20625
1009.41,1.303930,414358,20580
1013.15,1.311508,412923,20154
1016.89,1.305534,411526,20364
1020.63,1.299426,409066,20529
1024.36,1.300451,406777,20366
1028.09,1.305289,404427,20024
1031.82,1.305823,401911,19875
1036.78,1.301063,398410,19919
1040.49,1.309938,396204,19408
1044.2,1.305232,394236,19522
1047.91,1.309873,392042,19207
1051.61,1.306550,389823,19245
1055.31,1.309085,388234,19055
1059,1.310155,387599,18977
1063.92,1.309683,386688,18953
1067.61,1.307661,386598,19037
1071.29,1.301475,387377,19349
1074.96,1.312143,388536,18936
1078.63,1.311738,389855,19018
1082.3,1.304860,391215,19389
1085.96,1.297570,393215,19818
1090.84,1.312704,396270,19288
1094.49,1.315830,398760,19270
1098.14,1.318294,400987,19268
1101.79,1.317346,403477,19430
1105.43,1.321812,406116,19357
1109.06,1.310943,407701,19925
1112.7,1.325415,409859,19374
1117.53,1.318270,412494,19822
1121.15,1.317270,414909,19984
1124.77,1.316070,416559,20119
1128.38,1.328631,418532,19638
1131.99,1.314277,419956,20367
1135.6,1.321888,421946,20108
1139.2,1.309703,423881,20775
1143.99,1.315711,426786,20630
1147.58,1.320104,428617,20510
1151.17,1.313505,431169,20948
1154.75,1.318462,433579,20826
1158.33,1.315488,436264,21099
1161.91,1.317141,439132,21157
1165.48,1.320802,442389,21135
1169.04,1.323589,446101,21176
1173.79,1.313082,451929,21978
1177.34,1.309868,456026,22342
1180.9,1.313450,461306,22415
1184.44,1.320281,467657,22369
1187.99,1.321411,473969,22612
1191.52,1.311821,479856,23404
1195.06,1.321512,487372,23246
1199.76,1.316702,497347,23986
1203.29,1.317128,504311,24298
1206.81,1.321141,511507,24418
1210.33,1.316720,519078,25033
1213.84,1.320906,527163,25179
1217.35,1.316916,534208,25751
1220.85,1.322840,540472,25700
1225.51,1.320252,549929,26306
1229.01,1.319582,556888,26680
1232.5,1.323722,562180,26678
1235.98,1.321777,567975,27074
1239.46,1.339110,574815,26328
1242.94,1.320946,582782,27833
1246.41,1.323293,591476,28096
1251.03,1.322003,604016,28777
1254.5,1.318063,612289,29437
1257.96,1.326872,619125,29168
1261.41,1.322285,624551,29736
1264.86,1.326764,629900,29683
1268.31,1.326698,634345,29897
1271.75,1.323453,638574,30322
1276.33,1.321683,642499,30633
1279.76,1.328798,645905,30295
1283.19,1.324883,648307,30683
1286.61,1.323731,650446,30866
1290.03,1.333165,652132,30281
1293.44,1.323133,653907,31073
1296.85,1.324287,655963,31088
1301.39,1.329415,657349,30788
1304.8,1.327990,657558,30899
1308.19,1.323382,658515,31274
1311.58,1.330389,658804,30787
1314.97,1.333313,659011,30590
1318.36,1.330843,658272,30730
1321.73,1.329760,658022,30795
1326.23,1.334967,657870,30421
1329.6,1.329985,656482,30707
1332.97,1.332519,654926,30456
1336.33,1.328753,653727,30665
1339.69,1.332921,652497,30315
1343.04,1.328441,649913,30508
1346.39,1.325619,647671,30601
1349.73,1.332623,645338,30003
1354.18,1.327056,641175,30194
1357.52,1.328810,638376,29941
1360.85,1.324570,635805,30113
1364.17,1.327704,633413,29784
1367.49,1.323216,631026,29980
1370.81,1.327745,628050,29529
1374.12,1.323279,625034,29691
1378.54,1.322510,620272,29517
1381.84,1.325630,616892,29146
1385.14,1.331392,613613,28609
1388.43,1.323553,611526,29031
1391.72,1.323164,610663,29016
1395.01,1.327279,610634,28741
1398.29,1.326092,611700,28870
1402.66,1.329551,614051,28751
1405.93,1.328767,616268,28907
1409.2,1.330322,617795,28875
1412.46,1.329083,618872,29008
1415.72,1.333474,619795,28759
1418.98,1.329368,620495,29065
1422.23,1.328499,621087,29151
1426.56,1.331106,621375,28990
1429.8,1.332985,621616,28876
1433.04,1.335288,622129,28747
1436.27,1.333133,621526,28862
1439.5,1.331072,621113,28980
1442.72,1.334263,620921,28759
1445.94,1.334411,620270,28719
1450.23,1.334680,618860,28636
1453.44,1.328602,617697,28985
1456.64,1.333112,616264,28619
1459.85,1.330624,614413,28697
1463.04,1.334539,612307,28342
1466.24,1.333106,610032,28330
1469.43,1.329353,607345,28450
1473.67,1.332736,603789,28064
1476.85,1.331765,601175,28005
1480.02,1.331623,597737,27854
1483.19,1.333779,594479,27565
1486.36,1.335277,591232,27320
1489.52,1.326679,587853,27707
1492.68,1.338558,583875,26777
1496.89,1.333953,578062,26793
1500.03,1.333384,574159,26647
1503.18,1.332862,570285,26499
1506.32,1.339258,565444,25890
1509.45,1.337078,560571,25796
1512.58,1.340563,555821,25373
1515.71,1.335032,550344,25445
1519.87,1.335065,543983,25149
1522.99,1.332834,538764,25036
1526.1,1.335809,533692,24631
1529.21,1.337233,527902,24284
1532.32,1.339105,521886,23904
1535.42,1.328597,515888,24208
1538.51,1.328671,509987,23927
1541.6,1.332103,503936,23457
1545.72,1.339633,494694,22631
1548.8,1.320730,488378,23336
1551.88,1.335507,481832,22253
1554.95,1.332134,474989,22108
1558.02,1.324703,467818,22150
1561.08,1.330100,460730,21545
1564.15,1.332134,454170,21139
1568.22,1.338996,444181,20350
1571.27,1.339464,436947,19997
1574.32,1.320610,429598,20533
1577.36,1.332388,422039,19632
1580.4,1.331117,414375,19332
1583.43,1.325943,406354,19185
1586.46,1.339448,398475,18237
1590.49,1.328595,388982,18253
1593.51,1.332422,380708,17708
1596.53,1.331141,372727,17388
1599.54,1.335635,365060,16855
1602.55,1.326136,357543,16873
1605.55,1.318364,349495,16791
1608.55,1.327421,341154,16052
1612.54,1.324764,330877,15664
1615.53,1.323815,322904,15320
1618.51,1.324847,315116,14915
1621.49,1.327367,307217,14457
1624.47,1.318429,299481,14386
1627.44,1.314425,292112,14162
1630.41,1.310584,284245,13903
1634.36,1.307735,274079,13494
1637.32,1.305505,266916,13209
1640.27,1.310418,259612,12703
1643.22,1.322787,251804,11975
1646.16,1.312243,244348,11906
1649.1,1.308363,236703,11637
1652.04,1.306105,228171,11276
1655.95,1.301571,215408,10757
1658.88,1.283985,204937,10657
1661.8,1.297129,193395,9757
1664.72,1.285619,179728,9311
1667.63,1.252236,163642,9155
1670.54,1.217699,146312,8863
1673.44,1.224679,128451,7657
1677.31,1.203294,105080,6580
1680.21,1.218957,88906,5370
1683.1,1.163529,75033,5149
1685.99,1.170352,63520,4291
1688.87,1.174268,53714,3596
1691.75,1.183218,45653,2994
1694.62,1.161385,39137,2699
1697.49,1.161066,33776,2331
1701.31,1.164307,28175,1930

File: Column 1_078414_20241121_170130.csv
Method:,Column 1,,
Host Date-Time:,21/11/24 @ 17:1:30,,
Header Version:,1,,
System Temp (C):,34.76,,
Detector Temp (C):,33.75,,
Humidity (%):,2.16,,
Lamp PD:,3801,,
Shift Vector Coefficients:,-10.5391,0.0761263,-0.000134223,,
Pixel to Wavelength Coefficients:,1775.68,-0.916766,-0.000235065,,
Serial Number:,5510004,,
Scan Config Name:,Column 1,,
Scan Config Type:,Slew,,
Section 1,,
Start wavelength (nm):,900,,
End wavelength (nm):,1700,,
Pattern Pixel Width (nm):,   7.03,,,,
Exposure (ms):,  0.635,,,,
Digital Resolution:,228,,
Num Repeats:,6,,
PGA Gain:,64,,
Total Measurement Time in sec:,  2.728,,
Wavelength (nm),Absorbance (AU),Reference Signal (unitless),Sample Signal (unitless)
901.51,1.327885,108485,5099
905.376,1.333683,121306,5626
909.237,1.311389,131909,6440
913.095,1.307562,143299,7058
916.948,1.329917,156982,7344
922.079,1.309997,179937,8813
925.923,1.324948,200504,9488
929.762,1.328734,222660,10445
933.597,1.328811,244426,11464
937.427,1.315775,263972,12758
941.254,1.318777,281845,13528
945.076,1.315152,297271,14388
950.165,1.317272,315605,15201
953.978,1.313778,328029,15927
957.786,1.310013,340470,16675
961.59,1.307859,352317,17341
965.389,1.315870,363056,17543
969.185,1.312829,373162,18158
972.976,1.309873,382632,18746
976.763,1.302522,391202,19493
981.806,1.299049,400190,20101
985.583,1.313669,406088,19722
989.355,1.305845,410162,20282
993.124,1.313415,412868,20063
996.888,1.309973,414263,20291
1000.65,1.315652,415476,20086
1004.4,1.307559,415479,20464
1009.41,1.312713,414358,20168
1013.15,1.301286,412923,20634
1016.89,1.305556,411526,20363
1020.63,1.310720,409066,20002
1024.36,1.306614,406777,20079
1028.09,1.312043,404427,19715
1031.82,1.302731,401911,20017
1036.78,1.310385,398410,19496
1040.49,1.311642,396204,19332
1044.2,1.306257,394236,19476
1047.91,1.305061,392042,19421
1051.61,1.311155,389823,19042
1055.31,1.300040,388234,19456
1059,1.311507,387599,18918
1063.92,1.306350,386688,19099
1067.61,1.301635,386598,19303
1071.29,1.314438,387377,18780
1074.96,1.307240,388536,19151
1078.63,1.317809,389855,18754
1082.3,1.316276,391215,18886
1085.96,1.319134,393215,18858
1090.84,1.325036,396270,18748
1094.49,1.319792,398760,19095
1098.14,1.310099,400987,19635
1101.79,1.315673,403477,19505
1105.43,1.324445,406116,19240
1109.06,1.312691,407701,19845
1112.7,1.320578,409859,19591
1117.53,1.320599,412494,19716
1121.15,1.316033,414909,20041
1124.77,1.314992,416559,20169
1128.38,1.311545,418532,20426
1131.99,1.316286,419956,20273
1135.6,1.317376,421946,20318
1139.2,1.312513,423881,20641
1143.99,1.313967,426786,20713
1147.58,1.318519,428617,20585
1151.17,1.314252,431169,20912
1154.75,1.310999,433579,21187
1158.33,1.320539,436264,20855
1161.91,1.313645,439132,21328
1165.48,1.317527,442389,21295
1169.04,1.316268,446101,21536
1173.79,1.314170,451929,21923
1177.34,1.325240,456026,21565
1180.9,1.315665,461306,22301
1184.44,1.310813,467657,22862
1187.99,1.314324,473969,22984
1191.52,1.316691,479856,23143
1195.06,1.317903,487372,23440
1199.76,1.319845,497347,23813
1203.29,1.318166,504311,24240
1206.81,1.321124,511507,24419
1210.33,1.326421,519078,24480
1213.84,1.325205,527163,24931
1217.35,1.322706,534208,25410
1220.85,1.324686,540472,25591
1225.51,1.326219,549929,25947
1229.01,1.320038,556888,26652
1232.5,1.322925,562180,26727
1235.98,1.320463,567975,27156
1239.46,1.322349,574815,27364
1242.94,1.317682,582782,28043
1246.41,1.322490,591476,28148
1251.03,1.329707,604016,28271
1254.5,1.325953,612289,28907
1257.96,1.323712,619125,29381
1261.41,1.327738,624551,29365
1264.86,1.320691,629900,30101
1268.31,1.328401,634345,29780
1271.75,1.332733,638574,29681
1276.33,1.328571,642499,30151
1279.76,1.327152,645905,30410
1283.19,1.327937,648307,30468
1286.61,1.328356,650446,30539
1290.03,1.327494,652132,30679
1293.44,1.329866,653907,30595
1296.85,1.330846,655963,30622
1301.39,1.328879,657349,30826
1304.8,1.329623,657558,30783
1308.19,1.335292,658515,30428
1311.58,1.337744,658804,30270
1314.97,1.330680,659011,30776
1318.36,1.333451,658272,30546
1321.73,1.334710,658022,30446
1326.23,1.330013,657870,30770
1329.6,1.330977,656482,30637
1332.97,1.336631,654926,30169
1336.33,1.332966,653727,30369
1339.69,1.331905,652497,30386
1343.04,1.336778,649913,29928
1346.39,1.338583,647671,29701
1349.73,1.325872,645338,30473
1354.18,1.326625,641175,30224
1357.52,1.333023,638376,29652
1360.85,1.331900,635805,29609
1364.17,1.330924,633413,29564
1367.49,1.330873,631026,29456
1370.81,1.324639,628050,29741
1374.12,1.329540,625034,29266
1378.54,1.324323,620272,29394
1381.84,1.328201,616892,28974
1385.14,1.329816,613613,28713
1388.43,1.328821,611526,28681
1391.72,1.325189,610663,28881
1395.01,1.328687,610634,28648
1398.29,1.329414,611700,28650
1402.66,1.330565,614051,28684
1405.93,1.329007,616268,28891
1409.2,1.331060,617795,28826
1412.46,1.325119,618872,29274
1415.72,1.333052,619795,28787
1418.98,1.334055,620495,28753
1422.23,1.331849,621087,28927
1426.56,1.336214,621375,28651
1429.8,1.332955,621616,28878
1433.04,1.337317,622129,28613
1436.27,1.332637,621526,28895
1439.5,1.330623,621113,29010
1442.72,1.332725,620921,28861
1445.94,1.337843,620270,28493
1450.23,1.330890,618860,28887
1453.44,1.342734,617697,28057
1456.64,1.330088,616264,28819
1459.85,1.336475,614413,28313
1463.04,1.334079,612307,28372
1466.24,1.332539,610032,28367
1469.43,1.334884,607345,28090
1473.67,1.332442,603789,28083
1476.85,1.340111,601175,27472
1480.02,1.337667,597737,27469
1483.19,1.331265,594479,27725
1486.36,1.336041,591232,27272
1489.52,1.339210,587853,26919
1492.68,1.329569,583875,27337
1496.89,1.334245,578062,26775
1500.03,1.339027,574159,26303
1503.18,1.336351,570285,26287
1506.32,1.339258,565444,25890
1509.45,1.339933,560571,25627
1512.58,1.332323,555821,25859
1515.71,1.335288,550344,25430
1519.87,1.340486,543983,24837
1522.99,1.337525,538764,24767
1526.1,1.328969,533692,25022
1529.21,1.334097,527902,24460
1532.32,1.336605,521886,24042
1535.42,1.336197,515888,23788
1538.51,1.341940,509987,23207
1541.6,1.333940,503936,23358
1545.72,1.334217,494694,22915
1548.8,1.341309,488378,22256
1551.88,1.342333,481832,21906
1554.95,1.333669,474989,22030
1558.02,1.342534,467818,21259
1561.08,1.340298,460730,21045
1564.15,1.328982,454170,21293
1568.22,1.323298,444181,21099
1571.27,1.328950,436947,20487
1574.32,1.339412,429598,19663
1577.36,1.332786,422039,19614
1580.4,1.330286,414375,19369
1583.43,1.329078,406354,19047
1586.46,1.334829,398475,18432
1590.49,1.331747,388982,18121
1593.51,1.331051,380708,17764
1596.53,1.333069,372727,17311
1599.54,1.332682,365060,16970
1602.55,1.325416,357543,16901
1605.55,1.329684,349495,16359
1608.55,1.315072,341154,16515
1612.54,1.331329,330877,15429
1615.53,1.324666,322904,15290
1618.51,1.330209,315116,14732
1621.49,1.328209,307217,14429
1624.47,1.333386,299481,13899
1627.44,1.317564,292112,14060
1630.41,1.336521,284245,13097
1634.36,1.313535,274079,13315
1637.32,1.334251,266916,12363
1640.27,1.305591,259612,12845
1643.22,1.314454,251804,12207
1646.16,1.315538,244348,11816
1649.1,1.315247,236703,11454
1652.04,1.316158,228171,11018
1655.95,1.307096,215408,10621
1658.88,1.302978,204937,10201
1661.8,1.284452,193395,10046
1664.72,1.286179,179728,9299
1667.63,1.268328,163642,8822
1670.54,1.223570,146312,8744
1673.44,1.221289,128451,7717
1677.31,1.201056,105080,6614
1680.21,1.233847,88906,5189
1683.1,1.163192,75033,5153
1685.99,1.167125,63520,4323
1688.87,1.141704,53714,3876
1691.75,1.161573,45653,3147
1694.62,1.175781,39137,2611
1697.49,1.222612,33776,2023
1701.31,1.085876,28175,2312

File: Column 1_078416_20241121_170136.csv
Method:,Column 1,,
Host Date-Time:,21/11/24 @ 17:1:36,,
Header Version:,1,,
System Temp (C):,34.75,,
Detector Temp (C):,33.72,,
Humidity (%):,2.16,,
Lamp PD:,3801,,
Shift Vector Coefficients:,-10.5391,0.0761263,-0.000134223,,
Pixel to Wavelength Coefficients:,1775.68,-0.916766,-0.000235065,,
Serial Number:,5510004,,
Scan Config Name:,Column 1,,
Scan Config Type:,Slew,,
Section 1,,
Start wavelength (nm):,900,,
End wavelength (nm):,1700,,
Pattern Pixel Width (nm):,   7.03,,,,
Exposure (ms):,  0.635,,,,
Digital Resolution:,228,,
Num Repeats:,6,,
PGA Gain:,64,,
Total Measurement Time in sec:,  2.724,,
Wavelength (nm),Absorbance (AU),Reference Signal (unitless),Sample Signal (unitless)
901.51,1.301451,108485,5419
905.376,1.339198,121306,5555
909.237,1.303106,131909,6564
913.095,1.322841,143299,6814
916.948,1.299820,156982,7871
922.079,1.343484,179937,8159
925.923,1.308510,200504,9854
929.762,1.309380,222660,10921
933.597,1.316265,244426,11800
937.427,1.328978,263972,12376
941.254,1.322225,281845,13421
945.076,1.310917,297271,14529
950.165,1.317929,315605,15178
953.978,1.313397,328029,15941
957.786,1.313019,340470,16560
961.59,1.314217,352317,17089
965.389,1.317954,363056,17459
969.185,1.308901,373162,18323
972.976,1.308554,382632,18803
976.763,1.308987,391202,19205
981.806,1.309103,400190,19641
985.583,1.303333,406088,20197
989.355,1.305609,410162,20293
993.124,1.299275,412868,20727
996.888,1.303177,414263,20611
1000.65,1.303626,415476,20650
1004.4,1.305991,415479,20538
1009.41,1.302014,414358,20671
1013.15,1.306771,412923,20375
1016.89,1.305556,411526,20363
1020.63,1.307885,409066,20133
1024.36,1.314075,406777,19737
1028.09,1.310307,404427,19794
1031.82,1.303969,401911,19960
1036.78,1.303797,398410,19794
1040.49,1.301276,396204,19799
1044.2,1.311732,394236,19232
1047.91,1.298888,392042,19699
1051.61,1.309221,389823,19127
1055.31,1.311393,388234,18954
1059,1.310361,387599,18968
1063.92,1.312718,386688,18821
1067.61,1.310086,386598,18931
1071.29,1.324356,387377,18356
1074.96,1.306651,388536,19177
1078.63,1.311578,389855,19025
1082.3,1.312794,391215,19038
1085.96,1.317847,393215,18914
1090.84,1.309474,396270,19432
1094.49,1.314839,398760,19314
1098.14,1.312717,400987,19517
1101.79,1.322359,403477,19207
1105.43,1.309993,406116,19891
1109.06,1.318906,407701,19563
1112.7,1.323224,409859,19472
1117.53,1.315061,412494,19969
1121.15,1.317205,414909,19987
1124.77,1.321107,416559,19887
1128.38,1.312759,418532,20369
1131.99,1.321393,419956,20036
1135.6,1.307006,421946,20809
1139.2,1.320905,423881,20246
1143.99,1.328182,426786,20046
1147.58,1.316351,428617,20688
1151.17,1.318950,431169,20687
1154.75,1.312354,433579,21121
1158.33,1.311431,436264,21297
1161.91,1.322761,439132,20885
1165.48,1.322593,442389,21048
1169.04,1.308593,446101,21920
1173.79,1.320436,451929,21609
1177.34,1.310159,456026,22327
1180.9,1.318517,461306,22155
1184.44,1.310661,467657,22870
1187.99,1.311950,473969,23110
1191.52,1.318026,479856,23072
1195.06,1.317959,487372,23437
1199.76,1.320996,497347,23750
1203.29,1.315950,504311,24364
1206.81,1.320413,511507,24459
1210.33,1.316321,519078,25056
1213.84,1.324770,527163,24956
1217.35,1.322381,534208,25429
1220.85,1.321575,540472,25775
1225.51,1.322636,549929,26162
1229.01,1.323063,556888,26467
1232.5,1.323364,562180,26700
1235.98,1.317658,567975,27332
1239.46,1.322079,574815,27381
1242.94,1.324928,582782,27579
1246.41,1.323586,591476,28077
1251.03,1.321958,604016,28780
1254.5,1.329999,612289,28639
1257.96,1.325311,619125,29273
1261.41,1.327767,624551,29363
1264.86,1.324269,629900,29854
1268.31,1.328795,634345,29753
1271.75,1.321724,638574,30443
1276.33,1.328787,642499,30136
1279.76,1.328554,645905,30312
1283.19,1.324232,648307,30729
1286.61,1.329111,650446,30486
1290.03,1.325235,652132,30839
1293.44,1.326557,653907,30829
1296.85,1.334349,655963,30376
1301.39,1.330064,657349,30742
1304.8,1.335289,657558,30384
1308.19,1.326015,658515,31085
1311.58,1.331363,658804,30718
1314.97,1.322974,659011,31327
1318.36,1.329474,658272,30827
1321.73,1.327622,658022,30947
1326.23,1.333499,657870,30524
1329.6,1.333964,656482,30427
1332.97,1.335323,654926,30260
1336.33,1.333409,653727,30338
1339.69,1.326635,652497,30757
1343.04,1.323755,649913,30839
1346.39,1.323566,647671,30746
1349.73,1.336344,645338,29747
1354.18,1.330232,641175,29974
1357.52,1.327854,638376,30007
1360.85,1.325451,635805,30052
1364.17,1.323438,633413,30078
1367.49,1.325904,631026,29795
1370.81,1.327996,628050,29512
1374.12,1.327335,625034,29415
1378.54,1.325048,620272,29345
1381.84,1.336723,616892,28411
1385.14,1.331195,613613,28622
1388.43,1.327143,611526,28792
1391.72,1.326183,610663,28815
1395.01,1.322889,610634,29033
1398.29,1.324680,611700,28964
1402.66,1.329793,614051,28735
1405.93,1.329428,616268,28863
1409.2,1.332599,617795,28724
1412.46,1.335144,618872,28606
1415.72,1.334336,619795,28702
1418.98,1.325101,620495,29352
1422.23,1.329722,621087,29069
1426.56,1.326294,621375,29313
1429.8,1.323421,621616,29519
1433.04,1.328245,622129,29217
1436.27,1.331946,621526,28941
1439.5,1.335274,621113,28701
1442.72,1.323509,620921,29480
1445.94,1.335108,620270,28673
1450.23,1.337816,618860,28430
1453.44,1.331881,617697,28767
1456.64,1.335166,616264,28484
1459.85,1.331730,614413,28624
1463.04,1.327894,612307,28779
1466.24,1.330279,610032,28515
1469.43,1.335147,607345,28073
1473.67,1.337122,603789,27782
1476.85,1.333817,601175,27873
1480.02,1.334375,597737,27678
1483.19,1.325647,594479,28086
1486.36,1.337812,591232,27161
1489.52,1.342530,587853,26714
1492.68,1.339906,583875,26694
1496.89,1.329422,578062,27074
1500.03,1.338400,574159,26341
1503.18,1.339285,570285,26110
1506.32,1.342169,565444,25717
1509.45,1.329319,560571,26261
1512.58,1.337425,555821,25557
1515.71,1.337325,550344,25311
1519.87,1.331196,543983,25374
1522.99,1.342339,538764,24494
1526.1,1.340613,533692,24360
1529.21,1.342071,527902,24015
1532.32,1.337908,521886,23970
1535.42,1.333595,515888,23931
1538.51,1.333287,509987,23674
1541.6,1.338575,503936,23110
1545.72,1.331082,494694,23081
1548.8,1.344344,488378,22101
1551.88,1.335097,481832,22274
1554.95,1.324405,474989,22505
1558.02,1.341290,467818,21320
1561.08,1.328009,460730,21649
1564.15,1.338571,454170,20828
1568.22,1.345207,444181,20061
1571.27,1.333939,436947,20253
1574.32,1.331924,429598,20005
1577.36,1.335162,422039,19507
1580.4,1.325936,414375,19564
1583.43,1.327939,406354,19097
1586.46,1.327145,398475,18761
1590.49,1.333524,388982,18047
1593.51,1.336538,380708,17541
1596.53,1.336292,372727,17183
1599.54,1.326558,365060,17211
1602.55,1.324825,357543,16924
1605.55,1.315092,349495,16918
1608.55,1.328234,341154,16022
1612.54,1.322689,330877,15739
1615.53,1.330010,322904,15103
1618.51,1.321107,315116,15044
1621.49,1.318359,307217,14760
1624.47,1.327397,299481,14092
1627.44,1.320291,292112,13972
1630.41,1.304874,284245,14087
1634.36,1.319413,274079,13136
1637.32,1.320422,266916,12763
1640.27,1.310795,259612,12692
1643.22,1.319823,251804,12057
1646.16,1.309915,244348,11970
1649.1,1.322241,236703,11271
1652.04,1.304606,228171,11315
1655.95,1.293729,215408,10953
1658.88,1.282846,204937,10685
1661.8,1.290415,193395,9909
1664.72,1.264988,179728,9764
1667.63,1.260812,163642,8976
1670.54,1.231995,146312,8576
1673.44,1.219716,128451,7745
1677.31,1.210616,105080,6470
1680.21,1.172012,88906,5983
1683.1,1.177152,75033,4990
1685.99,1.152117,63520,4475
1688.87,1.157913,53714,3734
1691.75,1.207529,45653,2831
1694.62,1.185707,39137,2552
1697.49,1.144434,33776,2422
1701.31,1.215853,28175,1714