Folder: textile_sorting_NIRSCAN_/ML/samples/unknown (part 68)

File: Column 1_078467_20241121_170406.csv
Method:,Column 1,,
Host Date-Time:,21/11/24 @ 17:4:6,,
Header Version:,1,,
System Temp (C):,34.79,,
Detector Temp (C):,33.75,,
Humidity (%):,1.91,,
Lamp PD:,3801,,
Shift Vector Coefficients:,-10.5391,0.0761263,-0.000134223,,
Pixel to Wavelength Coefficients:,1775.68,-0.916766,-0.000235065,,
Serial Number:,5510004,,
Scan Config Name:,Column 1,,
Scan Config Type:,Slew,,
Section 1,,
Start wavelength (nm):,900,,
End wavelength (nm):,1700,,
Pattern Pixel Width (nm):,   7.03,,,,
Exposure (ms):,  0.635,,,,
Digital Resolution:,228,,
Num Repeats:,6,,
PGA Gain:,64,,
Total Measurement Time in sec:,  2.674,,
Wavelength (nm),Absorbance (AU),Reference Signal (unitless),Sample Signal (unitless)
901.51,1.312736,108485,5280
905.376,1.325879,121306,5728
909.237,1.319832,131909,6316
913.095,1.314196,143299,6951
916.948,1.334734,156982,7263
922.079,1.302473,179937,8967
925.923,1.334248,200504,9287
929.762,1.318177,222660,10702
933.597,1.328243,244426,11479
937.427,1.325796,263972,12467
941.254,1.321546,281845,13442
945.076,1.318637,297271,14273
950.165,1.317157,315605,15205
953.978,1.310086,328029,16063
957.786,1.313281,340470,16550
961.59,1.323412,352317,16731
965.389,1.304171,363056,18022
969.185,1.317084,373162,17981
972.976,1.302864,382632,19051
976.763,1.315090,391202,18937
981.806,1.298595,400190,20122
985.583,1.301445,406088,20285
989.355,1.311817,410162,20005
993.124,1.303274,412868,20537
996.888,1.306286,414263,20464
1000.65,1.296099,415476,21011
1004.4,1.300486,415479,20800
1009.41,1.301426,414358,20699
1013.15,1.315078,412923,19989
1016.89,1.318391,411526,19770
1020.63,1.301568,409066,20428
1024.36,1.306528,406777,20083
1028.09,1.314097,404427,19622
1031.82,1.305582,401911,19886
1036.78,1.314233,398410,19324
1040.49,1.309446,396204,19430
1044.2,1.313134,394236,19170
1047.91,1.314305,392042,19012
1051.61,1.303917,389823,19362
1055.31,1.315444,388234,18778
1059,1.321516,387599,18487
1063.92,1.300052,386688,19378
1067.61,1.309078,386598,18975
1071.29,1.317222,387377,18660
1074.96,1.310152,388536,19023
1078.63,1.322629,389855,18547
1082.3,1.312338,391215,19058
1085.96,1.314849,393215,19045
1090.84,1.311063,396270,19361
1094.49,1.310833,398760,19493
1098.14,1.314032,400987,19458
1101.79,1.316922,403477,19449
1105.43,1.307164,406116,20021
1109.06,1.314467,407701,19764
1112.7,1.314808,409859,19853
1117.53,1.320379,412494,19726
1121.15,1.310051,414909,20319
1124.77,1.316502,416559,20099
1128.38,1.320786,418532,19996
1131.99,1.308389,419956,20645
1135.6,1.308783,421946,20724
1139.2,1.315257,423881,20511
1143.99,1.315922,426786,20620
1147.58,1.319131,428617,20556
1151.17,1.316146,431169,20821
1154.75,1.324574,433579,20535
1158.33,1.316353,436264,21057
1161.91,1.317367,439132,21146
1165.48,1.316854,442389,21328
1169.04,1.318512,446101,21425
1173.79,1.318550,451929,21703
1177.34,1.318942,456026,21880
1180.9,1.310381,461306,22574
1184.44,1.311878,467657,22806
1187.99,1.318635,473969,22757
1191.52,1.316973,479856,23128
1195.06,1.317570,487372,23458
1199.76,1.328503,497347,23343
1203.29,1.315362,504311,24397
1206.81,1.317511,511507,24623
1210.33,1.321114,519078,24781
1213.84,1.320700,527163,25191
1217.35,1.324865,534208,25284
1220.85,1.331976,540472,25165
1225.51,1.319971,549929,26323
1229.01,1.319582,556888,26680
1232.5,1.318190,562180,27020
1235.98,1.323835,567975,26946
1239.46,1.322936,574815,27327
1242.94,1.325069,582782,27570
1246.41,1.324035,591476,28048
1251.03,1.327608,604016,28408
1254.5,1.325443,612289,28941
1257.96,1.321897,619125,29504
1261.41,1.328463,624551,29316
1264.86,1.327013,629900,29666
1268.31,1.326059,634345,29941
1271.75,1.325334,638574,30191
1276.33,1.329753,642499,30069
1279.76,1.327795,645905,30365
1283.19,1.327837,648307,30475
1286.61,1.327731,650446,30583
1290.03,1.332077,652132,30357
1293.44,1.331943,653907,30449
1296.85,1.328780,655963,30768
1301.39,1.335151,657349,30384
1304.8,1.329877,657558,30765
1308.19,1.333185,658515,30576
1311.58,1.328643,658804,30911
1314.97,1.331288,659011,30733
1318.36,1.331465,658272,30686
1321.73,1.329126,658022,30840
1326.23,1.332248,657870,30612
1329.6,1.330212,656482,30691
1332.97,1.333662,654926,30376
1336.33,1.330570,653727,30537
1339.69,1.328843,652497,30601
1343.04,1.329853,649913,30409
1346.39,1.334117,647671,30008
1349.73,1.330514,645338,30149
1354.18,1.325076,641175,30332
1357.52,1.326770,638376,30082
1360.85,1.327000,635805,29945
1364.17,1.326684,633413,29854
1367.49,1.325583,631026,29817
1370.81,1.325896,628050,29655
1374.12,1.332055,625034,29097
1378.54,1.319957,620272,29691
1381.84,1.326555,616892,29084
1385.14,1.325182,613613,29021
1388.43,1.327747,611526,28752
1391.72,1.326364,610663,28803
1395.01,1.327929,610634,28698
1398.29,1.326332,611700,28854
1402.66,1.322703,614051,29208
1405.93,1.326504,616268,29058
1409.2,1.328102,617795,29023
1412.46,1.335387,618872,28590
1415.72,1.328355,619795,29100
1418.98,1.330520,620495,28988
1422.23,1.335573,621087,28680
1426.56,1.331495,621375,28964
1429.8,1.328199,621616,29196
1433.04,1.331752,622129,28982
1436.27,1.335350,621526,28715
1439.5,1.325178,621113,29376
1442.72,1.336594,620921,28605
1445.94,1.336002,620270,28614
1450.23,1.334044,618860,28678
1453.44,1.337136,617697,28421
1456.64,1.329049,616264,28888
1459.85,1.334836,614413,28420
1463.04,1.332551,612307,28472
1466.24,1.331499,610032,28435
1469.43,1.337209,607345,27940
1473.67,1.332333,603789,28090
1476.85,1.337966,601175,27608
1480.02,1.332934,597737,27770
1483.19,1.338929,594479,27240
1486.36,1.332473,591232,27497
1489.52,1.333233,587853,27292
1492.68,1.333896,583875,27066
1496.89,1.341013,578062,26361
1500.03,1.333498,574159,26640
1503.18,1.341787,570285,25960
1506.32,1.336565,565444,26051
1509.45,1.335113,560571,25913
1512.58,1.336848,555821,25591
1515.71,1.339130,550344,25206
1519.87,1.335341,543983,25133
1522.99,1.336894,538764,24803
1526.1,1.341613,533692,24304
1529.21,1.337072,527902,24293
1532.32,1.335072,521886,24127
1535.42,1.334667,515888,23872
1538.51,1.330417,509987,23831
1541.6,1.331659,503936,23481
1545.72,1.333308,494694,22963
1548.8,1.327652,488378,22967
1551.88,1.339349,481832,22057
1554.95,1.330840,474989,22174
1558.02,1.337598,467818,21502
1561.08,1.336333,460730,21238
1564.15,1.328635,454170,21310
1568.22,1.333967,444181,20587
1571.27,1.328082,436947,20528
1574.32,1.342827,429598,19509
1577.36,1.335229,422039,19504
1580.4,1.336701,414375,19085
1583.43,1.330425,406354,18988
1586.46,1.337760,398475,18308
1590.49,1.333958,388982,18029
1593.51,1.327982,380708,17890
1596.53,1.328750,372727,17484
1599.54,1.319649,365060,17487
1602.55,1.332332,357543,16634
1605.55,1.326563,349495,16477
1608.55,1.319778,341154,16337
1612.54,1.327713,330877,15558
1615.53,1.315977,322904,15599
1618.51,1.329590,315116,14753
1621.49,1.312775,307217,14951
1624.47,1.326935,299481,14107
1627.44,1.323755,292112,13861
1630.41,1.326005,284245,13418
1634.36,1.322032,274079,13057
1637.32,1.304126,266916,13251
1640.27,1.317971,259612,12484
1643.22,1.303354,251804,12523
1646.16,1.308032,244348,12022
1649.1,1.316690,236703,11416
1652.04,1.298205,228171,11483
1655.95,1.286962,215408,11125
1658.88,1.297520,204937,10330
1661.8,1.278101,193395,10194
1664.72,1.277670,179728,9483
1667.63,1.259797,163642,8997
1670.54,1.258837,146312,8062
1673.44,1.240269,128451,7387
1677.31,1.206673,105080,6529
1680.21,1.200898,88906,5598
1683.1,1.195461,75033,4784
1685.99,1.173705,63520,4258
1688.87,1.179615,53714,3552
1691.75,1.138724,45653,3317
1694.62,1.172302,39137,2632
1697.49,1.216643,33776,2051
1701.31,1.207322,28175,1748

File: Column 1_078469_20241121_170412.csv
Method:,Column 1,,
Host Date-Time:,21/11/24 @ 17:4:12,,
Header Version:,1,,
System Temp (C):,34.54,,
Detector Temp (C):,33.7,,
Humidity (%):,1.86,,
Lamp PD:,3802,,
Shift Vector Coefficients:,-10.5391,0.0761263,-0.000134223,,
Pixel to Wavelength Coefficients:,1775.68,-0.916766,-0.000235065,,
Serial Number:,5510004,,
Scan Config Name:,Column 1,,
Scan Config Type:,Slew,,
Section 1,,
Start wavelength (nm):,900,,
End wavelength (nm):,1700,,
Pattern Pixel Width (nm):,   7.03,,,,
Exposure (ms):,  0.635,,,,
Digital Resolution:,228,,
Num Repeats:,6,,
PGA Gain:,64,,
Total Measurement Time in sec:,  2.729,,
Wavelength (nm),Absorbance (AU),Reference Signal (unitless),Sample Signal (unitless)
901.51,1.319868,108485,5194
905.376,1.306166,121306,5994
909.237,1.301455,131909,6589
913.095,1.324821,143299,6783
916.948,1.319574,156982,7521
922.079,1.339985,179937,8225
925.923,1.306312,200504,9904
929.762,1.327820,222660,10467
933.597,1.323016,244426,11618
937.427,1.334060,263972,12232
941.254,1.322323,281845,13418
945.076,1.317908,297271,14297
950.165,1.313403,315605,15337
953.978,1.319515,328029,15718
957.786,1.314621,340470,16499
961.59,1.328845,352317,16523
965.389,1.313081,363056,17656
969.185,1.308688,373162,18332
972.976,1.314929,382632,18529
976.763,1.310800,391202,19125
981.806,1.309966,400190,19602
985.583,1.314396,406088,19689
989.355,1.308142,410162,20175
993.124,1.316195,412868,19935
996.888,1.313217,414263,20140
1000.65,1.303374,415476,20662
1004.4,1.316067,415479,20067
1009.41,1.311638,414358,20218
1013.15,1.312068,412923,20128
1016.89,1.309089,411526,20198
1020.63,1.309354,409066,20065
1024.36,1.314846,406777,19702
1028.09,1.308730,404427,19866
1031.82,1.310414,401911,19666
1036.78,1.312394,398410,19406
1040.49,1.313849,396204,19234
1044.2,1.306212,394236,19478
1047.91,1.308383,392042,19273
1051.61,1.303581,389823,19377
1055.31,1.312471,388234,18907
1059,1.314294,387599,18797
1063.92,1.317988,386688,18594
1067.61,1.311143,386598,18885
1071.29,1.318901,387377,18588
1074.96,1.313475,388536,18878
1078.63,1.313821,389855,18927
1082.3,1.318235,391215,18801
1085.96,1.311397,393215,19197
1090.84,1.316185,396270,19134
1094.49,1.321182,398760,19034
1098.14,1.314389,400987,19442
1101.79,1.313607,403477,19598
1105.43,1.315708,406116,19631
1109.06,1.315193,407701,19731
1112.7,1.318565,409859,19682
1117.53,1.314713,412494,19985
1121.15,1.310307,414909,20307
1124.77,1.315639,416559,20139
1128.38,1.323728,418532,19861
1131.99,1.317938,419956,20196
1135.6,1.323121,421946,20051
1139.2,1.324329,423881,20087
1143.99,1.319963,426786,20429
1147.58,1.320888,428617,20473
1151.17,1.318572,431169,20705
1154.75,1.316382,433579,20926
1158.33,1.317447,436264,21004
1161.91,1.314726,439132,21275
1165.48,1.330044,442389,20690
1169.04,1.321400,446101,21283
1173.79,1.315837,451929,21839
1177.34,1.325381,456026,21558
1180.9,1.319145,461306,22123
1184.44,1.316088,467657,22586
1187.99,1.314532,473969,22973
1191.52,1.317649,479856,23092
1195.06,1.317996,487372,23435
1199.76,1.322039,497347,23693
1203.29,1.317164,504311,24296
1206.81,1.323460,511507,24288
1210.33,1.327469,519078,24421
1213.84,1.319873,527163,25239
1217.35,1.321801,534208,25463
1220.85,1.340463,540472,24678
1225.51,1.323466,549929,26112
1229.01,1.319924,556888,26659
1232.5,1.329474,562180,26327
1235.98,1.325887,567975,26819
1239.46,1.320606,574815,27474
1242.94,1.323591,582782,27664
1246.41,1.328674,591476,27750
1251.03,1.324880,604016,28587
1254.5,1.327941,612289,28775
1257.96,1.334018,619125,28692
1261.41,1.334265,624551,28927
1264.86,1.328582,629900,29559
1268.31,1.327207,634345,29862
1271.75,1.324486,638574,30250
1276.33,1.328672,642499,30144
1279.76,1.330262,645905,30193
1283.19,1.328479,648307,30430
1286.61,1.329268,650446,30475
1290.03,1.331448,652132,30401
1293.44,1.323846,653907,31022
1296.85,1.328978,655963,30754
1301.39,1.323892,657349,31182
1304.8,1.332383,657558,30588
1308.19,1.329465,658515,30839
1311.58,1.333617,658804,30559
1314.97,1.333228,659011,30596
1318.36,1.336061,658272,30363
1321.73,1.332775,658022,30582
1326.23,1.331582,657870,30659
1329.6,1.329434,656482,30746
1332.97,1.328729,654926,30723
1336.33,1.329576,653727,30607
1339.69,1.332177,652497,30367
1343.04,1.330911,649913,30335
1346.39,1.329124,647671,30355
1349.73,1.336315,645338,29749
1354.18,1.327401,641175,30170
1357.52,1.329783,638376,29874
1360.85,1.327943,635805,29880
1364.17,1.324175,633413,30027
1367.49,1.325292,631026,29837
1370.81,1.323326,628050,29831
1374.12,1.323162,625034,29699
1378.54,1.328272,620272,29128
1381.84,1.323060,616892,29319
1385.14,1.330861,613613,28644
1388.43,1.328548,611526,28699
1391.72,1.328571,610663,28657
1395.01,1.329172,610634,28616
1398.29,1.332395,611700,28454
1402.66,1.333878,614051,28466
1405.93,1.332221,616268,28678
1409.2,1.334144,617795,28622
1412.46,1.330868,618872,28889
1415.72,1.328952,619795,29060
1418.98,1.332788,620495,28837
1422.23,1.339269,621087,28437
1426.56,1.332065,621375,28926
1429.8,1.334401,621616,28782
1433.04,1.331872,622129,28974
1436.27,1.338538,621526,28505
1439.5,1.333778,621113,28800
1442.72,1.338603,620921,28473
1445.94,1.335380,620270,28655
1450.23,1.332140,618860,28804
1453.44,1.334607,617697,28587
1456.64,1.337950,616264,28302
1459.85,1.339584,614413,28111
1463.04,1.335352,612307,28289
1466.24,1.336075,610032,28137
1469.43,1.334652,607345,28105
1473.67,1.329083,603789,28301
1476.85,1.335003,601175,27797
1480.02,1.327294,597737,28133
1483.19,1.338038,594479,27296
1486.36,1.339013,591232,27086
1489.52,1.340616,587853,26832
1492.68,1.361708,583875,25387
1496.89,1.340453,578062,26395
1500.03,1.332586,574159,26696
1503.18,1.333798,570285,26442
1506.32,1.339963,565444,25848
1509.45,1.339577,560571,25648
1512.58,1.340649,555821,25368
1515.71,1.337205,550344,25318
1519.87,1.332843,543983,25278
1522.99,1.338139,538764,24732
1526.1,1.343565,533692,24195
1529.21,1.338774,527902,24198
1532.32,1.337165,521886,24011
1535.42,1.331820,515888,24029
1538.51,1.340073,509987,23307
1541.6,1.334852,503936,23309
1545.72,1.335355,494694,22855
1548.8,1.342442,488378,22198
1551.88,1.334435,481832,22308
1554.95,1.341748,474989,21624
1558.02,1.332658,467818,21748
1561.08,1.331392,460730,21481
1564.15,1.337176,454170,20895
1568.22,1.342187,444181,20201
1571.27,1.337773,436947,20075
1574.32,1.343986,429598,19457
1577.36,1.341780,422039,19212
1580.4,1.326358,414375,19545
1583.43,1.331318,406354,18949
1586.46,1.334028,398475,18466
1590.49,1.342324,388982,17685
1593.51,1.333257,380708,17674
1596.53,1.339285,372727,17065
1599.54,1.333220,365060,16949
1602.55,1.321146,357543,17068
1605.55,1.335995,349495,16123
1608.55,1.310885,341154,16675
1612.54,1.328132,330877,15543
1615.53,1.327058,322904,15206
1618.51,1.325022,315116,14909
1621.49,1.330321,307217,14359
1624.47,1.335704,299481,13825
1627.44,1.323849,292112,13858
1630.41,1.319006,284245,13636
1634.36,1.320207,274079,13112
1637.32,1.325556,266916,12613
1640.27,1.326472,259612,12242
1643.22,1.323622,251804,11952
1646.16,1.321683,244348,11650
1649.1,1.303538,236703,11767
1652.04,1.296092,228171,11539
1655.95,1.314603,215408,10439
1658.88,1.297478,204937,10331
1661.8,1.306169,193395,9556
1664.72,1.274340,179728,9556
1667.63,1.284169,163642,8506
1670.54,1.239607,146312,8427
1673.44,1.230963,128451,7547
1677.31,1.191509,105080,6761
1680.21,1.195731,88906,5665
1683.1,1.207706,75033,4651
1685.99,1.174317,63520,4252
1688.87,1.156172,53714,3749
1691.75,1.164480,45653,3126
1694.62,1.153097,39137,2751
1697.49,1.270450,33776,1812
1701.31,1.122301,28175,2126

File: Column 1_078471_20241121_170418.csv
Method:,Column 1,,
Host Date-Time:,21/11/24 @ 17:4:18,,
Header Version:,1,,
System Temp (C):,34.5,,
Detector Temp (C):,33.75,,
Humidity (%):,1.86,,
Lamp PD:,3801,,
Shift Vector Coefficients:,-10.5391,0.0761263,-0.000134223,,
Pixel to Wavelength Coefficients:,1775.68,-0.916766,-0.000235065,,
Serial Number:,5510004,,
Scan Config Name:,Column 1,,
Scan Config Type:,Slew,,
Section 1,,
Start wavelength (nm):,900,,
End wavelength (nm):,1700,,
Pattern Pixel Width (nm):,   7.03,,,,
Exposure (ms):,  0.635,,,,
Digital Resolution:,228,,
Num Repeats:,6,,
PGA Gain:,64,,
Total Measurement Time in sec:,  2.725,,
Wavelength (nm),Absorbance (AU),Reference Signal (unitless),Sample Signal (unitless)
901.51,1.307828,108485,5340
905.376,1.344468,121306,5488
909.237,1.348393,131909,5914
913.095,1.322905,143299,6813
916.948,1.334077,156982,7274
922.079,1.340143,179937,8222
925.923,1.324582,200504,9496
929.762,1.343149,222660,10104
933.597,1.336223,244426,11270
937.427,1.335911,263972,12180
941.254,1.320804,281845,13465
945.076,1.314278,297271,14417
950.165,1.323864,315605,14972
953.978,1.316075,328029,15843
957.786,1.308272,340470,16742
961.59,1.318585,352317,16918
965.389,1.314042,363056,17617
969.185,1.314819,373162,18075
972.976,1.310081,382632,18737
976.763,1.313647,391202,19000
981.806,1.311697,400190,19524
985.583,1.317762,406088,19537
989.355,1.307239,410162,20217
993.124,1.310180,412868,20213
996.888,1.307838,414263,20391
1000.65,1.301716,415476,20741
1004.4,1.311053,415479,20300
1009.41,1.312562,414358,20175
1013.15,1.310539,412923,20199
1016.89,1.312781,411526,20027
1020.63,1.312090,409066,19939
1024.36,1.311071,406777,19874
1028.09,1.304834,404427,20045
1031.82,1.308805,401911,19739
1036.78,1.309272,398410,19546
1040.49,1.307417,396204,19521
1044.2,1.318170,394236,18949
1047.91,1.313438,392042,19050
1051.61,1.305828,389823,19277
1055.31,1.314936,388234,18800
1059,1.307622,387599,19088
1063.92,1.304761,386688,19169
1067.61,1.314907,386598,18722
1071.29,1.308239,387377,19050
1074.96,1.315135,388536,18806
1078.63,1.311259,389855,19039
1082.3,1.316000,391215,18898
1085.96,1.314143,393215,19076
1090.84,1.320680,396270,18937
1094.49,1.322347,398760,18983
1098.14,1.317888,400987,19286
1101.79,1.318824,403477,19364
1105.43,1.319574,406116,19457
1109.06,1.311380,407701,19905
1112.7,1.309222,409859,20110
1117.53,1.319982,412494,19744
1121.15,1.315297,414909,20075
1124.77,1.316264,416559,20110
1128.38,1.317518,418532,20147
1131.99,1.323784,419956,19926
1135.6,1.318639,421946,20259
1139.2,1.317656,423881,20398
1143.99,1.323356,426786,20270
1147.58,1.330670,428617,20017
1151.17,1.322851,431169,20502
1154.75,1.325802,433579,20477
1158.33,1.320706,436264,20847
1161.91,1.324323,439132,20810
1165.48,1.319100,442389,21218
1169.04,1.320279,446101,21338
1173.79,1.315738,451929,21844
1177.34,1.318625,456026,21896
1180.9,1.314090,461306,22382
1184.44,1.320592,467657,22353
1187.99,1.325192,473969,22416
1191.52,1.324722,479856,22719
1195.06,1.321288,487372,23258
1199.76,1.314769,497347,24093
1203.29,1.319548,504311,24163
1206.81,1.323049,511507,24311
1210.33,1.320308,519078,24827
1213.84,1.333364,527163,24467
1217.35,1.323852,534208,25343
1220.85,1.322198,540472,25738
1225.51,1.319674,549929,26341
1229.01,1.325911,556888,26294
1232.5,1.322909,562180,26728
1235.98,1.320895,567975,27129
1239.46,1.323334,574815,27302
1242.94,1.326995,582782,27448
1246.41,1.325820,591476,27933
1251.03,1.324652,604016,28602
1254.5,1.319334,612289,29351
1257.96,1.323520,619125,29394
1261.41,1.328893,624551,29287
1264.86,1.331397,629900,29368
1268.31,1.330931,634345,29607
1271.75,1.328394,638574,29979
1276.33,1.328240,642499,30174
1279.76,1.329515,645905,30245
1283.19,1.323244,648307,30799
1286.61,1.334385,650446,30118
1290.03,1.329779,652132,30518
1293.44,1.334045,653907,30302
1296.85,1.331342,655963,30587
1301.39,1.331465,657349,30643
1304.8,1.331560,657558,30646
1308.19,1.326910,658515,31021
1311.58,1.330869,658804,30753
1314.97,1.331669,659011,30706
1318.36,1.333707,658272,30528
1321.73,1.330381,658022,30751
1326.23,1.327620,657870,30940
1329.6,1.333664,656482,30448
1332.97,1.337770,654926,30090
1336.33,1.340860,653727,29822
1339.69,1.330236,652497,30503
1343.04,1.330682,649913,30351
1346.39,1.335814,647671,29891
1349.73,1.327271,645338,30375
1354.18,1.332090,641175,29846
1357.52,1.327377,638376,30040
1360.85,1.329341,635805,29784
1364.17,1.328989,633413,29696
1367.49,1.331301,631026,29427
1370.81,1.328879,628050,29452
1374.12,1.329986,625034,29236
1378.54,1.329690,620272,29033
1381.84,1.333600,616892,28616
1385.14,1.327854,613613,28843
1388.43,1.330049,611526,28600
1391.72,1.333540,610663,28331
1395.01,1.326569,610634,28788
1398.29,1.328037,611700,28741
1402.66,1.328224,614051,28839
1405.93,1.332584,616268,28654
1409.2,1.336213,617795,28486
1412.46,1.326694,618872,29168
1415.72,1.332072,619795,28852
1418.98,1.333678,620495,28778
1422.23,1.341259,621087,28307
1426.56,1.339714,621375,28421
1429.8,1.329286,621616,29123
1433.04,1.334458,622129,28802
1436.27,1.336699,621526,28626
1439.5,1.335047,621113,28716
1442.72,1.330369,620921,29018
1445.94,1.336063,620270,28610
1450.23,1.332517,618860,28779
1453.44,1.337794,617697,28378
1456.64,1.337873,616264,28307
1459.85,1.339121,614413,28141
1463.04,1.333727,612307,28395
1466.24,1.337915,610032,28018
1469.43,1.335332,607345,28061
1473.67,1.336169,603789,27843
1476.85,1.337321,601175,27649
1480.02,1.339108,597737,27378
1483.19,1.326250,594479,28047
1486.36,1.339912,591232,27030
1489.52,1.341053,587853,26805
1492.68,1.344321,583875,26424
1496.89,1.339680,578062,26442
1500.03,1.334788,574159,26561
1503.18,1.332420,570285,26526
1506.32,1.335533,565444,26113
1509.45,1.339814,560571,25634
1512.58,1.336746,555821,25597
1515.71,1.339768,550344,25169
1519.87,1.333169,543983,25259
1522.99,1.341683,538764,24531
1526.1,1.342866,533692,24234
1529.21,1.334897,527902,24415
1532.32,1.343102,521886,23685
1535.42,1.338155,515888,23681
1538.51,1.345529,509987,23016
1541.6,1.340685,503936,22998
1545.72,1.329861,494694,23146
1548.8,1.336844,488378,22486
1551.88,1.339605,481832,22044
1554.95,1.335111,474989,21957
1558.02,1.341106,467818,21329
1561.08,1.340318,460730,21044
1564.15,1.335082,454170,20996
1568.22,1.333524,444181,20608
1571.27,1.331118,436947,20385
1574.32,1.330039,429598,20092
1577.36,1.336143,422039,19463
1580.4,1.341415,414375,18879
1583.43,1.325603,406354,19200
1586.46,1.333699,398475,18480
1590.49,1.334874,388982,17991
1593.51,1.329100,380708,17844
1596.53,1.326026,372727,17594
1599.54,1.332145,365060,16991
1602.55,1.332723,357543,16619
1605.55,1.334409,349495,16182
1608.55,1.334376,341154,15797
1612.54,1.325041,330877,15654
1615.53,1.339252,322904,14785
1618.51,1.335071,315116,14568
1621.49,1.322795,307217,14610
1624.47,1.328044,299481,14071
1627.44,1.313016,292112,14208
1630.41,1.330495,284245,13280
1634.36,1.322232,274079,13051
1637.32,1.327973,266916,12543
1640.27,1.326118,259612,12252
1643.22,1.305684,251804,12456
1646.16,1.314254,244348,11851
1649.1,1.323669,236703,11234
1652.04,1.317421,228171,10986
1655.95,1.309886,215408,10553
1658.88,1.290059,204937,10509
1661.8,1.297753,193395,9743
1664.72,1.278771,179728,9459
1667.63,1.256048,163642,9075
1670.54,1.260294,146312,8035
1673.44,1.203860,128451,8033
1677.31,1.204749,105080,6558
1680.21,1.183039,88906,5833
1683.1,1.180559,75033,4951
1685.99,1.219712,63520,3830
1688.87,1.169942,53714,3632
1691.75,1.190384,45653,2945
1694.62,1.229540,39137,2307
1697.49,1.134858,33776,2476
1701.31,1.221207,28175,1693