Folder: textile_sorting_NIRSCAN_/ML/samples/unknown (part 33)

File: Column 1_078216_20241121_165110.csv
Method:,Column 1,,
Host Date-Time:,21/11/24 @ 16:51:10,,
Header Version:,1,,
System Temp (C):,34.03,,
Detector Temp (C):,31.02,,
Humidity (%):,3.03,,
Lamp PD:,3803,,
Shift Vector Coefficients:,-10.5391,0.0761263,-0.000134223,,
Pixel to Wavelength Coefficients:,1775.68,-0.916766,-0.000235065,,
Serial Number:,5510004,,
Scan Config Name:,Column 1,,
Scan Config Type:,Slew,,
Section 1,,
Start wavelength (nm):,900,,
End wavelength (nm):,1700,,
Pattern Pixel Width (nm):,   7.03,,,,
Exposure (ms):,  0.635,,,,
Digital Resolution:,228,,
Num Repeats:,6,,
PGA Gain:,64,,
Total Measurement Time in sec:,  2.725,,
Wavelength (nm),Absorbance (AU),Reference Signal (unitless),Sample Signal (unitless)
901.51,1.318699,108485,5208
905.376,1.316133,121306,5858
909.237,1.330835,131909,6158
913.095,1.323543,143299,6803
916.948,1.319979,156982,7514
922.079,1.329447,179937,8427
925.923,1.326737,200504,9449
929.762,1.325750,222660,10517
933.597,1.325829,244426,11543
937.427,1.332183,263972,12285
941.254,1.322161,281845,13423
945.076,1.314850,297271,14398
950.165,1.317843,315605,15181
953.978,1.311141,328029,16024
957.786,1.322108,340470,16217
961.59,1.317303,352317,16968
965.389,1.312786,363056,17668
969.185,1.311874,373162,18198
972.976,1.296999,382632,19310
976.763,1.310822,391202,19124
981.806,1.306238,400190,19771
985.583,1.313383,406088,19735
989.355,1.302623,410162,20433
993.124,1.310288,412868,20208
996.888,1.306243,414263,20466
1000.65,1.311178,415476,20294
1004.4,1.314727,415479,20129
1009.41,1.310994,414358,20248
1013.15,1.305707,412923,20425
1016.89,1.305961,411526,20344
1020.63,1.314099,409066,19847
1024.36,1.300387,406777,20369
1028.09,1.300952,404427,20225
1031.82,1.313672,401911,19519
1036.78,1.322377,398410,18965
1040.49,1.308575,396204,19469
1044.2,1.316888,394236,19005
1047.91,1.308879,392042,19251
1051.61,1.301747,389823,19459
1055.31,1.310889,388234,18976
1059,1.314826,387599,18774
1063.92,1.312649,386688,18824
1067.61,1.314560,386598,18737
1071.29,1.325374,387377,18313
1074.96,1.321626,388536,18527
1078.63,1.313294,389855,18950
1082.3,1.318442,391215,18792
1085.96,1.326544,393215,18539
1090.84,1.315664,396270,19157
1094.49,1.329195,398760,18686
1098.14,1.322643,400987,19076
1101.79,1.319992,403477,19312
1105.43,1.319931,406116,19441
1109.06,1.320196,407701,19505
1112.7,1.317573,409859,19727
1117.53,1.318424,412494,19815
1121.15,1.314670,414909,20104
1124.77,1.310174,416559,20394
1128.38,1.316205,418532,20208
1131.99,1.326144,419956,19818
1135.6,1.318768,421946,20253
1139.2,1.318466,423881,20360
1143.99,1.325095,426786,20189
1147.58,1.320379,428617,20497
1151.17,1.326596,431169,20326
1154.75,1.321938,433579,20660
1158.33,1.319665,436264,20897
1161.91,1.325912,439132,20734
1165.48,1.326323,442389,20868
1169.04,1.324616,446101,21126
1173.79,1.322511,451929,21506
1177.34,1.313028,456026,22180
1180.9,1.316405,461306,22263
1184.44,1.315147,467657,22635
1187.99,1.319380,473969,22718
1191.52,1.324760,479856,22717
1195.06,1.318905,487372,23386
1199.76,1.323398,497347,23619
1203.29,1.328812,504311,23653
1206.81,1.317422,511507,24628
1210.33,1.323398,519078,24651
1213.84,1.328826,527163,24724
1217.35,1.319963,534208,25571
1220.85,1.329550,540472,25306
1225.51,1.328266,549929,25825
1229.01,1.325713,556888,26306
1232.5,1.327745,562180,26432
1235.98,1.325094,567975,26868
1239.46,1.325998,574815,27135
1242.94,1.322134,582782,27757
1246.41,1.327315,591476,27837
1251.03,1.328434,604016,28354
1254.5,1.328742,612289,28722
1257.96,1.332024,619125,28824
1261.41,1.329205,624551,29266
1264.86,1.329420,629900,29502
1268.31,1.327731,634345,29826
1271.75,1.328959,638574,29940
1276.33,1.336845,642499,29582
1279.76,1.328468,645905,30318
1283.19,1.334428,648307,30016
1286.61,1.331568,650446,30314
1290.03,1.332234,652132,30346
1293.44,1.332285,653907,30425
1296.85,1.331200,655963,30597
1301.39,1.331862,657349,30615
1304.8,1.330470,657558,30723
1308.19,1.328804,658515,30886
1311.58,1.330643,658804,30769
1314.97,1.332363,659011,30657
1318.36,1.331918,658272,30654
1321.73,1.333229,658022,30550
1326.23,1.334182,657870,30476
1329.6,1.337950,656482,30149
1332.97,1.334549,654926,30314
1336.33,1.337176,653727,30076
1339.69,1.337255,652497,30014
1343.04,1.329953,649913,30402
1346.39,1.326998,647671,30504
1349.73,1.330082,645338,30179
1354.18,1.332848,641175,29794
1357.52,1.331050,638376,29787
1360.85,1.333855,635805,29476
1364.17,1.330571,633413,29588
1367.49,1.329123,631026,29575
1370.81,1.330209,628050,29362
1374.12,1.327748,625034,29387
1378.54,1.329048,620272,29076
1381.84,1.330244,616892,28838
1385.14,1.333233,613613,28488
1388.43,1.324676,611526,28956
1391.72,1.322297,610663,29074
1395.01,1.334148,610634,28290
1398.29,1.333098,611700,28408
1402.66,1.323834,614051,29132
1405.93,1.331358,616268,28735
1409.2,1.333659,617795,28654
1412.46,1.328350,618872,29057
1415.72,1.330075,619795,28985
1418.98,1.330295,620495,29003
1422.23,1.335588,621087,28679
1426.56,1.332892,621375,28871
1429.8,1.334100,621616,28802
1433.04,1.334367,622129,28808
1436.27,1.334459,621526,28774
1439.5,1.335879,621113,28661
1442.72,1.337933,620921,28517
1445.94,1.330887,620270,28953
1450.23,1.335318,618860,28594
1453.44,1.332924,617697,28698
1456.64,1.336097,616264,28423
1459.85,1.339198,614413,28136
1463.04,1.334999,612307,28312
1466.24,1.341042,610032,27817
1469.43,1.339844,607345,27771
1473.67,1.338641,603789,27685
1476.85,1.339621,601175,27503
1480.02,1.337383,597737,27487
1483.19,1.336640,594479,27384
1486.36,1.339623,591232,27048
1489.52,1.345122,587853,26555
1492.68,1.336535,583875,26902
1496.89,1.338581,578062,26509
1500.03,1.338252,574159,26350
1503.18,1.339884,570285,26074
1506.32,1.341140,565444,25778
1509.45,1.340968,560571,25566
1512.58,1.336627,555821,25604
1515.71,1.334622,550344,25469
1519.87,1.337767,543983,24993
1522.99,1.338139,538764,24732
1526.1,1.343547,533692,24196
1529.21,1.344101,527902,23903
1532.32,1.336316,521886,24058
1535.42,1.344399,515888,23343
1538.51,1.342221,509987,23192
1541.6,1.330421,503936,23548
1545.72,1.333478,494694,22954
1548.8,1.339207,488378,22364
1551.88,1.339133,481832,22068
1554.95,1.335942,474989,21915
1558.02,1.340150,467818,21376
1561.08,1.330503,460730,21525
1564.15,1.334730,454170,21013
1568.22,1.335743,444181,20503
1571.27,1.327744,436947,20544
1574.32,1.329456,429598,20119
1577.36,1.338268,422039,19368
1580.4,1.334613,414375,19177
1583.43,1.335463,406354,18769
1586.46,1.337049,398475,18338
1590.49,1.328096,388982,18274
1593.51,1.328224,380708,17880
1596.53,1.336747,372727,17165
1599.54,1.328049,365060,17152
1602.55,1.332384,357543,16632
1605.55,1.331973,349495,16273
1608.55,1.336443,341154,15722
1612.54,1.317505,330877,15928
1615.53,1.327373,322904,15195
1618.51,1.326452,315116,14860
1621.49,1.336474,307217,14157
1624.47,1.326135,299481,14133
1627.44,1.325859,292112,13794
1630.41,1.319643,284245,13616
1634.36,1.323065,274079,13026
1637.32,1.319029,266916,12804
1640.27,1.321499,259612,12383
1643.22,1.328298,251804,11824
1646.16,1.318822,244348,11727
1649.1,1.316842,236703,11412
1652.04,1.300062,228171,11434
1655.95,1.310627,215408,10535
1658.88,1.293336,204937,10430
1661.8,1.286358,193395,10002
1664.72,1.285713,179728,9309
1667.63,1.267492,163642,8839
1670.54,1.279410,146312,7689
1673.44,1.249239,128451,7236
1677.31,1.259968,105080,5775
1680.21,1.204951,88906,5546
1683.1,1.218101,75033,4541
1685.99,1.242287,63520,3636
1688.87,1.265747,53714,2913
1691.75,1.272079,45653,2440
1694.62,1.254530,39137,2178
1697.49,1.311388,33776,1649
1701.31,1.255072,28175,1566

File: Column 1_078217_20241121_165113.csv
Method:,Column 1,,
Host Date-Time:,21/11/24 @ 16:51:13,,
Header Version:,1,,
System Temp (C):,34.04,,
Detector Temp (C):,31.06,,
Humidity (%):,2.99,,
Lamp PD:,3804,,
Shift Vector Coefficients:,-10.5391,0.0761263,-0.000134223,,
Pixel to Wavelength Coefficients:,1775.68,-0.916766,-0.000235065,,
Serial Number:,5510004,,
Scan Config Name:,Column 1,,
Scan Config Type:,Slew,,
Section 1,,
Start wavelength (nm):,900,,
End wavelength (nm):,1700,,
Pattern Pixel Width (nm):,   7.03,,,,
Exposure (ms):,  0.635,,,,
Digital Resolution:,228,,
Num Repeats:,6,,
PGA Gain:,64,,
Total Measurement Time in sec:,  2.726,,
Wavelength (nm),Absorbance (AU),Reference Signal (unitless),Sample Signal (unitless)
901.51,1.320705,108485,5184
905.376,1.311047,121306,5927
909.237,1.315454,131909,6380
913.095,1.305658,143299,7089
916.948,1.325622,156982,7417
922.079,1.332810,179937,8362
925.923,1.313118,200504,9750
929.762,1.320211,222660,10652
933.597,1.331509,244426,11393
937.427,1.320258,263972,12627
941.254,1.308717,281845,13845
945.076,1.323164,297271,14125
950.165,1.323893,315605,14971
953.978,1.305139,328029,16247
957.786,1.318004,340470,16371
961.59,1.308511,352317,17315
965.389,1.308165,363056,17857
969.185,1.310206,373162,18268
972.976,1.305103,382632,18953
976.763,1.304219,391202,19417
981.806,1.301866,400190,19971
985.583,1.304992,406088,20120
989.355,1.309004,410162,20135
993.124,1.305862,412868,20415
996.888,1.303051,414263,20617
1000.65,1.311157,415476,20295
1004.4,1.314123,415479,20157
1009.41,1.303340,414358,20608
1013.15,1.304285,412923,20492
1016.89,1.306666,411526,20311
1020.63,1.306571,409066,20194
1024.36,1.310743,406777,19889
1028.09,1.305767,404427,20002
1031.82,1.301020,401911,20096
1036.78,1.311857,398410,19430
1040.49,1.305862,396204,19591
1044.2,1.304921,394236,19536
1047.91,1.311731,392042,19125
1051.61,1.318005,389823,18744
1055.31,1.305498,388234,19213
1059,1.309538,387599,19004
1063.92,1.315101,386688,18718
1067.61,1.309192,386598,18970
1071.29,1.309357,387377,19001
1074.96,1.311547,388536,18962
1078.63,1.314993,389855,18876
1082.3,1.316322,391215,18884
1085.96,1.316609,393215,18968
1090.84,1.320015,396270,18966
1094.49,1.310410,398760,19512
1098.14,1.316494,400987,19348
1101.79,1.311860,403477,19677
1105.43,1.320826,406116,19401
1109.06,1.319662,407701,19529
1112.7,1.309309,409859,20106
1117.53,1.314800,412494,19981
1121.15,1.315514,414909,20065
1124.77,1.318386,416559,20012
1128.38,1.316334,418532,20202
1131.99,1.321653,419956,20024
1135.6,1.321780,421946,20113
1139.2,1.322861,423881,20155
1143.99,1.319092,426786,20470
1147.58,1.321482,428617,20445
1151.17,1.319706,431169,20651
1154.75,1.317504,433579,20872
1158.33,1.318710,436264,20943
1161.91,1.320769,439132,20981
1165.48,1.324164,442389,20972
1169.04,1.317257,446101,21487
1173.79,1.322188,451929,21522
1177.34,1.314912,456026,22084
1180.9,1.314673,461306,22352
1184.44,1.322636,467657,22248
1187.99,1.326200,473969,22364
1191.52,1.315529,479856,23205
1195.06,1.326529,487372,22979
1199.76,1.324982,497347,23533
1203.29,1.324155,504311,23908
1206.81,1.323853,511507,24266
1210.33,1.322975,519078,24675
1213.84,1.327563,527163,24796
1217.35,1.318996,534208,25628
1220.85,1.330495,540472,25251
1225.51,1.318341,549929,26422
1229.01,1.328130,556888,26160
1232.5,1.326302,562180,26520
1235.98,1.324932,567975,26878
1239.46,1.328068,574815,27006
1242.94,1.326600,582782,27473
1246.41,1.326333,591476,27900
1251.03,1.321098,604016,28837
1254.5,1.326645,612289,28861
1257.96,1.323165,619125,29418
1261.41,1.329190,624551,29267
1264.86,1.328156,629900,29588
1268.31,1.325726,634345,29964
1271.75,1.328930,638574,29942
1276.33,1.331302,642499,29962
1279.76,1.322408,645905,30744
1283.19,1.319663,648307,31054
1286.61,1.332644,650446,30239
1290.03,1.328642,652132,30598
1293.44,1.325305,653907,30918
1296.85,1.330647,655963,30636
1301.39,1.330233,657349,30730
1304.8,1.332227,657558,30599
1308.19,1.329677,658515,30824
1311.58,1.331109,658804,30736
1314.97,1.332207,659011,30668
1318.36,1.334604,658272,30465
1321.73,1.333514,658022,30530
1326.23,1.332362,657870,30604
1329.6,1.332411,656482,30536
1332.97,1.329790,654926,30648
1336.33,1.328074,653727,30713
1339.69,1.329269,652497,30571
1343.04,1.327801,649913,30553
1346.39,1.329897,647671,30301
1349.73,1.329292,645338,30234
1354.18,1.327891,641175,30136
1357.52,1.326582,638376,30095
1360.85,1.324916,635805,30089
1364.17,1.335413,633413,29260
1367.49,1.329799,631026,29529
1370.81,1.326937,628050,29584
1374.12,1.331295,625034,29148
1378.54,1.324279,620272,29397
1381.84,1.328591,616892,28948
1385.14,1.331848,613613,28579
1388.43,1.326495,611526,28835
1391.72,1.330789,610663,28511
1395.01,1.324282,610634,28940
1398.29,1.329156,611700,28667
1402.66,1.330217,614051,28707
1405.93,1.330603,616268,28785
1409.2,1.329841,617795,28907
1412.46,1.327126,618872,29139
1415.72,1.327103,619795,29184
1418.98,1.337680,620495,28514
1422.23,1.329289,621087,29098
1426.56,1.339516,621375,28434
1429.8,1.333617,621616,28834
1433.04,1.334790,622129,28780
1436.27,1.336213,621526,28658
1439.5,1.331927,621113,28923
1442.72,1.331973,620921,28911
1445.94,1.333007,620270,28812
1450.23,1.339177,618860,28341
1453.44,1.331504,617697,28792
1456.64,1.335227,616264,28480
1459.85,1.338566,614413,28177
1463.04,1.329572,612307,28668
1466.24,1.341089,610032,27814
1469.43,1.333356,607345,28189
1473.67,1.340574,603789,27562
1476.85,1.331827,601175,28001
1480.02,1.337936,597737,27452
1483.19,1.332976,594479,27616
1486.36,1.332299,591232,27508
1489.52,1.338227,587853,26980
1492.68,1.335487,583875,26967
1496.89,1.342118,578062,26294
1500.03,1.338796,574159,26317
1503.18,1.329207,570285,26723
1506.32,1.342761,565444,25682
1509.45,1.332840,560571,26049
1512.58,1.331451,555821,25911
1515.71,1.339113,550344,25207
1519.87,1.341905,543983,24756
1522.99,1.339353,538764,24663
1526.1,1.334225,533692,24721
1529.21,1.334132,527902,24458
1532.32,1.334371,521886,24166
1535.42,1.336179,515888,23789
1538.51,1.340968,509987,23259
1541.6,1.333438,503936,23385
1545.72,1.330894,494694,23091
1548.8,1.333841,488378,22642
1551.88,1.332473,481832,22409
1554.95,1.333157,474989,22056
1558.02,1.331063,467818,21828
1561.08,1.343903,460730,20871
1564.15,1.332607,454170,21116
1568.22,1.335023,444181,20537
1571.27,1.335960,436947,20159
1574.32,1.335324,429598,19849
1577.36,1.338133,422039,19374
1580.4,1.336929,414375,19075
1583.43,1.327712,406354,19107
1586.46,1.330841,398475,18602
1590.49,1.324428,388982,18429
1593.51,1.329587,380708,17824
1596.53,1.331141,372727,17388
1599.54,1.337598,365060,16779
1602.55,1.317926,357543,17195
1605.55,1.323202,349495,16605
1608.55,1.316600,341154,16457
1612.54,1.320433,330877,15821
1615.53,1.327116,322904,15204
1618.51,1.326276,315116,14866
1621.49,1.327127,307217,14465
1624.47,1.328446,299481,14058
1627.44,1.319235,292112,14006
1630.41,1.324003,284245,13480
1634.36,1.313632,274079,13312
1637.32,1.322332,266916,12707
1640.27,1.307794,259612,12780
1643.22,1.304396,251804,12493
1646.16,1.320120,244348,11692
1649.1,1.312638,236703,11523
1652.04,1.311882,228171,11127
1655.95,1.327352,215408,10137
1658.88,1.298404,204937,10309
1661.8,1.294422,193395,9818
1664.72,1.296100,179728,9089
1667.63,1.265629,163642,8877
1670.54,1.252261,146312,8185
1673.44,1.257173,128451,7105
1677.31,1.212297,105080,6445
1680.21,1.222204,88906,5330
1683.1,1.242896,75033,4289
1685.99,1.239667,63520,3658
1688.87,1.237187,53714,3111
1691.75,1.165872,45653,3116
1694.62,1.192395,39137,2513
1697.49,1.232162,33776,1979
1701.31,1.372496,28175,1195

File: Column 1_078219_20241121_165119.csv
Method:,Column 1,,
Host Date-Time:,21/11/24 @ 16:51:19,,
Header Version:,1,,
System Temp (C):,34.04,,
Detector Temp (C):,31.16,,
Humidity (%):,3.03,,
Lamp PD:,3803,,
Shift Vector Coefficients:,-10.5391,0.0761263,-0.000134223,,
Pixel to Wavelength Coefficients:,1775.68,-0.916766,-0.000235065,,
Serial Number:,5510004,,
Scan Config Name:,Column 1,,
Scan Config Type:,Slew,,
Section 1,,
Start wavelength (nm):,900,,
End wavelength (nm):,1700,,
Pattern Pixel Width (nm):,   7.03,,,,
Exposure (ms):,  0.635,,,,
Digital Resolution:,228,,
Num Repeats:,6,,
PGA Gain:,64,,
Total Measurement Time in sec:,  2.668,,
Wavelength (nm),Absorbance (AU),Reference Signal (unitless),Sample Signal (unitless)
901.51,1.297303,108485,5471
905.376,1.322932,121306,5767
909.237,1.308498,131909,6483
913.095,1.316765,143299,6910
916.948,1.336531,156982,7233
922.079,1.297609,179937,9068
925.923,1.307718,200504,9872
929.762,1.321968,222660,10609
933.597,1.317740,244426,11760
937.427,1.313907,263972,12813
941.254,1.332739,281845,13100
945.076,1.307582,297271,14641
950.165,1.311060,315605,15420
953.978,1.307444,328029,16161
957.786,1.315517,340470,16465
961.59,1.315209,352317,17050
965.389,1.323688,363056,17230
969.185,1.321112,373162,17815
972.976,1.311033,382632,18696
976.763,1.305832,391202,19345
981.806,1.313995,400190,19421
985.583,1.301766,406088,20270
989.355,1.305930,410162,20278
993.124,1.303465,412868,20528
996.888,1.311431,414263,20223
1000.65,1.306051,415476,20535
1004.4,1.302789,415479,20690
1009.41,1.310008,414358,20294
1013.15,1.307305,412923,20350
1016.89,1.310877,411526,20115
1020.63,1.307497,409066,20151
1024.36,1.306441,406777,20087
1028.09,1.306332,404427,19976
1031.82,1.306632,401911,19838
1036.78,1.316758,398410,19212
1040.49,1.309781,396204,19415
1044.2,1.300409,394236,19740
1047.91,1.311164,392042,19150
1051.61,1.316363,389823,18815
1055.31,1.308629,388234,19075
1059,1.312703,387599,18866
1063.92,1.307124,386688,19065
1067.61,1.312548,386598,18824
1071.29,1.315225,387377,18746
1074.96,1.319288,388536,18627
1078.63,1.322068,389855,18571
1082.3,1.310723,391215,19129
1085.96,1.320934,393215,18780
1090.84,1.320153,396270,18960
1094.49,1.317750,398760,19185
1098.14,1.319219,400987,19227
1101.79,1.322925,403477,19182
1105.43,1.312029,406116,19798
1109.06,1.311074,407701,19919
1112.7,1.317728,409859,19720
1117.53,1.318687,412494,19803
1121.15,1.316142,414909,20036
1124.77,1.324021,416559,19754
1128.38,1.321481,418532,19964
1131.99,1.312128,419956,20468
1135.6,1.321543,421946,20124
1139.2,1.318338,423881,20366
1143.99,1.321688,426786,20348
1147.58,1.319934,428617,20518
1151.17,1.320928,431169,20593
1154.75,1.315387,433579,20974
1158.33,1.315693,436264,21089
1161.91,1.317778,439132,21126
1165.48,1.324123,442389,20974
1169.04,1.314236,446101,21637
1173.79,1.308541,451929,22209
1177.34,1.318407,456026,21907
1180.9,1.325075,461306,21823
1184.44,1.316338,467657,22573
1187.99,1.322122,473969,22575
1191.52,1.318365,479856,23054
1195.06,1.318886,487372,23387
1199.76,1.324908,497347,23537
1203.29,1.321565,504311,24051
1206.81,1.326348,511507,24127
1210.33,1.318058,519078,24956
1213.84,1.323259,527163,25043
1217.35,1.320336,534208,25549
1220.85,1.322047,540472,25747
1225.51,1.316684,549929,26523
1229.01,1.324773,556888,26363
1232.5,1.323250,562180,26707
1235.98,1.326697,567975,26769
1239.46,1.326238,574815,27120
1242.94,1.330347,582782,27237
1246.41,1.321811,591476,28192
1251.03,1.323394,604016,28685
1254.5,1.330970,612289,28575
1257.96,1.326113,619125,29219
1261.41,1.325775,624551,29498
1264.86,1.325289,629900,29784
1268.31,1.325219,634345,29999
1271.75,1.331651,638574,29755
1276.33,1.325185,642499,30387
1279.76,1.324902,645905,30568
1283.19,1.328422,648307,30434
1286.61,1.327334,650446,30611
1290.03,1.334458,652132,30191
1293.44,1.331644,653907,30470
1296.85,1.326022,655963,30964
1301.39,1.330262,657349,30728
1304.8,1.331603,657558,30643
1308.19,1.329282,658515,30852
1311.58,1.332198,658804,30659
1314.97,1.332136,659011,30673
1318.36,1.336075,658272,30362
1321.73,1.330862,658022,30717
1326.23,1.332362,657870,30604
1329.6,1.330056,656482,30702
1332.97,1.332348,654926,30468
1336.33,1.335389,653727,30200
1339.69,1.331148,652497,30439
1343.04,1.338304,649913,29823
1346.39,1.332154,647671,30144
1349.73,1.329234,645338,30238
1354.18,1.330652,641175,29945
1357.52,1.328941,638376,29932
1360.85,1.330758,635805,29687
1364.17,1.324305,633413,30018
1367.49,1.328433,631026,29622
1370.81,1.332909,628050,29180
1374.12,1.336813,625034,28780
1378.54,1.330319,620272,28991
1381.84,1.329101,616892,28914
1385.14,1.327673,613613,28855
1388.43,1.327611,611526,28761
1391.72,1.331018,610663,28496
1395.01,1.329476,610634,28596
1398.29,1.327402,611700,28783
1402.66,1.333878,614051,28466
1405.93,1.330860,616268,28768
1409.2,1.334782,617795,28580
1412.46,1.332359,618872,28790
1415.72,1.330045,619795,28987
1418.98,1.329801,620495,29036
1422.23,1.333489,621087,28818
1426.56,1.331210,621375,28983
1429.8,1.331229,621616,28993
1433.04,1.330764,622129,29048
1436.27,1.334535,621526,28769
1439.5,1.328443,621113,29156
1442.72,1.334958,620921,28713
1445.94,1.336427,620270,28586
1450.23,1.333892,618860,28688
1453.44,1.337289,617697,28411
1456.64,1.338364,616264,28275
1459.85,1.338242,614413,28198
1463.04,1.338433,612307,28089
1466.24,1.337002,610032,28077
1469.43,1.337131,607345,27945
1473.67,1.336919,603789,27795
1476.85,1.338501,601175,27574
1480.02,1.333748,597737,27718
1483.19,1.333432,594479,27587
1486.36,1.336694,591232,27231
1489.52,1.340438,587853,26843
1492.68,1.338931,583875,26754
1496.89,1.331512,578062,26944
1500.03,1.335655,574159,26508
1503.18,1.335691,570285,26327
1506.32,1.333244,565444,26251
1509.45,1.337280,560571,25784
1512.58,1.333113,555821,25812
1515.71,1.337582,550344,25296
1519.87,1.331882,543983,25334
1522.99,1.340870,538764,24577
1526.1,1.339919,533692,24399
1529.21,1.340825,527902,24084
1532.32,1.332685,521886,24260
1535.42,1.334648,515888,23873
1538.51,1.335089,509987,23576
1541.6,1.332733,503936,23423
1545.72,1.334198,494694,22916
1548.8,1.338450,488378,22403
1551.88,1.335292,481832,22264
1554.95,1.335031,474989,21961
1558.02,1.333417,467818,21710
1561.08,1.336435,460730,21233
1564.15,1.342509,454170,20640
1568.22,1.345272,444181,20058
1571.27,1.328251,436947,20520
1574.32,1.338993,429598,19682
1577.36,1.331173,422039,19687
1580.4,1.335225,414375,19150
1583.43,1.329055,406354,19048
1586.46,1.334334,398475,18453
1590.49,1.331340,388982,18138
1593.51,1.326866,380708,17936
1596.53,1.332141,372727,17348
1599.54,1.330487,365060,17056
1602.55,1.330664,357543,16698
1605.55,1.329101,349495,16381
1608.55,1.330271,341154,15947
1612.54,1.328132,330877,15543
1615.53,1.318098,322904,15523
1618.51,1.331804,315116,14678
1621.49,1.320305,307217,14694
1624.47,1.316141,299481,14462
1627.44,1.335183,292112,13501
1630.41,1.310616,284245,13902
1634.36,1.325371,274079,12957
1637.32,1.315920,266916,12896
1640.27,1.308134,259612,12770
1643.22,1.311440,251804,12292
1646.16,1.325464,244348,11549
1649.1,1.305647,236703,11710
1652.04,1.336451,228171,10515
1655.95,1.305790,215408,10653
1658.88,1.300050,204937,10270
1661.8,1.294511,193395,9816
1664.72,1.286039,179728,9302
1667.63,1.271738,163642,8753
1670.54,1.240381,146312,8412
1673.44,1.236057,128451,7459
1677.31,1.219225,105080,6343
1680.21,1.225229,88906,5293
1683.1,1.235268,75033,4365
1685.99,1.208076,63520,3934
1688.87,1.222232,53714,3220
1691.75,1.226340,45653,2711
1694.62,1.212195,39137,2401
1697.49,1.328853,33776,1584
1701.31,1.266594,28175,1525