Folder: textile_sorting_NIRSCAN_/ML/samples/unknown (part 4)

File: Column 1_078015_20241121_164119.csv
Method:,Column 1,,
Host Date-Time:,21/11/24 @ 16:41:19,,
Header Version:,1,,
System Temp (C):,29.51,,
Detector Temp (C):,24.81,,
Humidity (%):,7.11,,
Lamp PD:,3814,,
Shift Vector Coefficients:,-10.5391,0.0761263,-0.000134223,,
Pixel to Wavelength Coefficients:,1775.68,-0.916766,-0.000235065,,
Serial Number:,5510004,,
Scan Config Name:,Column 1,,
Scan Config Type:,Slew,,
Section 1,,
Start wavelength (nm):,900,,
End wavelength (nm):,1700,,
Pattern Pixel Width (nm):,   7.03,,,,
Exposure (ms):,  0.635,,,,
Digital Resolution:,228,,
Num Repeats:,6,,
PGA Gain:,64,,
Total Measurement Time in sec:,  2.704,,
Wavelength (nm),Absorbance (AU),Reference Signal (unitless),Sample Signal (unitless)
901.51,1.282707,108485,5658
905.376,1.321129,121306,5791
909.237,1.305228,131909,6532
913.095,1.307008,143299,7067
916.948,1.327911,156982,7378
922.079,1.322342,179937,8566
925.923,1.294802,200504,10170
929.762,1.312413,222660,10845
933.597,1.305685,244426,12091
937.427,1.305981,263972,13049
941.254,1.321643,281845,13439
945.076,1.304626,297271,14741
950.165,1.311369,315605,15409
953.978,1.312879,328029,15960
957.786,1.308661,340470,16727
961.59,1.309767,352317,17265
965.389,1.314609,363056,17594
969.185,1.311564,373162,18211
972.976,1.315070,382632,18523
976.763,1.306979,391202,19294
981.806,1.310054,400190,19598
985.583,1.308568,406088,19955
989.355,1.299383,410162,20586
993.124,1.305755,412868,20420
996.888,1.305141,414263,20518
1000.65,1.314724,415476,20129
1004.4,1.305695,415479,20552
1009.41,1.311702,414358,20215
1013.15,1.306069,412923,20408
1016.89,1.304320,411526,20421
1020.63,1.308986,409066,20082
1024.36,1.311202,406777,19868
1028.09,1.317541,404427,19467
1031.82,1.315858,401911,19421
1036.78,1.316351,398410,19230
1040.49,1.316000,396204,19139
1044.2,1.310424,394236,19290
1047.91,1.323330,392042,18621
1051.61,1.318399,389823,18727
1055.31,1.306290,388234,19178
1059,1.303704,387599,19261
1063.92,1.311819,386688,18860
1067.61,1.308277,386598,19010
1071.29,1.310433,387377,18954
1074.96,1.315551,388536,18788
1078.63,1.317069,389855,18786
1082.3,1.320899,391215,18686
1085.96,1.322649,393215,18706
1090.84,1.318872,396270,19016
1094.49,1.323515,398760,18932
1098.14,1.321756,400987,19115
1101.79,1.319160,403477,19349
1105.43,1.318482,406116,19506
1109.06,1.312669,407701,19846
1112.7,1.312300,409859,19968
1117.53,1.310884,412494,20162
1121.15,1.320389,414909,19841
1124.77,1.317887,416559,20035
1128.38,1.312802,418532,20367
1131.99,1.320786,419956,20064
1135.6,1.318189,421946,20280
1139.2,1.312198,423881,20656
1143.99,1.314576,426786,20684
1147.58,1.311051,428617,20942
1151.17,1.320022,431169,20636
1154.75,1.315242,433579,20981
1158.33,1.312943,436264,21223
1161.91,1.321909,439132,20926
1165.48,1.316305,442389,21355
1169.04,1.315986,446101,21550
1173.79,1.324230,451929,21421
1177.34,1.314224,456026,22119
1180.9,1.320915,461306,22033
1184.44,1.322500,467657,22255
1187.99,1.322989,473969,22530
1191.52,1.317255,479856,23113
1195.06,1.338719,487372,22343
1199.76,1.322039,497347,23693
1203.29,1.324410,504311,23894
1206.81,1.324086,511507,24253
1210.33,1.329626,519078,24300
1213.84,1.325379,527163,24921
1217.35,1.324332,534208,25315
1220.85,1.324482,540472,25603
1225.51,1.320384,549929,26298
1229.01,1.325185,556888,26338
1232.5,1.323397,562180,26698
1235.98,1.327558,567975,26716
1239.46,1.331247,574815,26809
1242.94,1.327993,582782,27385
1246.41,1.327330,591476,27836
1251.03,1.320376,604016,28885
1254.5,1.322139,612289,29162
1257.96,1.325875,619125,29235
1261.41,1.327265,624551,29397
1264.86,1.331382,629900,29369
1268.31,1.326567,634345,29906
1271.75,1.329642,638574,29893
1276.33,1.329595,642499,30080
1279.76,1.334236,645905,29918
1283.19,1.332940,648307,30119
1286.61,1.329909,650446,30430
1290.03,1.330064,652132,30498
1293.44,1.331045,653907,30512
1296.85,1.328019,655963,30822
1301.39,1.331777,657349,30621
1304.8,1.336348,657558,30310
1308.19,1.330198,658515,30787
1311.58,1.330629,658804,30770
1314.97,1.337278,659011,30312
1318.36,1.333238,658272,30561
1321.73,1.333841,658022,30507
1326.23,1.332206,657870,30615
1329.6,1.335967,656482,30287
1332.97,1.330542,654926,30595
1336.33,1.336008,653727,30157
1339.69,1.332406,652497,30351
1343.04,1.330210,649913,30384
1346.39,1.332067,647671,30150
1349.73,1.328273,645338,30305
1354.18,1.334718,641175,29666
1357.52,1.333535,638376,29617
1360.85,1.326811,635805,29958
1364.17,1.328025,633413,29762
1367.49,1.332943,631026,29316
1370.81,1.330608,628050,29335
1374.12,1.327128,625034,29429
1378.54,1.327616,620272,29172
1381.84,1.330395,616892,28828
1385.14,1.324270,613613,29082
1388.43,1.327143,611526,28792
1391.72,1.326243,610663,28811
1395.01,1.326856,610634,28769
1398.29,1.330856,611700,28555
1402.66,1.334489,614051,28426
1405.93,1.324684,616268,29180
1409.2,1.331542,617795,28794
1412.46,1.329967,618872,28949
1415.72,1.336277,619795,28574
1418.98,1.330745,620495,28973
1422.23,1.330021,621087,29049
1426.56,1.331001,621375,28997
1429.8,1.334326,621616,28787
1433.04,1.325400,622129,29409
1436.27,1.334504,621526,28771
1439.5,1.331837,621113,28929
1442.72,1.330159,620921,29032
1445.94,1.336534,620270,28579
1450.23,1.334362,618860,28657
1453.44,1.338774,617697,28314
1456.64,1.333872,616264,28569
1459.85,1.332778,614413,28555
1463.04,1.337460,612307,28152
1466.24,1.334150,610032,28262
1469.43,1.338018,607345,27888
1473.67,1.335032,603789,27916
1476.85,1.334456,601175,27832
1480.02,1.361487,597737,26003
1483.19,1.338770,594479,27250
1486.36,1.338004,591232,27149
1489.52,1.333217,587853,27293
1492.68,1.341683,583875,26585
1496.89,1.335398,578062,26704
1500.03,1.334396,574159,26585
1503.18,1.339884,570285,26074
1506.32,1.330375,565444,26425
1509.45,1.341393,560571,25541
1512.58,1.337085,555821,25577
1515.71,1.341445,550344,25072
1519.87,1.335427,543983,25128
1522.99,1.342303,538764,24496
1526.1,1.341131,533692,24331
1529.21,1.341402,527902,24052
1532.32,1.333491,521886,24215
1535.42,1.340897,515888,23532
1538.51,1.334868,509987,23588
1541.6,1.344898,503936,22776
1545.72,1.333440,494694,22956
1548.8,1.336805,488378,22488
1551.88,1.337424,481832,22155
1554.95,1.337610,474989,21831
1558.02,1.334278,467818,21667
1561.08,1.330988,460730,21501
1564.15,1.333801,454170,21058
1568.22,1.333166,444181,20625
1571.27,1.336995,436947,20111
1574.32,1.329823,429598,20102
1577.36,1.339795,422039,19300
1580.4,1.332737,414375,19260
1583.43,1.334123,406354,18827
1586.46,1.327516,398475,18745
1590.49,1.331963,388982,18112
1593.51,1.333552,380708,17662
1596.53,1.333069,372727,17311
1599.54,1.334221,365060,16910
1602.55,1.330898,357543,16689
1605.55,1.334946,349495,16162
1608.55,1.327097,341154,16064
1612.54,1.325847,330877,15625
1615.53,1.337435,322904,14847
1618.51,1.326043,315116,14874
1621.49,1.324791,307217,14543
1624.47,1.321276,299481,14292
1627.44,1.329209,292112,13688
1630.41,1.337185,284245,13077
1634.36,1.321567,274079,13071
1637.32,1.321137,266916,12742
1640.27,1.321569,259612,12381
1643.22,1.315380,251804,12181
1646.16,1.324713,244348,11569
1649.1,1.312337,236703,11531
1652.04,1.320754,228171,10902
1655.95,1.328468,215408,10111
1658.88,1.327814,204937,9634
1661.8,1.321008,193395,9235
1664.72,1.346614,179728,8091
1667.63,1.342030,163642,7445
1670.54,1.331814,146312,6815
1673.44,1.347712,128451,5768
1677.31,1.336226,105080,4845
1680.21,1.389983,88906,3622
1683.1,1.359246,75033,3281
1685.99,1.432768,63520,2345
1688.87,1.351508,53714,2391
1691.75,1.389490,45653,1862
1694.62,1.380400,39137,1630
1697.49,1.278432,33776,1779
1701.31,1.380566,28175,1173

File: Column 1_078016_20241121_164122.csv
Method:,Column 1,,
Host Date-Time:,21/11/24 @ 16:41:22,,
Header Version:,1,,
System Temp (C):,29.56,,
Detector Temp (C):,24.81,,
Humidity (%):,7.11,,
Lamp PD:,3814,,
Shift Vector Coefficients:,-10.5391,0.0761263,-0.000134223,,
Pixel to Wavelength Coefficients:,1775.68,-0.916766,-0.000235065,,
Serial Number:,5510004,,
Scan Config Name:,Column 1,,
Scan Config Type:,Slew,,
Section 1,,
Start wavelength (nm):,900,,
End wavelength (nm):,1700,,
Pattern Pixel Width (nm):,   7.03,,,,
Exposure (ms):,  0.635,,,,
Digital Resolution:,228,,
Num Repeats:,6,,
PGA Gain:,64,,
Total Measurement Time in sec:,  2.708,,
Wavelength (nm),Absorbance (AU),Reference Signal (unitless),Sample Signal (unitless)
901.51,1.318365,108485,5212
905.376,1.323008,121306,5766
909.237,1.310984,131909,6446
913.095,1.333879,143299,6643
916.948,1.326794,156982,7397
922.079,1.293937,179937,9145
925.923,1.297243,200504,10113
929.762,1.312092,222660,10853
933.597,1.318331,244426,11744
937.427,1.314484,263972,12796
941.254,1.330556,281845,13166
945.076,1.312504,297271,14476
950.165,1.325317,315605,14922
953.978,1.309113,328029,16099
957.786,1.310378,340470,16661
961.59,1.307484,352317,17356
965.389,1.313820,363056,17626
969.185,1.312973,373162,18152
972.976,1.311358,382632,18682
976.763,1.305743,391202,19349
981.806,1.311831,400190,19518
985.583,1.310160,406088,19882
989.355,1.311014,410162,20042
993.124,1.307866,412868,20321
996.888,1.307689,414263,20398
1000.65,1.314594,415476,20135
1004.4,1.319085,415479,19928
1009.41,1.313618,414358,20126
1013.15,1.316820,412923,19909
1016.89,1.310036,411526,20154
1020.63,1.307497,409066,20151
1024.36,1.312406,406777,19813
1028.09,1.318144,404427,19440
1031.82,1.312539,401911,19570
1036.78,1.312775,398410,19389
1040.49,1.311799,396204,19325
1044.2,1.304276,394236,19565
1047.91,1.316963,392042,18896
1051.61,1.312594,389823,18979
1055.31,1.313667,388234,18855
1059,1.315335,387599,18752
1063.92,1.301826,386688,19299
1067.61,1.318588,386598,18564
1071.29,1.315596,387377,18730
1074.96,1.313268,388536,18887
1078.63,1.313844,389855,18926
1082.3,1.316644,391215,18870
1085.96,1.322580,393215,18709
1090.84,1.321644,396270,18895
1094.49,1.314278,398760,19339
1098.14,1.314792,400987,19424
1101.79,1.321478,403477,19246
1105.43,1.317770,406116,19538
1109.06,1.322562,407701,19399
1112.7,1.319913,409859,19621
1117.53,1.313238,412494,20053
1121.15,1.322408,414909,19749
1124.77,1.321085,416559,19888
1128.38,1.325700,418532,19771
1131.99,1.317101,419956,20235
1135.6,1.321888,421946,20108
1139.2,1.319555,423881,20309
1143.99,1.324450,426786,20219
1147.58,1.322163,428617,20413
1151.17,1.322978,431169,20496
1154.75,1.318671,433579,20816
1158.33,1.319873,436264,20887
1161.91,1.318107,439132,21110
1165.48,1.321419,442389,21105
1169.04,1.316874,446101,21506
1173.79,1.325998,451929,21334
1177.34,1.313989,456026,22131
1180.9,1.318380,461306,22162
1184.44,1.315646,467657,22609
1187.99,1.322064,473969,22578
1191.52,1.320821,479856,22924
1195.06,1.317496,487372,23462
1199.76,1.326276,497347,23463
1203.29,1.327071,504311,23748
1206.81,1.330981,511507,23871
1210.33,1.319155,519078,24893
1213.84,1.325693,527163,24903
1217.35,1.325604,534208,25241
1220.85,1.347346,540472,24290
1225.51,1.329209,549929,25769
1229.01,1.332518,556888,25897
1232.5,1.323527,562180,26690
1235.98,1.329627,567975,26589
1239.46,1.320954,574815,27452
1242.94,1.324723,582782,27592
1246.41,1.322104,591476,28173
1251.03,1.324166,604016,28634
1254.5,1.325443,612289,28941
1257.96,1.322678,619125,29451
1261.41,1.328493,624551,29314
1264.86,1.326735,629900,29685
1268.31,1.331944,634345,29538
1271.75,1.337056,638574,29387
1276.33,1.331374,642499,29957
1279.76,1.335384,645905,29839
1283.19,1.328864,648307,30403
1286.61,1.335193,650446,30062
1290.03,1.331405,652132,30404
1293.44,1.331330,653907,30492
1296.85,1.334034,655963,30398
1301.39,1.329273,657349,30798
1304.8,1.336836,657558,30276
1308.19,1.338933,658515,30174
1311.58,1.334015,658804,30531
1314.97,1.335091,659011,30465
1318.36,1.330617,658272,30746
1321.73,1.334582,658022,30455
1326.23,1.336225,657870,30333
1329.6,1.332155,656482,30554
1332.97,1.335610,654926,30240
1336.33,1.330257,653727,30559
1339.69,1.331705,652497,30400
1343.04,1.335199,649913,30037
1346.39,1.334060,647671,30012
1349.73,1.333942,645338,29912
1354.18,1.329161,641175,30048
1357.52,1.334622,638376,29543
1360.85,1.331959,635805,29605
1364.17,1.327427,633413,29803
1367.49,1.330608,631026,29474
1370.81,1.332314,628050,29220
1374.12,1.328029,625034,29368
1378.54,1.333175,620272,28801
1381.84,1.326018,616892,29120
1385.14,1.329619,613613,28726
1388.43,1.324766,611526,28950
1391.72,1.330530,610663,28528
1395.01,1.328944,610634,28631
1398.29,1.337569,611700,28117
1402.66,1.329567,614051,28750
1405.93,1.333009,616268,28626
1409.2,1.331678,617795,28785
1412.46,1.338466,618872,28388
1415.72,1.338151,619795,28451
1418.98,1.334750,620495,28707
1422.23,1.337470,621087,28555
1426.56,1.332171,621375,28919
1429.8,1.337278,621616,28592
1433.04,1.339371,622129,28478
1436.27,1.339377,621526,28450
1439.5,1.334608,621113,28745
1442.72,1.335563,620921,28673
1445.94,1.339232,620270,28402
1450.23,1.337144,618860,28474
1453.44,1.335839,617697,28506
1456.64,1.342609,616264,28000
1459.85,1.334058,614413,28471
1463.04,1.336689,612307,28202
1466.24,1.338412,610032,27986
1469.43,1.333849,607345,28157
1473.67,1.334566,603789,27946
1476.85,1.339510,601175,27510
1480.02,1.337889,597737,27455
1483.19,1.342708,594479,27004
1486.36,1.343542,591232,26805
1489.52,1.339113,587853,26925
1492.68,1.341242,583875,26612
1496.89,1.340469,578062,26394
1500.03,1.348812,574159,25717
1503.18,1.338737,570285,26143
1506.32,1.334752,565444,26160
1509.45,1.339713,560571,25640
1512.58,1.346197,555821,25046
1515.71,1.342312,550344,25022
1519.87,1.348962,543983,24357
1522.99,1.341223,538764,24557
1526.1,1.342006,533692,24282
1529.21,1.344319,527902,23891
1532.32,1.334461,521886,24161
1535.42,1.339312,515888,23618
1538.51,1.344794,509987,23055
1541.6,1.341006,503936,22981
1545.72,1.334482,494694,22901
1548.8,1.339479,488378,22350
1551.88,1.333074,481832,22378
1554.95,1.341868,474989,21618
1558.02,1.350242,467818,20885
1561.08,1.337172,460730,21197
1564.15,1.344618,454170,20540
1568.22,1.335129,444181,20532
1571.27,1.333554,436947,20271
1574.32,1.339457,429598,19661
1577.36,1.343774,422039,19124
1580.4,1.338663,414375,18999
1583.43,1.333363,406354,18860
1586.46,1.337713,398475,18310
1590.49,1.337343,388982,17889
1593.51,1.338523,380708,17461
1596.53,1.334803,372727,17242
1599.54,1.327569,365060,17171
1602.55,1.326342,357543,16865
1605.55,1.336912,349495,16089
1608.55,1.337881,341154,15670
1612.54,1.324210,330877,15684
1615.53,1.334781,322904,14938
1618.51,1.322611,315116,14992
1621.49,1.327788,307217,14443
1624.47,1.322158,299481,14263
1627.44,1.330671,292112,13642
1630.41,1.324454,284245,13466
1634.36,1.323065,274079,13026
1637.32,1.323872,266916,12662
1640.27,1.322060,259612,12367
1643.22,1.321773,251804,12003
1646.16,1.319823,244348,11700
1649.1,1.318062,236703,11380
1652.04,1.323432,228171,10835
1655.95,1.335919,215408,9939
1658.88,1.311751,204937,9997
1661.8,1.332396,193395,8996
1664.72,1.354959,179728,7937
1667.63,1.337273,163642,7527
1670.54,1.378741,146312,6117
1673.44,1.367744,128451,5508
1677.31,1.326739,105080,4952
1680.21,1.346871,88906,4000
1683.1,1.404989,75033,2953
1685.99,1.452081,63520,2243
1688.87,1.386088,53714,2208
1691.75,1.269595,45653,2454
1694.62,1.250362,39137,2199
1697.49,1.337716,33776,1552
1701.31,1.306537,28175,1391

File: Column 1_078020_20241121_164134.csv
Method:,Column 1,,
Host Date-Time:,21/11/24 @ 16:41:34,,
Header Version:,1,,
System Temp (C):,29.75,,
Detector Temp (C):,24.92,,
Humidity (%):,7.2,,
Lamp PD:,3813,,
Shift Vector Coefficients:,-10.5391,0.0761263,-0.000134223,,
Pixel to Wavelength Coefficients:,1775.68,-0.916766,-0.000235065,,
Serial Number:,5510004,,
Scan Config Name:,Column 1,,
Scan Config Type:,Slew,,
Section 1,,
Start wavelength (nm):,900,,
End wavelength (nm):,1700,,
Pattern Pixel Width (nm):,   7.03,,,,
Exposure (ms):,  0.635,,,,
Digital Resolution:,228,,
Num Repeats:,6,,
PGA Gain:,64,,
Total Measurement Time in sec:,  2.706,,
Wavelength (nm),Absorbance (AU),Reference Signal (unitless),Sample Signal (unitless)
901.51,1.308235,108485,5335
905.376,1.292192,121306,6190
909.237,1.310782,131909,6449
913.095,1.318024,143299,6890
916.948,1.326559,156982,7401
922.079,1.289449,179937,9240
925.923,1.287729,200504,10337
929.762,1.328360,222660,10454
933.597,1.319924,244426,11701
937.427,1.310665,263972,12909
941.254,1.319066,281845,13519
945.076,1.312864,297271,14464
950.165,1.311426,315605,15407
953.978,1.313288,328029,15945
957.786,1.316151,340470,16441
961.59,1.315005,352317,17058
965.389,1.314856,363056,17584
969.185,1.308948,373162,18321
972.976,1.309780,382632,18750
976.763,1.300988,391202,19562
981.806,1.313615,400190,19438
985.583,1.300825,406088,20314
989.355,1.312273,410162,19984
993.124,1.308230,412868,20304
996.888,1.305777,414263,20488
1000.65,1.310879,415476,20308
1004.4,1.302873,415479,20686
1009.41,1.316389,414358,19998
1013.15,1.313343,412923,20069
1016.89,1.309153,411526,20195
1020.63,1.316997,409066,19715
1024.36,1.317632,406777,19576
1028.09,1.312043,404427,19715
1031.82,1.312007,401911,19594
1036.78,1.312103,398410,19419
1040.49,1.315274,396204,19171
1044.2,1.306680,394236,19457
1047.91,1.305397,392042,19406
1051.61,1.318330,389823,18730
1055.31,1.318601,388234,18642
1059,1.321845,387599,18473
1063.92,1.306418,386688,19096
1067.61,1.316627,386598,18648
1071.29,1.320329,387377,18527
1074.96,1.325322,388536,18370
1078.63,1.313156,389855,18956
1082.3,1.311746,391215,19084
1085.96,1.318237,393215,18897
1090.84,1.314057,396270,19228
1094.49,1.316890,398760,19223
1098.14,1.312673,400987,19519
1101.79,1.310406,403477,19743
1105.43,1.320177,406116,19430
1109.06,1.315435,407701,19720
1112.7,1.315115,409859,19839
1117.53,1.323494,412494,19585
1121.15,1.313527,414909,20157
1124.77,1.323626,416559,19772
1128.38,1.320482,418532,20010
1131.99,1.309737,419956,20581
1135.6,1.319820,421946,20204
1139.2,1.328282,423881,19905
1143.99,1.315101,426786,20659
1147.58,1.320316,428617,20500
1151.17,1.322428,431169,20522
1154.75,1.318212,433579,20838
1158.33,1.326072,436264,20591
1161.91,1.324031,439132,20824
1165.48,1.315249,442389,21407
1169.04,1.316551,446101,21522
1173.79,1.326976,451929,21286
1177.34,1.324878,456026,21583
1180.9,1.316366,461306,22265
1184.44,1.322500,467657,22255
1187.99,1.329045,473969,22218
1191.52,1.322339,479856,22844
1195.06,1.317477,487372,23463
1199.76,1.328280,497347,23355
1203.29,1.322632,504311,23992
1206.81,1.331345,511507,23851
1210.33,1.322272,519078,24715
1213.84,1.325379,527163,24921
1217.35,1.324058,534208,25331
1220.85,1.327120,540472,25448
1225.51,1.320599,549929,26285
1229.01,1.326970,556888,26230
1232.5,1.326007,562180,26538
1235.98,1.324545,567975,26902
1239.46,1.329534,574815,26915
1242.94,1.324393,582782,27613
1246.41,1.325058,591476,27982
1251.03,1.322063,604016,28773
1254.5,1.325953,612289,28907
1257.96,1.325964,619125,29229
1261.41,1.329145,624551,29270
1264.86,1.324022,629900,29871
1268.31,1.332077,634345,29529
1271.75,1.335831,638574,29470
1276.33,1.330722,642499,30002
1279.76,1.321717,645905,30793
1283.19,1.332450,648307,30153
1286.61,1.325380,650446,30749
1290.03,1.331705,652132,30383
1293.44,1.330903,653907,30522
1296.85,1.331328,655963,30588
1301.39,1.332614,657349,30562
1304.8,1.328932,657558,30832
1308.19,1.332149,658515,30649
1311.58,1.333163,658804,30591
1314.97,1.331358,659011,30728
1318.36,1.329897,658272,30797
1321.73,1.331159,658022,30696
1326.23,1.336497,657870,30314
1329.6,1.332951,656482,30498
1332.97,1.330812,654926,30576
1336.33,1.337104,653727,30081
1339.69,1.327582,652497,30690
1343.04,1.331427,649913,30299
1346.39,1.331189,647671,30211
1349.73,1.336768,645338,29718
1354.18,1.330638,641175,29946
1357.52,1.332583,638376,29682
1360.85,1.327972,635805,29878
1364.17,1.321709,633413,30198
1367.49,1.324856,631026,29867
1370.81,1.323676,628050,29807
1374.12,1.331951,625034,29104
1378.54,1.326263,620272,29263
1381.84,1.331858,616892,28731
1385.14,1.327673,613613,28855
1388.43,1.326992,611526,28802
1391.72,1.324648,610663,28917
1395.01,1.332279,610634,28412
1398.29,1.329763,611700,28627
1402.66,1.332796,614051,28537
1405.93,1.329368,616268,28867
1409.2,1.334478,617795,28600
1412.46,1.331922,618872,28819
1415.72,1.340769,619795,28280
1418.98,1.334720,620495,28709
1422.23,1.329678,621087,29072
1426.56,1.337337,621375,28577
1429.8,1.333045,621616,28872
1433.04,1.330660,622129,29055
1436.27,1.337154,621526,28596
1439.5,1.340434,621113,28362
1442.72,1.332274,620921,28891
1445.94,1.334896,620270,28687
1450.23,1.334680,618860,28636
1453.44,1.332425,617697,28731
1456.64,1.341432,616264,28076
1459.85,1.335785,614413,28358
1463.04,1.334738,612307,28329
1466.24,1.334657,610032,28229
1469.43,1.339781,607345,27775
1473.67,1.343182,603789,27397
1476.85,1.336505,601175,27701
1480.02,1.334501,597737,27670
1483.19,1.341696,594479,27067
1486.36,1.336264,591232,27258
1489.52,1.340389,587853,26846
1492.68,1.333800,583875,27072
1496.89,1.334699,578062,26747
1500.03,1.340980,574159,26185
1503.18,1.347106,570285,25644
1506.32,1.340888,565444,25793
1509.45,1.337887,560571,25748
1512.58,1.344017,555821,25172
1515.71,1.338476,550344,25244
1519.87,1.341379,543983,24786
1522.99,1.342357,538764,24493
1526.1,1.337823,533692,24517
1529.21,1.343919,527902,23913
1532.32,1.339760,521886,23868
1535.42,1.342450,515888,23448
1538.51,1.342408,509987,23182
1541.6,1.336008,503936,23247
1545.72,1.340055,494694,22609
1548.8,1.341504,488378,22246
1551.88,1.339704,481832,22039
1554.95,1.334439,474989,21991
1558.02,1.332837,467818,21739
1561.08,1.334843,460730,21311
1564.15,1.336989,454170,20904
1568.22,1.330312,444181,20761
1571.27,1.338509,436947,20041
1574.32,1.335389,429598,19846
1577.36,1.341170,422039,19239
1580.4,1.340587,414375,18915
1583.43,1.330220,406354,18997
1586.46,1.333699,398475,18480
1590.49,1.333837,388982,18034
1593.51,1.334192,380708,17636
1596.53,1.324228,372727,17667
1599.54,1.338375,365060,16749
1602.55,1.334583,357543,16548
1605.55,1.330428,349495,16331
1608.55,1.338020,341154,15665
1612.54,1.337680,330877,15205
1615.53,1.330614,322904,15082
1618.51,1.328943,315116,14775
1621.49,1.325060,307217,14534
1624.47,1.320821,299481,14307
1627.44,1.327784,292112,13733
1630.41,1.314790,284245,13769
1634.36,1.317730,274079,13187
1637.32,1.317032,266916,12863
1640.27,1.321113,259612,12394
1643.22,1.299866,251804,12624
1646.16,1.321571,244348,11653
1649.1,1.314640,236703,11470
1652.04,1.325843,228171,10775
1655.95,1.324023,215408,10215
1658.88,1.333029,204937,9519
1661.8,1.304536,193395,9592
1664.72,1.337215,179728,8268
1667.63,1.335201,163642,7563
1670.54,1.333538,146312,6788
1673.44,1.325406,128451,6072
1677.31,1.353227,105080,4659
1680.21,1.307854,88906,4376
1683.1,1.360970,75033,3268
1685.99,1.325934,63520,2999
1688.87,1.345555,53714,2424
1691.75,1.366107,45653,1965
1694.62,1.366762,39137,1682
1697.49,1.424121,33776,1272
1701.31,1.388411,28175,1152