Folder: textile_sorting_NIRSCAN_/ML/samples/unknown (part 24)

File: Column 1_078153_20241121_164804.csv
Method:,Column 1,,
Host Date-Time:,21/11/24 @ 16:48:4,,
Header Version:,1,,
System Temp (C):,33.29,,
Detector Temp (C):,29.38,,
Humidity (%):,3.22,,
Lamp PD:,3805,,
Shift Vector Coefficients:,-10.5391,0.0761263,-0.000134223,,
Pixel to Wavelength Coefficients:,1775.68,-0.916766,-0.000235065,,
Serial Number:,5510004,,
Scan Config Name:,Column 1,,
Scan Config Type:,Slew,,
Section 1,,
Start wavelength (nm):,900,,
End wavelength (nm):,1700,,
Pattern Pixel Width (nm):,   7.03,,,,
Exposure (ms):,  0.635,,,,
Digital Resolution:,228,,
Num Repeats:,6,,
PGA Gain:,64,,
Total Measurement Time in sec:,  2.734,,
Wavelength (nm),Absorbance (AU),Reference Signal (unitless),Sample Signal (unitless)
901.51,1.325252,108485,5130
905.376,1.319706,121306,5810
909.237,1.307829,131909,6493
913.095,1.329844,143299,6705
916.948,1.300704,156982,7855
922.079,1.322900,179937,8555
925.923,1.311207,200504,9793
929.762,1.325296,222660,10528
933.597,1.324626,244426,11575
937.427,1.317481,263972,12708
941.254,1.311013,281845,13772
945.076,1.316664,297271,14338
950.165,1.312018,315605,15386
953.978,1.308547,328029,16120
957.786,1.310873,340470,16642
961.59,1.311405,352317,17200
965.389,1.308165,363056,17857
969.185,1.298942,373162,18748
972.976,1.297517,382632,19287
976.763,1.309575,391202,19179
981.806,1.306809,400190,19745
985.583,1.305683,406088,20088
989.355,1.302390,410162,20444
993.124,1.313567,412868,20056
996.888,1.307008,414263,20430
1000.65,1.305692,415476,20552
1004.4,1.307856,415479,20450
1009.41,1.306640,414358,20452
1013.15,1.305388,412923,20440
1016.89,1.313367,411526,20000
1020.63,1.312700,409066,19911
1024.36,1.312560,406777,19806
1028.09,1.308686,404427,19868
1031.82,1.301063,401911,20094
1036.78,1.298758,398410,20025
1040.49,1.310587,396204,19379
1044.2,1.307015,394236,19442
1047.91,1.311209,392042,19148
1051.61,1.303446,389823,19383
1055.31,1.310294,388234,19002
1059,1.305557,387599,19179
1063.92,1.310738,386688,18907
1067.61,1.315929,386598,18678
1071.29,1.311167,387377,18922
1074.96,1.305881,388536,19211
1078.63,1.310963,389855,19052
1082.3,1.316138,391215,18892
1085.96,1.316883,393215,18956
1090.84,1.314848,396270,19193
1094.49,1.328290,398760,18725
1098.14,1.310564,400987,19614
1101.79,1.316899,403477,19450
1105.43,1.321476,406116,19372
1109.06,1.316074,407701,19691
1112.7,1.310780,409859,20038
1117.53,1.315279,412494,19959
1121.15,1.317270,414909,19984
1124.77,1.311326,416559,20340
1128.38,1.325986,418532,19758
1131.99,1.320354,419956,20084
1135.6,1.320896,421946,20154
1139.2,1.325520,423881,20032
1143.99,1.327403,426786,20082
1147.58,1.319025,428617,20561
1151.17,1.314273,431169,20911
1154.75,1.325505,433579,20491
1158.33,1.320977,436264,20834
1161.91,1.317798,439132,21125
1165.48,1.318998,442389,21223
1169.04,1.318229,446101,21439
1173.79,1.314567,451929,21903
1177.34,1.318090,456026,21923
1180.9,1.319616,461306,22099
1184.44,1.316184,467657,22581
1187.99,1.314381,473969,22981
1191.52,1.318195,479856,23063
1195.06,1.323798,487372,23124
1199.76,1.318116,497347,23908
1203.29,1.323012,504311,23971
1206.81,1.320093,511507,24477
1210.33,1.322096,519078,24725
1213.84,1.321459,527163,25147
1217.35,1.325415,534208,25252
1220.85,1.316632,540472,26070
1225.51,1.323683,549929,26099
1229.01,1.322506,556888,26501
1232.5,1.325288,562180,26582
1235.98,1.323545,567975,26964
1239.46,1.323493,574815,27292
1242.94,1.325984,582782,27512
1246.41,1.328267,591476,27776
1251.03,1.321053,604016,28840
1254.5,1.325098,612289,28964
1257.96,1.324940,619125,29298
1261.41,1.323880,624551,29627
1264.86,1.320503,629900,30114
1268.31,1.331753,634345,29551
1271.75,1.329526,638574,29901
1276.33,1.328528,642499,30154
1279.76,1.326667,645905,30444
1283.19,1.325407,648307,30646
1286.61,1.349677,650446,29076
1290.03,1.326815,652132,30727
1293.44,1.330761,653907,30532
1296.85,1.330222,655963,30666
1301.39,1.331805,657349,30619
1304.8,1.325397,657558,31084
1308.19,1.332490,658515,30625
1311.58,1.330163,658804,30803
1314.97,1.327741,659011,30985
1318.36,1.332343,658272,30624
1321.73,1.333528,658022,30529
1326.23,1.336082,657870,30343
1329.6,1.333650,656482,30449
1332.97,1.326149,654926,30906
1336.33,1.334155,653727,30286
1339.69,1.325915,652497,30808
1343.04,1.328684,649913,30491
1346.39,1.328210,647671,30419
1349.73,1.328976,645338,30256
1354.18,1.329928,641175,29995
1357.52,1.329972,638376,29861
1360.85,1.326811,635805,29958
1364.17,1.327514,633413,29797
1367.49,1.323520,631026,29959
1370.81,1.329558,628050,29406
1374.12,1.330923,625034,29173
1378.54,1.326174,620272,29269
1381.84,1.331541,616892,28752
1385.14,1.325781,613613,28981
1388.43,1.322626,611526,29093
1391.72,1.325611,610663,28853
1395.01,1.331699,610634,28450
1398.29,1.330552,611700,28575
1402.66,1.327863,614051,28863
1405.93,1.327312,616268,29004
1409.2,1.330879,617795,28838
1412.46,1.334309,618872,28661
1415.72,1.332690,619795,28811
1418.98,1.329697,620495,29043
1422.23,1.335150,621087,28708
1426.56,1.326872,621375,29274
1429.8,1.330795,621616,29022
1433.04,1.331872,622129,28974
1436.27,1.338660,621526,28497
1439.5,1.337169,621113,28576
1442.72,1.332966,620921,28845
1445.94,1.335229,620270,28665
1450.23,1.334498,618860,28648
1453.44,1.338514,617697,28331
1456.64,1.333978,616264,28562
1459.85,1.328375,614413,28846
1463.04,1.336089,612307,28241
1466.24,1.339157,610032,27938
1469.43,1.332755,607345,28228
1473.67,1.330405,603789,28215
1476.85,1.338580,601175,27569
1480.02,1.334878,597737,27646
1483.19,1.337147,594479,27352
1486.36,1.334594,591232,27363
1489.52,1.332677,587853,27327
1492.68,1.337182,583875,26862
1496.89,1.339795,578062,26435
1500.03,1.341477,574159,26155
1503.18,1.342557,570285,25914
1506.32,1.336699,565444,26043
1509.45,1.340221,560571,25610
1512.58,1.333181,555821,25808
1515.71,1.332870,550344,25572
1519.87,1.332139,543983,25319
1522.99,1.339124,538764,24676
1526.1,1.338799,533692,24462
1529.21,1.340897,527902,24080
1532.32,1.337183,521886,24010
1535.42,1.337880,515888,23696
1538.51,1.336214,509987,23515
1541.6,1.339384,503936,23067
1545.72,1.338904,494694,22669
1548.8,1.337462,488378,22454
1551.88,1.336015,481832,22227
1554.95,1.333787,474989,22024
1558.02,1.327733,467818,21996
1561.08,1.339658,460730,21076
1564.15,1.331149,454170,21187
1568.22,1.341500,444181,20233
1571.27,1.340246,436947,19961
1574.32,1.358304,429598,18826
1577.36,1.333185,422039,19596
1580.4,1.331881,414375,19298
1583.43,1.339322,406354,18603
1586.46,1.329280,398475,18669
1590.49,1.325537,388982,18382
1593.51,1.332815,380708,17692
1596.53,1.332342,372727,17340
1599.54,1.329978,365060,17076
1602.55,1.323595,357543,16972
1605.55,1.327011,349495,16460
1608.55,1.329319,341154,15982
1612.54,1.322193,330877,15757
1615.53,1.327916,322904,15176
1618.51,1.321049,315116,15046
1621.49,1.328631,307217,14415
1624.47,1.321307,299481,14291
1627.44,1.319576,292112,13995
1630.41,1.330004,284245,13295
1634.36,1.319181,274079,13143
1637.32,1.310066,266916,13071
1640.27,1.311514,259612,12671
1643.22,1.310663,251804,12314
1646.16,1.317011,244348,11776
1649.1,1.314527,236703,11473
1652.04,1.306992,228171,11253
1655.95,1.315019,215408,10429
1658.88,1.291301,204937,10479
1661.8,1.291600,193395,9882
1664.72,1.302211,179728,8962
1667.63,1.294607,163642,8304
1670.54,1.294467,146312,7427
1673.44,1.270203,128451,6895
1677.31,1.264048,105080,5721
1680.21,1.266876,88906,4809
1683.1,1.223780,75033,4482
1685.99,1.210956,63520,3908
1688.87,1.213420,53714,3286
1691.75,1.204777,45653,2849
1694.62,1.213101,39137,2396
1697.49,1.180888,33776,2227
1701.31,1.362793,28175,1222

File: Column 1_078155_20241121_164810.csv
Method:,Column 1,,
Host Date-Time:,21/11/24 @ 16:48:10,,
Header Version:,1,,
System Temp (C):,33.3,,
Detector Temp (C):,29.33,,
Humidity (%):,3.22,,
Lamp PD:,3805,,
Shift Vector Coefficients:,-10.5391,0.0761263,-0.000134223,,
Pixel to Wavelength Coefficients:,1775.68,-0.916766,-0.000235065,,
Serial Number:,5510004,,
Scan Config Name:,Column 1,,
Scan Config Type:,Slew,,
Section 1,,
Start wavelength (nm):,900,,
End wavelength (nm):,1700,,
Pattern Pixel Width (nm):,   7.03,,,,
Exposure (ms):,  0.635,,,,
Digital Resolution:,228,,
Num Repeats:,6,,
PGA Gain:,64,,
Total Measurement Time in sec:,  2.726,,
Wavelength (nm),Absorbance (AU),Reference Signal (unitless),Sample Signal (unitless)
901.51,1.310112,108485,5312
905.376,1.283991,121306,6308
909.237,1.319695,131909,6318
913.095,1.330752,143299,6691
916.948,1.309021,156982,7706
922.079,1.304804,179937,8919
925.923,1.312584,200504,9762
929.762,1.328318,222660,10455
933.597,1.310162,244426,11967
937.427,1.319605,263972,12646
941.254,1.309817,281845,13810
945.076,1.306663,297271,14672
950.165,1.309766,315605,15466
953.978,1.317008,328029,15809
957.786,1.302576,340470,16963
961.59,1.312087,352317,17173
965.389,1.311559,363056,17718
969.185,1.313404,373162,18134
972.976,1.295024,382632,19398
976.763,1.300145,391202,19600
981.806,1.301215,400190,20001
985.583,1.314639,406088,19678
989.355,1.315567,410162,19833
993.124,1.316784,412868,19908
996.888,1.309716,414263,20303
1000.65,1.310003,415476,20349
1004.4,1.301615,415479,20746
1009.41,1.314028,414358,20107
1013.15,1.311853,412923,20138
1016.89,1.307801,411526,20258
1020.63,1.313355,409066,19881
1024.36,1.310002,406777,19923
1028.09,1.302716,404427,20143
1031.82,1.313717,401911,19517
1036.78,1.312730,398410,19391
1040.49,1.320035,396204,18962
1044.2,1.309210,394236,19344
1047.91,1.304034,392042,19467
1051.61,1.317380,389823,18771
1055.31,1.306721,388234,19159
1059,1.311094,387599,18936
1063.92,1.314498,386688,18744
1067.61,1.310683,386598,18905
1071.29,1.310089,387377,18969
1074.96,1.313429,388536,18880
1078.63,1.322793,389855,18540
1082.3,1.311564,391215,19092
1085.96,1.306224,393215,19427
1090.84,1.309183,396270,19445
1094.49,1.318679,398760,19144
1098.14,1.315664,400987,19385
1101.79,1.310164,403477,19754
1105.43,1.312336,406116,19784
1109.06,1.319173,407701,19551
1112.7,1.318896,409859,19667
1117.53,1.328378,412494,19366
1121.15,1.319711,414909,19872
1124.77,1.319734,416559,19950
1128.38,1.312652,418532,20374
1131.99,1.317165,419956,20232
1135.6,1.318896,421946,20247
1139.2,1.318637,423881,20352
1143.99,1.324193,426786,20231
1147.58,1.320527,428617,20490
1151.17,1.318279,431169,20719
1154.75,1.319611,433579,20771
1158.33,1.320040,436264,20879
1161.91,1.316751,439132,21176
1165.48,1.320453,442389,21152
1169.04,1.315623,446101,21568
1173.79,1.319492,451929,21656
1177.34,1.323512,456026,21651
1180.9,1.316444,461306,22261
1184.44,1.315665,467657,22608
1187.99,1.319915,473969,22690
1191.52,1.316335,479856,23162
1195.06,1.324926,487372,23064
1199.76,1.321875,497347,23702
1203.29,1.323574,504311,23940
1206.81,1.314190,511507,24812
1210.33,1.329180,519078,24325
1213.84,1.327966,527163,24773
1217.35,1.349312,534208,23900
1220.85,1.324771,540472,25586
1225.51,1.326621,549929,25923
1229.01,1.318493,556888,26747
1232.5,1.318270,562180,27015
1235.98,1.324464,567975,26907
1239.46,1.324193,574815,27248
1242.94,1.325353,582782,27552
1246.41,1.322412,591476,28153
1251.03,1.319475,604016,28945
1254.5,1.325623,612289,28929
1257.96,1.320868,619125,29574
1261.41,1.324276,624551,29600
1264.86,1.326720,629900,29686
1268.31,1.327032,634345,29874
1271.75,1.326472,638574,30112
1276.33,1.334605,642499,29735
1279.76,1.331790,645905,30087
1283.19,1.331759,648307,30201
1286.61,1.329610,650446,30451
1290.03,1.329267,652132,30554
1293.44,1.330022,653907,30584
1296.85,1.336010,655963,30260
1301.39,1.329048,657349,30814
1304.8,1.337252,657558,30247
1308.19,1.330763,658515,30747
1311.58,1.330163,658804,30803
1314.97,1.335733,659011,30420
1318.36,1.326946,658272,31007
1321.73,1.332278,658022,30617
1326.23,1.334239,657870,30472
1329.6,1.332752,656482,30512
1332.97,1.333948,654926,30356
1336.33,1.331667,653727,30460
1339.69,1.336200,652497,30087
1343.04,1.329682,649913,30421
1346.39,1.330801,647671,30238
1349.73,1.324577,645338,30564
1354.18,1.332979,641175,29785
1357.52,1.329536,638376,29891
1360.85,1.330158,635805,29728
1364.17,1.324334,633413,30016
1367.49,1.325962,631026,29791
1370.81,1.325428,628050,29687
1374.12,1.330105,625034,29228
1378.54,1.328048,620272,29143
1381.84,1.330364,616892,28830
1385.14,1.325407,613613,29006
1388.43,1.328972,611526,28671
1391.72,1.328450,610663,28665
1395.01,1.328702,610634,28647
1398.29,1.328944,611700,28681
1402.66,1.329491,614051,28755
1405.93,1.332387,616268,28667
1409.2,1.327295,617795,29077
1412.46,1.332450,618872,28784
1415.72,1.338807,619795,28408
1418.98,1.333965,620495,28759
1422.23,1.332465,621087,28886
1426.56,1.331750,621375,28947
1429.8,1.331919,621616,28947
1433.04,1.333043,622129,28896
1436.27,1.335290,621526,28719
1439.5,1.334608,621113,28745
1442.72,1.336291,620921,28625
1445.94,1.331638,620270,28903
1450.23,1.334286,618860,28662
1453.44,1.335854,617697,28505
1456.64,1.334480,616264,28529
1459.85,1.335785,614413,28358
1463.04,1.335597,612307,28273
1466.24,1.336693,610032,28097
1469.43,1.331634,607345,28301
1473.67,1.341537,603789,27501
1476.85,1.337212,601175,27656
1480.02,1.340220,597737,27308
1483.19,1.334756,594479,27503
1486.36,1.338100,591232,27143
1489.52,1.339920,587853,26875
1492.68,1.333527,583875,27089
1496.89,1.337436,578062,26579
1500.03,1.341063,574159,26180
1503.18,1.333486,570285,26461
1506.32,1.343285,565444,25651
1509.45,1.337837,560571,25751
1512.58,1.335831,555821,25651
1515.71,1.337771,550344,25285
1519.87,1.338654,543983,24942
1522.99,1.334520,538764,24939
1526.1,1.341149,533692,24330
1529.21,1.345922,527902,23803
1532.32,1.339796,521886,23866
1535.42,1.333196,515888,23953
1538.51,1.333857,509987,23643
1541.6,1.332900,503936,23414
1545.72,1.338464,494694,22692
1548.8,1.333094,488378,22681
1551.88,1.335527,481832,22252
1554.95,1.334537,474989,21986
1558.02,1.332398,467818,21761
1561.08,1.337234,460730,21194
1564.15,1.335869,454170,20958
1568.22,1.328100,444181,20867
1571.27,1.335185,436947,20195
1574.32,1.333773,429598,19920
1577.36,1.333185,422039,19596
1580.4,1.334319,414375,19190
1583.43,1.331479,406354,18942
1586.46,1.338734,398475,18267
1590.49,1.327217,388982,18311
1593.51,1.327448,380708,17912
1596.53,1.327237,372727,17545
1599.54,1.331507,365060,17016
1602.55,1.329858,357543,16729
1605.55,1.324014,349495,16574
1608.55,1.335284,341154,15764
1612.54,1.325458,330877,15639
1615.53,1.329292,322904,15128
1618.51,1.326978,315116,14842
1621.49,1.320867,307217,14675
1624.47,1.321580,299481,14282
1627.44,1.316392,292112,14098
1630.41,1.311930,284245,13860
1634.36,1.313404,274079,13319
1637.32,1.317269,266916,12856
1640.27,1.318075,259612,12481
1643.22,1.304952,251804,12477
1646.16,1.316679,244348,11785
1649.1,1.300742,236703,11843
1652.04,1.320476,228171,10909
1655.95,1.298794,215408,10826
1658.88,1.309498,204937,10049
1661.8,1.280836,193395,10130
1664.72,1.312955,179728,8743
1667.63,1.272433,163642,8739
1670.54,1.265624,146312,7937
1673.44,1.274444,128451,6828
1677.31,1.295853,105080,5317
1680.21,1.251789,88906,4979
1683.1,1.266512,75033,4062
1685.99,1.241571,63520,3642
1688.87,1.258209,53714,2964
1691.75,1.173748,45653,3060
1694.62,1.345105,39137,1768
1697.49,1.192549,33776,2168
1701.31,1.140021,28175,2041

File: Column 1_078156_20241121_164813.csv
Method:,Column 1,,
Host Date-Time:,21/11/24 @ 16:48:13,,
Header Version:,1,,
System Temp (C):,33.31,,
Detector Temp (C):,29.41,,
Humidity (%):,3.22,,
Lamp PD:,3805,,
Shift Vector Coefficients:,-10.5391,0.0761263,-0.000134223,,
Pixel to Wavelength Coefficients:,1775.68,-0.916766,-0.000235065,,
Serial Number:,5510004,,
Scan Config Name:,Column 1,,
Scan Config Type:,Slew,,
Section 1,,
Start wavelength (nm):,900,,
End wavelength (nm):,1700,,
Pattern Pixel Width (nm):,   7.03,,,,
Exposure (ms):,  0.635,,,,
Digital Resolution:,228,,
Num Repeats:,6,,
PGA Gain:,64,,
Total Measurement Time in sec:,  2.729,,
Wavelength (nm),Absorbance (AU),Reference Signal (unitless),Sample Signal (unitless)
901.51,1.317200,108485,5226
905.376,1.326259,121306,5723
909.237,1.308699,131909,6480
913.095,1.352649,143299,6362
916.948,1.319401,156982,7524
922.079,1.333018,179937,8358
925.923,1.312095,200504,9773
929.762,1.329191,222660,10434
933.597,1.326582,244426,11523
937.427,1.314144,263972,12806
941.254,1.323197,281845,13391
945.076,1.321721,297271,14172
950.165,1.312922,315605,15354
953.978,1.322287,328029,15618
957.786,1.316917,340470,16412
961.59,1.320437,352317,16846
965.389,1.306975,363056,17906
969.185,1.315541,373162,18045
972.976,1.316408,382632,18466
976.763,1.316882,391202,18859
981.806,1.317475,400190,19266
985.583,1.312833,406088,19760
989.355,1.311340,410162,20027
993.124,1.309622,412868,20239
996.888,1.309181,414263,20328
1000.65,1.312958,415476,20211
1004.4,1.312489,415479,20233
1009.41,1.301049,414358,20717
1013.15,1.308972,412923,20272
1016.89,1.313237,411526,20006
1020.63,1.307518,409066,20150
1024.36,1.313240,406777,19775
1028.09,1.317809,404427,19455
1031.82,1.312206,401911,19585
1036.78,1.317278,398410,19189
1040.49,1.316954,396204,19097
1044.2,1.309030,394236,19352
1047.91,1.318828,392042,18815
1051.61,1.309993,389823,19093
1055.31,1.316602,388234,18728
1059,1.324014,387599,18381
1063.92,1.315984,386688,18680
1067.61,1.315743,386598,18686
1071.29,1.321267,387377,18487
1074.96,1.314373,388536,18839
1078.63,1.322911,389855,18535
1082.3,1.319113,391215,18763
1085.96,1.319711,393215,18833
1090.84,1.315618,396270,19159
1094.49,1.321227,398760,19032
1098.14,1.315194,400987,19406
1101.79,1.314517,403477,19557
1105.43,1.321207,406116,19384
1109.06,1.317532,407701,19625
1112.7,1.321866,409859,19533
1117.53,1.319499,412494,19766
1121.15,1.318555,414909,19925
1124.77,1.330288,416559,19471
1128.38,1.315261,418532,20252
1131.99,1.321414,419956,20035
1135.6,1.327934,421946,19830
1139.2,1.320048,423881,20286
1143.99,1.326366,426786,20130
1147.58,1.329198,428617,20085
1151.17,1.333683,431169,19997
1154.75,1.322969,433579,20611
1158.33,1.322355,436264,20768
1161.91,1.315543,439132,21235
1165.48,1.330212,442389,20682
1169.04,1.314156,446101,21641
1173.79,1.314249,451929,21919
1177.34,1.316113,456026,22023
1180.9,1.320265,461306,22066
1184.44,1.322305,467657,22265
1187.99,1.319284,473969,22723
1191.52,1.316447,479856,23156
1195.06,1.322747,487372,23180
1199.76,1.321343,497347,23731
1203.29,1.323212,504311,23960
1206.81,1.324606,511507,24224
1210.33,1.322641,519078,24694
1213.84,1.323901,527163,25006
1217.35,1.331127,534208,24922
1220.85,1.327290,540472,25438
1225.51,1.326102,549929,25954
1229.01,1.329743,556888,26063
1232.5,1.324260,562180,26645
1235.98,1.323513,567975,26966
1239.46,1.321809,574815,27398
1242.94,1.324928,582782,27579
1246.41,1.324857,591476,27995
1251.03,1.324106,604016,28638
1254.5,1.326660,612289,28860
1257.96,1.327408,619125,29132
1261.41,1.325687,624551,29504
1264.86,1.326398,629900,29708
1268.31,1.327090,634345,29870
1271.75,1.324199,638574,30270
1276.33,1.329826,642499,30064
1279.76,1.326981,645905,30422
1283.19,1.329164,648307,30382
1286.61,1.329638,650446,30449
1290.03,1.331091,652132,30426
1293.44,1.336243,653907,30149
1296.85,1.327483,655963,30860
1301.39,1.331040,657349,30673
1304.8,1.326839,657558,30981
1308.19,1.335521,658515,30412
1311.58,1.335255,658804,30444
1314.97,1.329187,659011,30882
1318.36,1.328180,658272,30919
1321.73,1.328802,658022,30863
1326.23,1.331710,657870,30650
1329.6,1.336268,656482,30266
1332.97,1.336157,654926,30202
1336.33,1.334025,653727,30295
1339.69,1.331177,652497,30437
1343.04,1.337199,649913,29899
1346.39,1.334161,647671,30005
1349.73,1.332463,645338,30014
1354.18,1.331436,641175,29891
1357.52,1.330103,638376,29852
1360.85,1.333193,635805,29521
1364.17,1.331777,633413,29506
1367.49,1.335886,631026,29118
1370.81,1.335536,628050,29004
1374.12,1.327615,625034,29396
1378.54,1.329287,620272,29060
1381.84,1.328651,616892,28944
1385.14,1.325766,613613,28982
1388.43,1.334107,611526,28334
1391.72,1.332055,610663,28428
1395.01,1.330494,610634,28529
1398.29,1.319893,611700,29285
1402.66,1.333710,614051,28477
1405.93,1.332418,616268,28665
1409.2,1.334235,617795,28616
1412.46,1.330628,618872,28905
1415.72,1.335973,619795,28594
1418.98,1.333542,620495,28787
1422.23,1.336195,621087,28639
1426.56,1.334761,621375,28747
1429.8,1.339745,621616,28430
1433.04,1.334850,622129,28776
1436.27,1.335759,621526,28688
1439.5,1.331012,621113,28984
1442.72,1.337917,620921,28518
1445.94,1.336017,620270,28613
1450.23,1.336793,618860,28497
1453.44,1.337794,617697,28378
1456.64,1.339780,616264,28183
1459.85,1.344275,614413,27809
1463.04,1.336936,612307,28186
1466.24,1.335104,610032,28200
1469.43,1.340752,607345,27713
1473.67,1.340874,603789,27543
1476.85,1.336349,601175,27711
1480.02,1.335947,597737,27578
1483.19,1.342660,594479,27007
1486.36,1.335118,591232,27330
1489.52,1.337150,587853,27047
1492.68,1.338072,583875,26807
1496.89,1.343541,578062,26208
1500.03,1.336623,574159,26449
1503.18,1.344809,570285,25780
1506.32,1.338336,565444,25945
1509.45,1.343148,560571,25438
1512.58,1.339401,555821,25441
1515.71,1.340165,550344,25146
1519.87,1.346526,543983,24494
1522.99,1.342002,538764,24513
1526.1,1.339474,533692,24424
1529.21,1.345593,527902,23821
1532.32,1.338325,521886,23947
1535.42,1.337789,515888,23701
1538.51,1.340464,509987,23286
1541.6,1.332325,503936,23445
1545.72,1.336783,494694,22780
1548.8,1.345623,488378,22036
1551.88,1.339133,481832,22068
1554.95,1.343136,474989,21555
1558.02,1.342657,467818,21253
1561.08,1.343259,460730,20902
1564.15,1.343119,454170,20611
1568.22,1.343371,444181,20146
1571.27,1.344774,436947,19754
1574.32,1.344768,429598,19422
1577.36,1.344478,422039,19093
1580.4,1.338983,414375,18985
1583.43,1.335440,406354,18770
1586.46,1.332362,398475,18537
1590.49,1.332635,388982,18084
1593.51,1.342170,380708,17315
1596.53,1.333345,372727,17300
1599.54,1.329394,365060,17099
1602.55,1.342689,357543,16242
1605.55,1.332561,349495,16251
1608.55,1.323435,341154,16200
1612.54,1.339512,330877,15141
1615.53,1.330010,322904,15103
1618.51,1.324033,315116,14943
1621.49,1.330109,307217,14366
1624.47,1.322737,299481,14244
1627.44,1.324288,292112,13844
1630.41,1.322395,284245,13530
1634.36,1.331651,274079,12771
1637.32,1.327143,266916,12567
1640.27,1.318632,259612,12465
1643.22,1.335595,251804,11627
1646.16,1.330647,244348,11412
1649.1,1.315626,236703,11444
1652.04,1.317381,228171,10987
1655.95,1.314187,215408,10449
1658.88,1.291011,204937,10486
1661.8,1.299853,193395,9696
1664.72,1.295479,179728,9102
1667.63,1.293250,163642,8330
1670.54,1.285038,146312,7590
1673.44,1.290512,128451,6580
1677.31,1.269164,105080,5654
1680.21,1.253449,88906,4960
1683.1,1.244621,75033,4272
1685.99,1.277995,63520,3349
1688.87,1.301143,53714,2685
1691.75,1.257724,45653,2522
1694.62,1.273273,39137,2086
1697.49,1.255144,33776,1877
1701.31,1.407682,28175,1102