Folder: textile_sorting_NIRSCAN_/ML/samples/unknown (part 36)

File: Column 1_078232_20241121_165158.csv
Method:,Column 1,,
Host Date-Time:,21/11/24 @ 16:51:58,,
Header Version:,1,,
System Temp (C):,34.2,,
Detector Temp (C):,31.42,,
Humidity (%):,3.23,,
Lamp PD:,3803,,
Shift Vector Coefficients:,-10.5391,0.0761263,-0.000134223,,
Pixel to Wavelength Coefficients:,1775.68,-0.916766,-0.000235065,,
Serial Number:,5510004,,
Scan Config Name:,Column 1,,
Scan Config Type:,Slew,,
Section 1,,
Start wavelength (nm):,900,,
End wavelength (nm):,1700,,
Pattern Pixel Width (nm):,   7.03,,,,
Exposure (ms):,  0.635,,,,
Digital Resolution:,228,,
Num Repeats:,6,,
PGA Gain:,64,,
Total Measurement Time in sec:,  2.728,,
Wavelength (nm),Absorbance (AU),Reference Signal (unitless),Sample Signal (unitless)
901.51,1.328652,108485,5090
905.376,1.295926,121306,6137
909.237,1.309303,131909,6471
913.095,1.323862,143299,6798
916.948,1.308627,156982,7713
922.079,1.312022,179937,8772
925.923,1.315172,200504,9704
929.762,1.324225,222660,10554
933.597,1.325678,244426,11547
937.427,1.309556,263972,12942
941.254,1.314274,281845,13669
945.076,1.329201,297271,13930
950.165,1.313828,315605,15322
953.978,1.311847,328029,15998
957.786,1.314885,340470,16489
961.59,1.307759,352317,17345
965.389,1.308993,363056,17823
969.185,1.315733,373162,18037
972.976,1.303502,382632,19023
976.763,1.304040,391202,19425
981.806,1.320302,400190,19141
985.583,1.316010,406088,19616
989.355,1.312577,410162,19970
993.124,1.318160,412868,19845
996.888,1.310080,414263,20286
1000.65,1.306940,415476,20493
1004.4,1.309068,415479,20393
1009.41,1.318348,414358,19908
1013.15,1.306622,412923,20382
1016.89,1.304342,411526,20420
1020.63,1.307475,409066,20152
1024.36,1.316259,406777,19638
1028.09,1.313588,404427,19645
1031.82,1.307004,401911,19821
1036.78,1.306261,398410,19682
1040.49,1.299918,396204,19861
1044.2,1.307641,394236,19414
1047.91,1.310575,392042,19176
1051.61,1.308903,389823,19141
1055.31,1.317020,388234,18710
1059,1.314179,387599,18802
1063.92,1.310325,386688,18925
1067.61,1.313888,386598,18766
1071.29,1.317618,387377,18643
1074.96,1.313153,388536,18892
1078.63,1.311921,389855,19010
1082.3,1.317888,391215,18816
1085.96,1.317227,393215,18941
1090.84,1.312299,396270,19306
1094.49,1.316823,398760,19226
1098.14,1.320372,400987,19176
1101.79,1.315985,403477,19491
1105.43,1.315995,406116,19618
1109.06,1.326860,407701,19208
1112.7,1.312539,409859,19957
1117.53,1.324271,412494,19550
1121.15,1.315427,414909,20069
1124.77,1.325078,416559,19706
1128.38,1.319116,418532,20073
1131.99,1.318929,419956,20150
1135.6,1.315967,421946,20384
1139.2,1.320712,423881,20255
1143.99,1.326280,426786,20134
1147.58,1.317170,428617,20649
1151.17,1.322957,431169,20497
1154.75,1.319297,433579,20786
1158.33,1.320664,436264,20849
1161.91,1.314726,439132,21275
1165.48,1.318384,442389,21253
1169.04,1.311754,446101,21761
1173.79,1.313003,451929,21982
1177.34,1.319518,456026,21851
1180.9,1.318478,461306,22157
1184.44,1.312583,467657,22769
1187.99,1.312006,473969,23107
1191.52,1.315024,479856,23232
1195.06,1.317829,487372,23444
1199.76,1.314372,497347,24115
1203.29,1.316949,504311,24308
1206.81,1.316594,511507,24675
1210.33,1.324562,519078,24585
1213.84,1.345824,527163,23775
1217.35,1.324762,534208,25290
1220.85,1.328881,540472,25345
1225.51,1.324666,549929,26040
1229.01,1.328612,556888,26131
1232.5,1.329540,562180,26323
1235.98,1.321136,567975,27114
1239.46,1.321318,574815,27429
1242.94,1.328311,582782,27365
1246.41,1.324919,591476,27991
1251.03,1.328480,604016,28351
1254.5,1.324903,612289,28977
1257.96,1.319271,619125,29683
1261.41,1.326645,624551,29439
1264.86,1.327144,629900,29657
1268.31,1.327512,634345,29841
1271.75,1.326731,638574,30094
1276.33,1.327477,642499,30227
1279.76,1.326952,645905,30424
1283.19,1.330209,648307,30309
1286.61,1.329681,650446,30446
1290.03,1.327919,652132,30649
1293.44,1.332228,653907,30429
1296.85,1.332950,655963,30474
1301.39,1.328372,657349,30862
1304.8,1.326530,657558,31003
1308.19,1.329437,658515,30841
1311.58,1.331335,658804,30720
1314.97,1.332944,659011,30616
1318.36,1.333337,658272,30554
1321.73,1.335896,658022,30363
1326.23,1.332461,657870,30597
1329.6,1.325693,656482,31012
1332.97,1.331835,654926,30504
1336.33,1.331467,653727,30474
1339.69,1.328616,652497,30617
1343.04,1.330225,649913,30383
1346.39,1.336148,647671,29868
1349.73,1.333289,645338,29957
1354.18,1.329262,641175,30041
1357.52,1.327478,638376,30033
1360.85,1.329925,635805,29744
1364.17,1.333162,633413,29412
1367.49,1.330932,631026,29452
1370.81,1.336406,628050,28946
1374.12,1.326833,625034,29449
1378.54,1.332557,620272,28842
1381.84,1.327512,616892,29020
1385.14,1.326246,613613,28950
1388.43,1.328200,611526,28722
1391.72,1.330363,610663,28539
1395.01,1.325801,610634,28839
1398.29,1.324170,611700,28998
1402.66,1.323939,614051,29125
1405.93,1.334910,616268,28501
1409.2,1.328357,617795,29006
1412.46,1.328694,618872,29034
1415.72,1.329072,619795,29052
1418.98,1.340277,620495,28344
1422.23,1.334047,621087,28781
1426.56,1.334218,621375,28783
1429.8,1.332609,621616,28901
1433.04,1.331992,622129,28966
1436.27,1.335880,621526,28680
1439.5,1.336380,621113,28628
1442.72,1.333267,620921,28825
1445.94,1.328568,620270,29108
1450.23,1.332260,618860,28796
1453.44,1.331881,617697,28767
1456.64,1.336464,616264,28399
1459.85,1.343635,614413,27850
1463.04,1.337475,612307,28151
1466.24,1.334227,610032,28257
1469.43,1.334806,607345,28095
1473.67,1.331530,603789,28142
1476.85,1.327998,601175,28249
1480.02,1.337272,597737,27494
1483.19,1.337354,594479,27339
1486.36,1.337988,591232,27150
1489.52,1.337825,587853,27005
1492.68,1.340199,583875,26676
1496.89,1.337517,578062,26574
1500.03,1.334837,574159,26558
1503.18,1.348803,570285,25544
1506.32,1.345135,565444,25542
1509.45,1.332240,560571,26085
1512.58,1.340118,555821,25399
1515.71,1.337428,550344,25305
1519.87,1.339892,543983,24871
1522.99,1.340322,538764,24608
1526.1,1.334418,533692,24710
1529.21,1.339816,527902,24140
1532.32,1.335595,521886,24098
1535.42,1.332779,515888,23976
1538.51,1.334206,509987,23624
1541.6,1.334665,503936,23319
1545.72,1.334027,494694,22925
1548.8,1.337192,488378,22468
1551.88,1.337404,481832,22156
1554.95,1.338725,474989,21775
1558.02,1.340923,467818,21338
1561.08,1.339844,460730,21067
1564.15,1.336345,454170,20935
1568.22,1.336591,444181,20463
1571.27,1.337276,436947,20098
1574.32,1.335761,429598,19829
1577.36,1.330358,422039,19724
1580.4,1.338457,414375,19008
1583.43,1.335255,406354,18778
1586.46,1.340067,398475,18211
1590.49,1.328857,388982,18242
1593.51,1.332030,380708,17724
1596.53,1.329247,372727,17464
1599.54,1.327518,365060,17173
1602.55,1.328278,357543,16790
1605.55,1.325773,349495,16507
1608.55,1.330816,341154,15927
1612.54,1.331751,330877,15414
1615.53,1.330010,322904,15103
1618.51,1.333464,315116,14622
1621.49,1.310515,307217,15029
1624.47,1.332699,299481,13921
1627.44,1.322160,292112,13912
1630.41,1.312714,284245,13835
1634.36,1.313111,274079,13328
1637.32,1.322332,266916,12707
1640.27,1.315024,259612,12569
1643.22,1.316308,251804,12155
1646.16,1.310677,244348,11949
1649.1,1.310795,236703,11572
1652.04,1.323071,228171,10844
1655.95,1.308530,215408,10586
1658.88,1.329078,204937,9606
1661.8,1.269537,193395,10397
1664.72,1.268830,179728,9678
1667.63,1.272383,163642,8740
1670.54,1.264749,146312,7953
1673.44,1.245593,128451,7297
1677.31,1.207272,105080,6520
1680.21,1.178374,88906,5896
1683.1,1.226502,75033,4454
1685.99,1.185281,63520,4146
1688.87,1.275243,53714,2850
1691.75,1.240837,45653,2622
1694.62,1.228600,39137,2312
1697.49,1.217703,33776,2046
1701.31,1.160944,28175,1945

File: Column 1_078236_20241121_165210.csv
Method:,Column 1,,
Host Date-Time:,21/11/24 @ 16:52:10,,
Header Version:,1,,
System Temp (C):,34.18,,
Detector Temp (C):,31.48,,
Humidity (%):,2.89,,
Lamp PD:,3803,,
Shift Vector Coefficients:,-10.5391,0.0761263,-0.000134223,,
Pixel to Wavelength Coefficients:,1775.68,-0.916766,-0.000235065,,
Serial Number:,5510004,,
Scan Config Name:,Column 1,,
Scan Config Type:,Slew,,
Section 1,,
Start wavelength (nm):,900,,
End wavelength (nm):,1700,,
Pattern Pixel Width (nm):,   7.03,,,,
Exposure (ms):,  0.635,,,,
Digital Resolution:,228,,
Num Repeats:,6,,
PGA Gain:,64,,
Total Measurement Time in sec:,  2.728,,
Wavelength (nm),Absorbance (AU),Reference Signal (unitless),Sample Signal (unitless)
901.51,1.326100,108485,5120
905.376,1.320454,121306,5800
909.237,1.324951,131909,6242
913.095,1.314571,143299,6945
916.948,1.325680,156982,7416
922.079,1.317904,179937,8654
925.923,1.312095,200504,9773
929.762,1.327447,222660,10476
933.597,1.313733,244426,11869
937.427,1.318644,263972,12674
941.254,1.320868,281845,13463
945.076,1.308532,297271,14609
950.165,1.319133,315605,15136
953.978,1.314187,328029,15912
957.786,1.305221,340470,16860
961.59,1.301372,352317,17602
965.389,1.306418,363056,17929
969.185,1.302384,373162,18600
972.976,1.318294,382632,18386
976.763,1.312096,391202,19068
981.806,1.321597,400190,19084
985.583,1.300397,406088,20334
989.355,1.307755,410162,20193
993.124,1.317373,412868,19881
996.888,1.300824,414263,20723
1000.65,1.308278,415476,20430
1004.4,1.299735,415479,20836
1009.41,1.312670,414358,20170
1013.15,1.308566,412923,20291
1016.89,1.306431,411526,20322
1020.63,1.309701,409066,20049
1024.36,1.313525,406777,19762
1028.09,1.296869,404427,20416
1031.82,1.305451,401911,19892
1036.78,1.314301,398410,19321
1040.49,1.301802,396204,19775
1044.2,1.310469,394236,19288
1047.91,1.302208,392042,19549
1051.61,1.309880,389823,19098
1055.31,1.310180,388234,19007
1059,1.319267,387599,18583
1063.92,1.313226,386688,18799
1067.61,1.312040,386598,18846
1071.29,1.315990,387377,18713
1074.96,1.313061,388536,18896
1078.63,1.310735,389855,19062
1082.3,1.311883,391215,19078
1085.96,1.320010,393215,18820
1090.84,1.312839,396270,19282
1094.49,1.315447,398760,19287
1098.14,1.315552,400987,19390
1101.79,1.318308,403477,19387
1105.43,1.325055,406116,19213
1109.06,1.322025,407701,19423
1112.7,1.312496,409859,19959
1117.53,1.319675,412494,19758
1121.15,1.322606,414909,19740
1124.77,1.315014,416559,20168
1128.38,1.321633,418532,19957
1131.99,1.317637,419956,20210
1135.6,1.314457,421946,20455
1139.2,1.315681,423881,20491
1143.99,1.314723,426786,20677
1147.58,1.308694,428617,21056
1151.17,1.318950,431169,20687
1154.75,1.321875,433579,20663
1158.33,1.314152,436264,21164
1161.91,1.318848,439132,21074
1165.48,1.310046,442389,21665
1169.04,1.315382,446101,21580
1173.79,1.316176,451929,21822
1177.34,1.316567,456026,22000
1180.9,1.317343,461306,22215
1184.44,1.318363,467657,22468
1187.99,1.317054,473969,22840
1191.52,1.318063,479856,23070
1195.06,1.319332,487372,23363
1199.76,1.322186,497347,23685
1203.29,1.327840,504311,23706
1206.81,1.320928,511507,24430
1210.33,1.316876,519078,25024
1213.84,1.321044,527163,25171
1217.35,1.324847,534208,25285
1220.85,1.321238,540472,25795
1225.51,1.326303,549929,25942
1229.01,1.325333,556888,26329
1232.5,1.319091,562180,26964
1235.98,1.328713,567975,26645
1239.46,1.321667,574815,27407
1242.94,1.323105,582782,27695
1246.41,1.327564,591476,27821
1251.03,1.327684,604016,28403
1254.5,1.328077,612289,28766
1257.96,1.332914,619125,28765
1261.41,1.326571,624551,29444
1264.86,1.324793,629900,29818
1268.31,1.327047,634345,29873
1271.75,1.337722,638574,29342
1276.33,1.325356,642499,30375
1279.76,1.326239,645905,30474
1283.19,1.329150,648307,30383
1286.61,1.325974,650446,30707
1290.03,1.330549,652132,30464
1293.44,1.326120,653907,30860
1296.85,1.331541,655963,30573
1301.39,1.332756,657349,30552
1304.8,1.327498,657558,30934
1308.19,1.327442,658515,30983
1311.58,1.330177,658804,30802
1314.97,1.329863,659011,30834
1318.36,1.329390,658272,30833
1321.73,1.333869,658022,30505
1326.23,1.324139,657870,31189
1329.6,1.331189,656482,30622
1332.97,1.335194,654926,30269
1336.33,1.328131,653727,30709
1339.69,1.333595,652497,30268
1343.04,1.328570,649913,30499
1346.39,1.330055,647671,30290
1349.73,1.331250,645338,30098
1354.18,1.329826,641175,30002
1357.52,1.335962,638376,29452
1360.85,1.334106,635805,29459
1364.17,1.326597,633413,29860
1367.49,1.325685,631026,29810
1370.81,1.336946,628050,28910
1374.12,1.327571,625034,29399
1378.54,1.331234,620272,28930
1381.84,1.331420,616892,28760
1385.14,1.331073,613613,28630
1388.43,1.325562,611526,28897
1391.72,1.322446,610663,29064
1395.01,1.325982,610634,28827
1398.29,1.324036,611700,29007
1402.66,1.329975,614051,28723
1405.93,1.323510,616268,29259
1409.2,1.327938,617795,29034
1412.46,1.325297,618872,29262
1415.72,1.331290,619795,28904
1418.98,1.333074,620495,28818
1422.23,1.330201,621087,29037
1426.56,1.330148,621375,29054
1429.8,1.334281,621616,28790
1433.04,1.332307,622129,28945
1436.27,1.329999,621526,29071
1439.5,1.334216,621113,28771
1442.72,1.330204,620921,29029
1445.94,1.334003,620270,28746
1450.23,1.331793,618860,28827
1453.44,1.342069,617697,28100
1456.64,1.341447,616264,28075
1459.85,1.331018,614413,28671
1463.04,1.342394,612307,27834
1466.24,1.333367,610032,28313
1469.43,1.331189,607345,28330
1473.67,1.333107,603789,28040
1476.85,1.330820,601175,28066
1480.02,1.336483,597737,27544
1483.19,1.342050,594479,27045
1486.36,1.328526,591232,27748
1489.52,1.342514,587853,26715
1492.68,1.332966,583875,27124
1496.89,1.332497,578062,26883
1500.03,1.338367,574159,26343
1503.18,1.338703,570285,26145
1506.32,1.335732,565444,26101
1509.45,1.338900,560571,25688
1512.58,1.337068,555821,25578
1515.71,1.333107,550344,25558
1519.87,1.345870,543983,24531
1522.99,1.335025,538764,24910
1526.1,1.340186,533692,24384
1529.21,1.344810,527902,23864
1532.32,1.332685,521886,24260
1535.42,1.334867,515888,23861
1538.51,1.337620,509987,23439
1541.6,1.341668,503936,22946
1545.72,1.332911,494694,22984
1548.8,1.336130,488378,22523
1551.88,1.330868,481832,22492
1554.95,1.330937,474989,22169
1558.02,1.343004,467818,21236
1561.08,1.333683,460730,21368
1564.15,1.334544,454170,21022
1568.22,1.335361,444181,20521
1571.27,1.337946,436947,20067
1574.32,1.337341,429598,19757
1577.36,1.330644,422039,19711
1580.4,1.338800,414375,18993
1583.43,1.322089,406354,19356
1586.46,1.331519,398475,18573
1590.49,1.336180,388982,17937
1593.51,1.328054,380708,17887
1596.53,1.319874,372727,17845
1599.54,1.327518,365060,17173
1602.55,1.334058,357543,16568
1605.55,1.332614,349495,16249
1608.55,1.323650,341154,16192
1612.54,1.332456,330877,15389
1615.53,1.324467,322904,15297
1618.51,1.313580,315116,15307
1621.49,1.318359,307217,14760
1624.47,1.319033,299481,14366
1627.44,1.315899,292112,14114
1630.41,1.324067,284245,13478
1634.36,1.295831,274079,13869
1637.32,1.321001,266916,12746
1640.27,1.324067,259612,12310
1643.22,1.304709,251804,12484
1646.16,1.313302,244348,11877
1649.1,1.317032,236703,11407
1652.04,1.304376,228171,11321
1655.95,1.298313,215408,10838
1658.88,1.303446,204937,10190
1661.8,1.326975,193395,9109
1664.72,1.291111,179728,9194
1667.63,1.270598,163642,8776
1670.54,1.257707,146312,8083
1673.44,1.243574,128451,7331
1677.31,1.261550,105080,5754
1680.21,1.237883,88906,5141
1683.1,1.175155,75033,5013
1685.99,1.229227,63520,3747
1688.87,1.178760,53714,3559
1691.75,1.275475,45653,2421
1694.62,1.163805,39137,2684
1697.49,1.193552,33776,2163
1701.31,1.132218,28175,2078

File: Column 1_078237_20241121_165213.csv
Method:,Column 1,,
Host Date-Time:,21/11/24 @ 16:52:13,,
Header Version:,1,,
System Temp (C):,34.2,,
Detector Temp (C):,31.53,,
Humidity (%):,2.84,,
Lamp PD:,3803,,
Shift Vector Coefficients:,-10.5391,0.0761263,-0.000134223,,
Pixel to Wavelength Coefficients:,1775.68,-0.916766,-0.000235065,,
Serial Number:,5510004,,
Scan Config Name:,Column 1,,
Scan Config Type:,Slew,,
Section 1,,
Start wavelength (nm):,900,,
End wavelength (nm):,1700,,
Pattern Pixel Width (nm):,   7.03,,,,
Exposure (ms):,  0.635,,,,
Digital Resolution:,228,,
Num Repeats:,6,,
PGA Gain:,64,,
Total Measurement Time in sec:,  2.726,,
Wavelength (nm),Absorbance (AU),Reference Signal (unitless),Sample Signal (unitless)
901.51,1.312078,108485,5288
905.376,1.318065,121306,5832
909.237,1.325159,131909,6239
913.095,1.321695,143299,6832
916.948,1.305038,156982,7777
922.079,1.316001,179937,8692
925.923,1.317191,200504,9659
929.762,1.307000,222660,10981
933.597,1.323502,244426,11605
937.427,1.326144,263972,12457
941.254,1.318199,281845,13546
945.076,1.310379,297271,14547
950.165,1.311849,315605,15392
953.978,1.313315,328029,15944
957.786,1.310952,340470,16639
961.59,1.303821,352317,17503
965.389,1.316316,363056,17525
969.185,1.319336,373162,17888
972.976,1.303502,382632,19023
976.763,1.304555,391202,19402
981.806,1.303108,400190,19914
985.583,1.304065,406088,20163
989.355,1.307604,410162,20200
993.124,1.302661,412868,20566
996.888,1.304380,414263,20554
1000.65,1.308618,415476,20414
1004.4,1.311567,415479,20276
1009.41,1.309687,414358,20309
1013.15,1.302635,412923,20570
1016.89,1.304512,411526,20412
1020.63,1.308576,409066,20101
1024.36,1.317699,406777,19573
1028.09,1.311735,404427,19729
1031.82,1.304405,401911,19940
1036.78,1.305688,398410,19708
1040.49,1.310924,396204,19364
1044.2,1.305232,394236,19522
1047.91,1.313164,392042,19062
1051.61,1.310062,389823,19090
1055.31,1.303199,388234,19315
1059,1.313740,387599,18821
1063.92,1.312118,386688,18847
1067.61,1.318074,386598,18586
1071.29,1.315944,387377,18715
1074.96,1.311730,388536,18954
1078.63,1.314648,389855,18891
1082.3,1.314142,391215,18979
1085.96,1.311080,393215,19211
1090.84,1.307356,396270,19527
1094.49,1.318180,398760,19166
1098.14,1.323463,400987,19040
1101.79,1.313120,403477,19620
1105.43,1.325462,406116,19195
1109.06,1.310399,407701,19950
1112.7,1.324072,409859,19434
1117.53,1.324049,412494,19560
1121.15,1.327985,414909,19497
1124.77,1.323582,416559,19774
1128.38,1.315604,418532,20236
1131.99,1.315986,419956,20287
1135.6,1.328438,421946,19807
1139.2,1.317656,423881,20398
1143.99,1.323871,426786,20246
1147.58,1.325709,428617,20247
1151.17,1.316459,431169,20806
1154.75,1.317608,433579,20867
1158.33,1.310983,436264,21319
1161.91,1.322407,439132,20902
1165.48,1.319796,442389,21184
1169.04,1.314196,446101,21639
1173.79,1.324413,451929,21412
1177.34,1.306942,456026,22493
1180.9,1.317284,461306,22218
1184.44,1.321584,467657,22302
1187.99,1.319935,473969,22689
1191.52,1.313457,479856,23316
1195.06,1.309445,487372,23901
1199.76,1.323122,497347,23634
1203.29,1.323429,504311,23948
1206.81,1.324158,511507,24249
1210.33,1.319086,519078,24897
1213.84,1.323085,527163,25053
1217.35,1.317625,534208,25709
1220.85,1.319708,540472,25886
1225.51,1.322918,549929,26145
1229.01,1.330628,556888,26010
1232.5,1.325876,562180,26546
1235.98,1.325175,567975,26863
1239.46,1.320195,574815,27500
1242.94,1.324204,582782,27625
1246.41,1.326271,591476,27904
1251.03,1.315829,604016,29189
1254.5,1.325248,612289,28954
1257.96,1.321118,619125,29557
1261.41,1.324643,624551,29575
1264.86,1.323165,629900,29930
1268.31,1.328620,634345,29765
1271.75,1.328524,638574,29970
1276.33,1.328960,642499,30124
1279.76,1.324774,645905,30577
1283.19,1.326017,648307,30603
1286.61,1.332687,650446,30236
1290.03,1.324012,652132,30926
1293.44,1.332471,653907,30412
1296.85,1.329713,655963,30702
1301.39,1.327177,657349,30947
1304.8,1.322834,657558,31268
1308.19,1.326518,658515,31049
1311.58,1.331590,658804,30702
1314.97,1.330568,659011,30784
1318.36,1.335961,658272,30370
1321.73,1.333499,658022,30531
1326.23,1.334068,657870,30484
1329.6,1.329689,656482,30728
1332.97,1.328743,654926,30722
1336.33,1.330912,653727,30513
1339.69,1.334399,652497,30212
1343.04,1.330096,649913,30392
1346.39,1.333481,647671,30052
1349.73,1.332160,645338,30035
1354.18,1.329306,641175,30038
1357.52,1.326034,638376,30133
1360.85,1.325133,635805,30074
1364.17,1.328185,633413,29751
1367.49,1.322405,631026,30036
1370.81,1.329455,628050,29413
1374.12,1.329466,625034,29271
1378.54,1.328361,620272,29122
1381.84,1.326899,616892,29061
1385.14,1.329166,613613,28756
1388.43,1.332653,611526,28429
1391.72,1.324363,610663,28936
1395.01,1.326524,610634,28791
1398.29,1.323093,611700,29070
1402.66,1.327262,614051,28903
1405.93,1.330121,616268,28817
1409.2,1.329601,617795,28923
1412.46,1.329967,618872,28949
1415.72,1.334200,619795,28711
1418.98,1.322769,620495,29510
1422.23,1.337805,621087,28533
1426.56,1.329476,621375,29099
1429.8,1.323862,621616,29489
1433.04,1.335469,622129,28735
1436.27,1.334731,621526,28756
1439.5,1.337215,621113,28573
1442.72,1.336261,620921,28627
1445.94,1.331157,620270,28935
1450.23,1.332668,618860,28769
1453.44,1.340480,617697,28203
1456.64,1.336816,616264,28376
1459.85,1.329702,614413,28758
1463.04,1.331363,612307,28550
1466.24,1.334011,610032,28271
1469.43,1.334343,607345,28125
1473.67,1.340354,603789,27576
1476.85,1.330991,601175,28055
1480.02,1.331997,597737,27830
1483.19,1.340111,594479,27166
1486.36,1.338532,591232,27116
1489.52,1.333408,587853,27281
1492.68,1.335085,583875,26992
1496.89,1.331609,578062,26938
1500.03,1.334118,574159,26602
1503.18,1.332551,570285,26518
1506.32,1.341680,565444,25746
1509.45,1.338157,560571,25732
1512.58,1.336559,555821,25608
1515.71,1.341307,550344,25080
1519.87,1.334668,543983,25172
1522.99,1.336125,538764,24847
1526.1,1.339492,533692,24423
1529.21,1.344974,527902,23855
1532.32,1.336027,521886,24074
1535.42,1.334903,515888,23859
1538.51,1.332316,509987,23727
1541.6,1.332566,503936,23432
1545.72,1.340651,494694,22578
1548.8,1.336883,488378,22484
1551.88,1.327655,481832,22659
1554.95,1.333787,474989,22024
1558.02,1.334739,467818,21644
1561.08,1.329033,460730,21598
1564.15,1.336221,454170,20941
1568.22,1.339529,444181,20325
1571.27,1.324228,436947,20711
1574.32,1.335389,429598,19846
1577.36,1.328929,422039,19789
1580.4,1.335384,414375,19143
1583.43,1.334239,406354,18822
1586.46,1.331519,398475,18573
1590.49,1.324734,388982,18416
1593.51,1.328467,380708,17870
1596.53,1.333822,372727,17281
1599.54,1.326937,365060,17196
1602.55,1.320104,357543,17109
1605.55,1.323516,349495,16593
1608.55,1.314914,341154,16521
1612.54,1.324570,330877,15671
1615.53,1.318854,322904,15496
1618.51,1.320732,315116,15057
1621.49,1.324165,307217,14564
1624.47,1.323409,299481,14222
1627.44,1.336472,292112,13461
1630.41,1.314633,284245,13774
1634.36,1.323565,274079,13011
1637.32,1.310132,266916,13069
1640.27,1.306335,259612,12823
1643.22,1.307116,251804,12415
1646.16,1.317269,244348,11769
1649.1,1.299863,236703,11867
1652.04,1.308268,228171,11220
1655.95,1.307096,215408,10621
1658.88,1.307557,204937,10094
1661.8,1.301738,193395,9654
1664.72,1.289744,179728,9223
1667.63,1.267541,163642,8838
1670.54,1.245940,146312,8305
1673.44,1.231539,128451,7537
1677.31,1.215815,105080,6393
1680.21,1.187229,88906,5777
1683.1,1.242289,75033,4295
1685.99,1.241213,63520,3645
1688.87,1.229165,53714,3169
1691.75,1.156087,45653,3187
1694.62,1.131089,39137,2894
1697.49,1.167447,33776,2297
1701.31,1.233698,28175,1645