Folder: textile_sorting_NIRSCAN_/ML/samples/unknown (part 60)

File: Column 1_078407_20241121_170110.csv
Method:,Column 1,,
Host Date-Time:,21/11/24 @ 17:1:10,,
Header Version:,1,,
System Temp (C):,34.67,,
Detector Temp (C):,33.75,,
Humidity (%):,2.25,,
Lamp PD:,3802,,
Shift Vector Coefficients:,-10.5391,0.0761263,-0.000134223,,
Pixel to Wavelength Coefficients:,1775.68,-0.916766,-0.000235065,,
Serial Number:,5510004,,
Scan Config Name:,Column 1,,
Scan Config Type:,Slew,,
Section 1,,
Start wavelength (nm):,900,,
End wavelength (nm):,1700,,
Pattern Pixel Width (nm):,   7.03,,,,
Exposure (ms):,  0.635,,,,
Digital Resolution:,228,,
Num Repeats:,6,,
PGA Gain:,64,,
Total Measurement Time in sec:,  2.730,,
Wavelength (nm),Absorbance (AU),Reference Signal (unitless),Sample Signal (unitless)
901.51,1.292095,108485,5537
905.376,1.338964,121306,5558
909.237,1.316340,131909,6367
913.095,1.307685,143299,7056
916.948,1.295537,156982,7949
922.079,1.324528,179937,8523
925.923,1.307806,200504,9870
929.762,1.309817,222660,10910
933.597,1.314612,244426,11845
937.427,1.311946,263972,12871
941.254,1.310793,281845,13779
945.076,1.315484,297271,14377
950.165,1.294671,315605,16013
953.978,1.315938,328029,15848
957.786,1.308272,340470,16742
961.59,1.304591,352317,17472
965.389,1.301145,363056,18148
969.185,1.313404,373162,18134
972.976,1.302636,382632,19061
976.763,1.298288,391202,19684
981.806,1.306985,400190,19737
985.583,1.299501,406088,20376
989.355,1.299763,410162,20568
993.124,1.306351,412868,20392
996.888,1.309502,414263,20313
1000.65,1.308894,415476,20401
1004.4,1.306435,415479,20517
1009.41,1.302687,414358,20639
1013.15,1.304985,412923,20459
1016.89,1.304256,411526,20424
1020.63,1.303442,409066,20340
1024.36,1.303082,406777,20243
1028.09,1.309080,404427,19850
1031.82,1.305211,401911,19903
1036.78,1.297242,398410,20095
1040.49,1.295523,396204,20063
1044.2,1.304165,394236,19570
1047.91,1.305732,392042,19391
1051.61,1.309607,389823,19110
1055.31,1.309632,388234,19031
1059,1.310292,387599,18971
1063.92,1.302028,386688,19290
1067.61,1.312594,386598,18822
1071.29,1.320610,387377,18515
1074.96,1.312212,388536,18933
1078.63,1.312882,389855,18968
1082.3,1.314852,391215,18948
1085.96,1.316952,393215,18953
1090.84,1.306889,396270,19548
1094.49,1.318271,398760,19162
1098.14,1.315105,400987,19410
1101.79,1.312412,403477,19652
1105.43,1.310627,406116,19862
1109.06,1.311467,407701,19901
1112.7,1.310758,409859,20039
1117.53,1.311768,412494,20121
1121.15,1.308429,414909,20395
1124.77,1.319581,416559,19957
1128.38,1.318209,418532,20115
1131.99,1.323696,419956,19930
1135.6,1.326753,421946,19884
1139.2,1.322452,423881,20174
1143.99,1.309524,426786,20926
1147.58,1.311778,428617,20907
1151.17,1.313816,431169,20933
1154.75,1.313074,433579,21086
1158.33,1.311207,436264,21308
1161.91,1.308624,439132,21576
1165.48,1.318895,442389,21228
1169.04,1.321931,446101,21257
1173.79,1.323744,451929,21445
1177.34,1.314028,456026,22129
1180.9,1.315023,461306,22334
1184.44,1.315454,467657,22619
1187.99,1.314532,473969,22973
1191.52,1.317461,479856,23102
1195.06,1.317681,487372,23452
1199.76,1.319426,497347,23836
1203.29,1.320916,504311,24087
1206.81,1.327538,511507,24061
1210.33,1.323028,519078,24672
1213.84,1.325101,527163,24937
1217.35,1.319606,534208,25592
1220.85,1.317332,540472,26028
1225.51,1.316668,549929,26524
1229.01,1.316452,556888,26873
1232.5,1.319413,562180,26944
1235.98,1.316832,567975,27384
1239.46,1.318414,574815,27613
1242.94,1.318333,582782,28001
1246.41,1.327736,591476,27810
1251.03,1.322940,604016,28715
1254.5,1.321410,612289,29211
1257.96,1.317897,619125,29777
1261.41,1.319679,624551,29915
1264.86,1.328920,629900,29536
1268.31,1.325407,634345,29986
1271.75,1.326775,638574,30091
1276.33,1.321130,642499,30672
1279.76,1.324674,645905,30584
1283.19,1.324359,648307,30720
1286.61,1.329040,650446,30491
1290.03,1.329324,652132,30550
1293.44,1.329568,653907,30616
1296.85,1.326120,655963,30957
1301.39,1.329979,657349,30748
1304.8,1.325607,657558,31069
1308.19,1.326770,658515,31031
1311.58,1.327310,658804,31006
1314.97,1.324126,659011,31244
1318.36,1.334020,658272,30506
1321.73,1.332775,658022,30582
1326.23,1.328857,657870,30852
1329.6,1.328686,656482,30799
1332.97,1.322358,654926,31177
1336.33,1.329349,653727,30623
1339.69,1.333810,652497,30253
1343.04,1.330396,649913,30371
1346.39,1.326116,647671,30566
1349.73,1.328072,645338,30319
1354.18,1.322677,641175,30500
1357.52,1.325012,638376,30204
1360.85,1.333796,635805,29480
1364.17,1.323236,633413,30092
1367.49,1.328316,631026,29630
1370.81,1.327143,628050,29570
1374.12,1.328473,625034,29338
1378.54,1.329048,620272,29076
1381.84,1.323119,616892,29315
1385.14,1.326877,613613,28908
1388.43,1.329639,611526,28627
1391.72,1.324183,610663,28948
1395.01,1.321560,610634,29122
1398.29,1.325100,611700,28936
1402.66,1.328149,614051,28844
1405.93,1.321526,616268,29393
1409.2,1.323310,617795,29345
1412.46,1.327514,618872,29113
1415.72,1.330285,619795,28971
1418.98,1.327103,620495,29217
1422.23,1.329707,621087,29070
1426.56,1.331151,621375,28987
1429.8,1.329988,621616,29076
1433.04,1.330495,622129,29066
1436.27,1.329835,621526,29082
1439.5,1.332634,621113,28876
1442.72,1.330055,620921,29039
1445.94,1.331022,620270,28944
1450.23,1.332924,618860,28752
1453.44,1.331609,617697,28785
1456.64,1.336066,616264,28425
1459.85,1.335127,614413,28401
1463.04,1.332734,612307,28460
1466.24,1.337002,610032,28077
1469.43,1.334636,607345,28106
1473.67,1.334519,603789,27949
1476.85,1.327214,601175,28300
1480.02,1.331030,597737,27892
1483.19,1.335278,594479,27470
1486.36,1.336391,591232,27250
1489.52,1.337021,587853,27055
1492.68,1.337877,583875,26819
1496.89,1.335122,578062,26721
1500.03,1.343608,574159,26027
1503.18,1.330574,570285,26639
1506.32,1.330687,565444,26406
1509.45,1.325647,560571,26484
1512.58,1.330781,555821,25951
1515.71,1.347656,550344,24716
1519.87,1.330017,543983,25443
1522.99,1.332764,538764,25040
1526.1,1.328760,533692,25034
1529.21,1.328329,527902,24787
1532.32,1.329866,521886,24418
1535.42,1.333831,515888,23918
1538.51,1.337546,509987,23443
1541.6,1.336700,503936,23210
1545.72,1.337145,494694,22761
1548.8,1.332138,488378,22731
1551.88,1.327578,481832,22663
1554.95,1.329822,474989,22226
1558.02,1.331143,467818,21824
1561.08,1.325568,460730,21771
1564.15,1.330637,454170,21212
1568.22,1.329434,444181,20803
1571.27,1.335314,436947,20189
1574.32,1.327324,429598,20218
1577.36,1.325062,422039,19966
1580.4,1.326091,414375,19557
1583.43,1.329945,406354,19009
1586.46,1.329396,398475,18664
1590.49,1.325962,388982,18364
1593.51,1.324259,380708,18044
1596.53,1.319048,372727,17879
1599.54,1.330131,365060,17070
1602.55,1.328122,357543,16796
1605.55,1.328730,349495,16395
1608.55,1.324724,341154,16152
1612.54,1.316879,330877,15951
1615.53,1.313201,322904,15699
1618.51,1.320242,315116,15074
1621.49,1.315047,307217,14873
1624.47,1.313417,299481,14553
1627.44,1.311430,292112,14260
1630.41,1.307596,284245,13999
1634.36,1.293084,274079,13957
1637.32,1.303766,266916,13262
1640.27,1.313472,259612,12614
1643.22,1.297704,251804,12687
1646.16,1.305690,244348,12087
1649.1,1.317223,236703,11402
1652.04,1.293765,228171,11601
1655.95,1.291751,215408,11003
1658.88,1.275071,204937,10878
1661.8,1.299360,193395,9707
1664.72,1.259859,179728,9880
1667.63,1.257294,163642,9049
1670.54,1.219319,146312,8830
1673.44,1.196090,128451,8178
1677.31,1.201187,105080,6612
1680.21,1.191991,88906,5714
1683.1,1.155590,75033,5244
1685.99,1.159557,63520,4399
1688.87,1.164240,53714,3680
1691.75,1.199474,45653,2884
1694.62,1.212919,39137,2397
1697.49,1.075902,33776,2836
1701.31,1.243038,28175,1610

File: Column 1_078408_20241121_170113.csv
Method:,Column 1,,
Host Date-Time:,21/11/24 @ 17:1:13,,
Header Version:,1,,
System Temp (C):,34.7,,
Detector Temp (C):,33.75,,
Humidity (%):,2.25,,
Lamp PD:,3801,,
Shift Vector Coefficients:,-10.5391,0.0761263,-0.000134223,,
Pixel to Wavelength Coefficients:,1775.68,-0.916766,-0.000235065,,
Serial Number:,5510004,,
Scan Config Name:,Column 1,,
Scan Config Type:,Slew,,
Section 1,,
Start wavelength (nm):,900,,
End wavelength (nm):,1700,,
Pattern Pixel Width (nm):,   7.03,,,,
Exposure (ms):,  0.635,,,,
Digital Resolution:,228,,
Num Repeats:,6,,
PGA Gain:,64,,
Total Measurement Time in sec:,  2.736,,
Wavelength (nm),Absorbance (AU),Reference Signal (unitless),Sample Signal (unitless)
901.51,1.330190,108485,5072
905.376,1.323384,121306,5761
909.237,1.317980,131909,6343
913.095,1.311207,143299,6999
916.948,1.307558,156982,7732
922.079,1.328778,179937,8440
925.923,1.318813,200504,9623
929.762,1.313455,222660,10819
933.597,1.313258,244426,11882
937.427,1.306613,263972,13030
941.254,1.327991,281845,13244
945.076,1.324149,297271,14093
950.165,1.302995,315605,15709
953.978,1.315554,328029,15862
957.786,1.315860,340470,16452
961.59,1.307885,352317,17340
965.389,1.313475,363056,17640
969.185,1.311015,373162,18234
972.976,1.309572,382632,18759
976.763,1.307564,391202,19268
981.806,1.307139,400190,19730
985.583,1.309483,406088,19913
989.355,1.303964,410162,20370
993.124,1.304693,412868,20470
996.888,1.300467,414263,20740
1000.65,1.304026,415476,20631
1004.4,1.312167,415479,20248
1009.41,1.308470,414358,20366
1013.15,1.300214,412923,20685
1016.89,1.302643,411526,20500
1020.63,1.305240,409066,20256
1024.36,1.313306,406777,19772
1028.09,1.309014,404427,19853
1031.82,1.304753,401911,19924
1036.78,1.315066,398410,19287
1040.49,1.301846,396204,19773
1044.2,1.313293,394236,19163
1047.91,1.304525,392042,19445
1051.61,1.308268,389823,19169
1055.31,1.309039,388234,19057
1059,1.307668,387599,19086
1063.92,1.309843,386688,18946
1067.61,1.312248,386598,18837
1071.29,1.307601,387377,19078
1074.96,1.311021,388536,18985
1078.63,1.315454,389855,18856
1082.3,1.313228,391215,19019
1085.96,1.318122,393215,18902
1090.84,1.306733,396270,19555
1094.49,1.314278,398760,19339
1098.14,1.320259,400987,19181
1101.79,1.315028,403477,19534
1105.43,1.317570,406116,19547
1109.06,1.312231,407701,19866
1112.7,1.317375,409859,19736
1117.53,1.314366,412494,20001
1121.15,1.315947,414909,20045
1124.77,1.318581,416559,20003
1128.38,1.313655,418532,20327
1131.99,1.313829,419956,20388
1135.6,1.320121,421946,20190
1139.2,1.317188,423881,20420
1143.99,1.321603,426786,20352
1147.58,1.326718,428617,20200
1151.17,1.317546,431169,20754
1154.75,1.320322,433579,20737
1158.33,1.322208,436264,20775
1161.91,1.311431,439132,21437
1165.48,1.317384,442389,21302
1169.04,1.315402,446101,21579
1173.79,1.316654,451929,21798
1177.34,1.313557,456026,22153
1180.9,1.319224,461306,22119
1184.44,1.316415,467657,22569
1187.99,1.322623,473969,22549
1191.52,1.317668,479856,23091
1195.06,1.327210,487372,22943
1199.76,1.316394,497347,24003
1203.29,1.322035,504311,24025
1206.81,1.318853,511507,24547
1210.33,1.332657,519078,24131
1213.84,1.321960,527163,25118
1217.35,1.325036,534208,25274
1220.85,1.322925,540472,25695
1225.51,1.319905,549929,26327
1229.01,1.321491,556888,26563
1232.5,1.318898,562180,26976
1235.98,1.323819,567975,26947
1239.46,1.313831,574815,27906
1242.94,1.322964,582782,27704
1246.41,1.321134,591476,28236
1251.03,1.317603,604016,29070
1254.5,1.319408,612289,29346
1257.96,1.321177,619125,29553
1261.41,1.320827,624551,29836
1264.86,1.320186,629900,30136
1268.31,1.323254,634345,30135
1271.75,1.327193,638574,30062
1276.33,1.326932,642499,30265
1279.76,1.325499,645905,30526
1283.19,1.328179,648307,30451
1286.61,1.334327,650446,30122
1290.03,1.323815,652132,30940
1293.44,1.329440,653907,30625
1296.85,1.328724,655963,30772
1301.39,1.327585,657349,30918
1304.8,1.334432,657558,30444
1308.19,1.328888,658515,30880
1311.58,1.333574,658804,30562
1314.97,1.326691,659011,31060
1318.36,1.328953,658272,30864
1321.73,1.328760,658022,30866
1326.23,1.334268,657870,30470
1329.6,1.331743,656482,30583
1332.97,1.329379,654926,30677
1336.33,1.328102,653727,30711
1339.69,1.328233,652497,30644
1343.04,1.330611,649913,30356
1346.39,1.330041,647671,30291
1349.73,1.326271,645338,30445
1354.18,1.327257,641175,30180
1357.52,1.328999,638376,29928
1360.85,1.326956,635805,29948
1364.17,1.326147,633413,29891
1367.49,1.330078,631026,29510
1370.81,1.331423,628050,29280
1374.12,1.328606,625034,29329
1378.54,1.331805,620272,28892
1381.84,1.326914,616892,29060
1385.14,1.321502,613613,29268
1388.43,1.330550,611526,28567
1391.72,1.329739,610663,28580
1395.01,1.326615,610634,28785
1398.29,1.324815,611700,28955
1402.66,1.330141,614051,28712
1405.93,1.327881,616268,28966
1409.2,1.318015,617795,29705
1412.46,1.329487,618872,28981
1415.72,1.327461,619795,29160
1418.98,1.332487,620495,28857
1422.23,1.330934,621087,28988
1426.56,1.325820,621375,29345
1429.8,1.329778,621616,29090
1433.04,1.332217,622129,28951
1436.27,1.332516,621526,28903
1439.5,1.334065,621113,28781
1442.72,1.330025,620921,29041
1445.94,1.335562,620270,28643
1450.23,1.330950,618860,28883
1453.44,1.336297,617697,28476
1456.64,1.333492,616264,28594
1459.85,1.330397,614413,28712
1463.04,1.335659,612307,28269
1466.24,1.337157,610032,28067
1469.43,1.329781,607345,28422
1473.67,1.339646,603789,27621
1476.85,1.333303,601175,27906
1480.02,1.333388,597737,27741
1483.19,1.335246,594479,27472
1486.36,1.339494,591232,27056
1489.52,1.337423,587853,27030
1492.68,1.338834,583875,26760
1496.89,1.338516,578062,26513
1500.03,1.335590,574159,26512
1503.18,1.339268,570285,26111
1506.32,1.341427,565444,25761
1509.45,1.339374,560571,25660
1512.58,1.339162,555821,25455
1515.71,1.336091,550344,25383
1519.87,1.337211,543983,25025
1522.99,1.337157,538764,24788
1526.1,1.339030,533692,24449
1529.21,1.330613,527902,24657
1532.32,1.325160,521886,24684
1535.42,1.332978,515888,23965
1538.51,1.338733,509987,23379
1541.6,1.332233,503936,23450
1545.72,1.337279,494694,22754
1548.8,1.327085,488378,22997
1551.88,1.331718,481832,22448
1554.95,1.331820,474989,22124
1558.02,1.330864,467818,21838
1561.08,1.332870,460730,21408
1564.15,1.332977,454170,21098
1568.22,1.329476,444181,20801
1571.27,1.328167,436947,20524
1574.32,1.331230,429598,20037
1577.36,1.333473,422039,19583
1580.4,1.329749,414375,19393
1583.43,1.322875,406354,19321
1586.46,1.331823,398475,18560
1590.49,1.328881,388982,18241
1593.51,1.323105,380708,18092
1596.53,1.333897,372727,17278
1599.54,1.330233,365060,17066
1602.55,1.328226,357543,16792
1605.55,1.332401,349495,16257
1608.55,1.330380,341154,15943
1612.54,1.327462,330877,15567
1615.53,1.328145,322904,15168
1618.51,1.318029,315116,15151
1621.49,1.325389,307217,14523
1624.47,1.319608,299481,14347
1627.44,1.318213,292112,14039
1630.41,1.315864,284245,13735
1634.36,1.316185,274079,13234
1637.32,1.325694,266916,12609
1640.27,1.307862,259612,12778
1643.22,1.321194,251804,12019
1646.16,1.299200,244348,12269
1649.1,1.307393,236703,11663
1652.04,1.302691,228171,11365
1655.95,1.299155,215408,10817
1658.88,1.287586,204937,10569
1661.8,1.286880,193395,9990
1664.72,1.283479,179728,9357
1667.63,1.246487,163642,9277
1670.54,1.243593,146312,8350
1673.44,1.202780,128451,8053
1677.31,1.200138,105080,6628
1680.21,1.190852,88906,5729
1683.1,1.203524,75033,4696
1685.99,1.196207,63520,4043
1688.87,1.178882,53714,3558
1691.75,1.173464,45653,3062
1694.62,1.172137,39137,2633
1697.49,1.223472,33776,2019
1701.31,1.168831,28175,1910

File: Column 1_078411_20241121_170121.csv
Method:,Column 1,,
Host Date-Time:,21/11/24 @ 17:1:21,,
Header Version:,1,,
System Temp (C):,34.77,,
Detector Temp (C):,33.73,,
Humidity (%):,2.16,,
Lamp PD:,3801,,
Shift Vector Coefficients:,-10.5391,0.0761263,-0.000134223,,
Pixel to Wavelength Coefficients:,1775.68,-0.916766,-0.000235065,,
Serial Number:,5510004,,
Scan Config Name:,Column 1,,
Scan Config Type:,Slew,,
Section 1,,
Start wavelength (nm):,900,,
End wavelength (nm):,1700,,
Pattern Pixel Width (nm):,   7.03,,,,
Exposure (ms):,  0.635,,,,
Digital Resolution:,228,,
Num Repeats:,6,,
PGA Gain:,64,,
Total Measurement Time in sec:,  2.726,,
Wavelength (nm),Absorbance (AU),Reference Signal (unitless),Sample Signal (unitless)
901.51,1.305395,108485,5370
905.376,1.315836,121306,5862
909.237,1.318665,131909,6333
913.095,1.305597,143299,7090
916.948,1.320673,156982,7502
922.079,1.316551,179937,8681
925.923,1.313609,200504,9739
929.762,1.312934,222660,10832
933.597,1.326167,244426,11534
937.427,1.316661,263972,12732
941.254,1.321482,281845,13444
945.076,1.319033,297271,14260
950.165,1.324299,315605,14957
953.978,1.306907,328029,16181
957.786,1.316309,340470,16435
961.59,1.310069,352317,17253
965.389,1.307363,363056,17890
969.185,1.317494,373162,17964
972.976,1.309989,382632,18741
976.763,1.324479,391202,18532
981.806,1.301323,400190,19996
985.583,1.307438,406088,20007
989.355,1.304647,410162,20338
993.124,1.309665,412868,20237
996.888,1.308029,414263,20382
1000.65,1.309150,415476,20389
1004.4,1.307813,415479,20452
1009.41,1.304627,414358,20547
1013.15,1.312435,412923,20111
1016.89,1.314759,411526,19936
1020.63,1.297357,409066,20627
1024.36,1.301689,406777,20308
1028.09,1.304314,404427,20069
1031.82,1.307158,401911,19814
1036.78,1.312551,398410,19399
1040.49,1.309379,396204,19433
1044.2,1.311461,394236,19244
1047.91,1.317607,392042,18868
1051.61,1.302104,389823,19443
1055.31,1.313598,388234,18858
1059,1.313094,387599,18849
1063.92,1.303698,386688,19216
1067.61,1.317723,386598,18601
1071.29,1.313076,387377,18839
1074.96,1.315574,388536,18787
1078.63,1.310325,389855,19080
1082.3,1.311473,391215,19096
1085.96,1.307119,393215,19387
1090.84,1.321162,396270,18916
1094.49,1.316936,398760,19221
1098.14,1.303601,400987,19931
1101.79,1.308146,403477,19846
1105.43,1.316660,406116,19588
1109.06,1.313984,407701,19786
1112.7,1.321088,409859,19568
1117.53,1.319521,412494,19765
1121.15,1.317031,414909,19995
1124.77,1.321632,416559,19863
1128.38,1.313549,418532,20332
1131.99,1.316564,419956,20260
1135.6,1.323814,421946,20019
1139.2,1.317507,423881,20405
1143.99,1.324193,426786,20231
1147.58,1.320994,428617,20468
1151.17,1.319454,431169,20663
1154.75,1.319276,433579,20787
1158.33,1.316559,436264,21047
1161.91,1.322303,439132,20907
1165.48,1.316895,442389,21326
1169.04,1.314156,446101,21641
1173.79,1.313359,451929,21964
1177.34,1.319777,456026,21838
1180.9,1.314653,461306,22353
1184.44,1.316204,467657,22580
1187.99,1.317016,473969,22842
1191.52,1.323252,479856,22796
1195.06,1.320151,487372,23319
1199.76,1.321307,497347,23733
1203.29,1.321619,504311,24048
1206.81,1.317123,511507,24645
1210.33,1.326723,519078,24463
1213.84,1.320648,527163,25194
1217.35,1.327743,534208,25117
1220.85,1.319272,540472,25912
1225.51,1.318505,549929,26412
1229.01,1.324049,556888,26407
1232.5,1.329788,562180,26308
1235.98,1.328257,567975,26673
1239.46,1.327393,574815,27048
1242.94,1.327835,582782,27395
1246.41,1.318496,591476,28408
1251.03,1.318845,604016,28987
1254.5,1.323975,612289,29039
1257.96,1.325000,619125,29294
1261.41,1.326055,624551,29479
1264.86,1.328729,629900,29549
1268.31,1.327658,634345,29831
1271.75,1.327251,638574,30058
1276.33,1.322066,642499,30606
1279.76,1.331761,645905,30089
1283.19,1.325804,648307,30618
1286.61,1.329553,650446,30455
1290.03,1.331376,652132,30406
1293.44,1.329086,653907,30650
1296.85,1.334549,655963,30362
1301.39,1.328006,657349,30888
1304.8,1.335761,657558,30351
1308.19,1.333242,658515,30572
1311.58,1.325982,658804,31101
1314.97,1.330638,659011,30779
1318.36,1.333935,658272,30512
1321.73,1.333187,658022,30553
1326.23,1.332177,657870,30617
1329.6,1.331246,656482,30618
1332.97,1.332092,654926,30486
1336.33,1.332052,653727,30433
1339.69,1.338936,652497,29898
1343.04,1.335314,649913,30029
1346.39,1.326613,647671,30531
1349.73,1.328631,645338,30280
1354.18,1.329465,641175,30027
1357.52,1.328564,638376,29958
1360.85,1.327246,635805,29928
1364.17,1.326903,633413,29839
1367.49,1.325190,631026,29844
1370.81,1.328540,628050,29475
1374.12,1.327542,625034,29401
1378.54,1.329511,620272,29045
1381.84,1.332751,616892,28672
1385.14,1.326516,613613,28932
1388.43,1.326826,611526,28813
1391.72,1.328829,610663,28640
1395.01,1.327324,610634,28738
1398.29,1.327463,611700,28779
1402.66,1.327773,614051,28869
1405.93,1.330091,616268,28819
1409.2,1.326221,617795,29149
1412.46,1.332374,618872,28789
1415.72,1.331666,619795,28879
1418.98,1.323874,620495,29435
1422.23,1.328961,621087,29120
1426.56,1.331630,621375,28955
1429.8,1.332534,621616,28906
1433.04,1.333945,622129,28836
1436.27,1.335214,621526,28724
1439.5,1.329561,621113,29081
1442.72,1.328830,620921,29121
1445.94,1.335199,620270,28667
1450.23,1.336428,618860,28521
1453.44,1.336632,617697,28454
1456.64,1.328313,616264,28937
1459.85,1.335111,614413,28402
1463.04,1.334033,612307,28375
1466.24,1.335951,610032,28145
1469.43,1.335998,607345,28018
1473.67,1.330836,603789,28187
1476.85,1.337447,601175,27641
1480.02,1.331545,597737,27859
1483.19,1.338770,594479,27250
1486.36,1.343737,591232,26793
1489.52,1.344894,587853,26569
1492.68,1.336503,583875,26904
1496.89,1.333759,578062,26805
1500.03,1.334445,574159,26582
1503.18,1.338703,570285,26145
1506.32,1.342220,565444,25714
1509.45,1.334577,560571,25945
1512.58,1.331971,555821,25880
1515.71,1.336519,550344,25358
1519.87,1.342203,543983,24739
1522.99,1.338825,538764,24693
1526.1,1.337328,533692,24545
1529.21,1.335431,527902,24385
1532.32,1.341072,521886,23796
1535.42,1.329171,515888,24176
1538.51,1.353105,509987,22618
1541.6,1.332863,503936,23416
1545.72,1.333327,494694,22962
1548.8,1.336111,488378,22524
1551.88,1.335507,481832,22253
1554.95,1.343498,474989,21537
1558.02,1.328603,467818,21952
1561.08,1.338568,460730,21129
1564.15,1.328941,454170,21295
1568.22,1.335446,444181,20517
1571.27,1.327765,436947,20543
1574.32,1.331468,429598,20026
1577.36,1.329258,422039,19774
1580.4,1.328988,414375,19427
1583.43,1.343214,406354,18437
1586.46,1.339019,398475,18255
1590.49,1.333356,388982,18054
1593.51,1.329392,380708,17832
1596.53,1.329645,372727,17448
1599.54,1.331583,365060,17013
1602.55,1.326625,357543,16854
1605.55,1.317202,349495,16836
1608.55,1.326691,341154,16079
1612.54,1.326988,330877,15584
1615.53,1.312207,322904,15735
1618.51,1.329384,315116,14760
1621.49,1.321726,307217,14646
1624.47,1.321307,299481,14291
1627.44,1.312283,292112,14232
1630.41,1.329482,284245,13311
1634.36,1.324133,274079,12994
1637.32,1.315280,266916,12915
1640.27,1.305455,259612,12849
1643.22,1.317668,251804,12117
1646.16,1.307671,244348,12032
1649.1,1.312450,236703,11528
1652.04,1.318490,228171,10959
1655.95,1.304040,215408,10696
1658.88,1.289605,204937,10520
1661.8,1.266499,193395,10470
1664.72,1.268158,179728,9693
1667.63,1.260812,163642,8976
1670.54,1.239452,146312,8430
1673.44,1.227581,128451,7606
1677.31,1.187990,105080,6816
1680.21,1.198577,88906,5628
1683.1,1.192295,75033,4819
1685.99,1.146525,63520,4533
1688.87,1.184039,53714,3516
1691.75,1.194384,45653,2918
1694.62,1.202006,39137,2458
1697.49,1.263554,33776,1841
1701.31,1.192425,28175,1809