Folder: textile_sorting_NIRSCAN_/ML/samples/unknown (part 134)

File: Column 1_078992_20241121_173202.csv
Method:,Column 1,,
Host Date-Time:,21/11/24 @ 17:32:2,,
Header Version:,1,,
System Temp (C):,37.77,,
Detector Temp (C):,36.96,,
Humidity (%):,0.98,,
Lamp PD:,3795,,
Shift Vector Coefficients:,-10.5391,0.0761263,-0.000134223,,
Pixel to Wavelength Coefficients:,1775.68,-0.916766,-0.000235065,,
Serial Number:,5510004,,
Scan Config Name:,Column 1,,
Scan Config Type:,Slew,,
Section 1,,
Start wavelength (nm):,900,,
End wavelength (nm):,1700,,
Pattern Pixel Width (nm):,   7.03,,,,
Exposure (ms):,  0.635,,,,
Digital Resolution:,228,,
Num Repeats:,6,,
PGA Gain:,64,,
Total Measurement Time in sec:,  2.723,,
Wavelength (nm),Absorbance (AU),Reference Signal (unitless),Sample Signal (unitless)
901.51,1.301932,108485,5413
905.376,1.313251,121306,5897
909.237,1.309639,131909,6466
913.095,1.354222,143299,6339
916.948,1.321542,156982,7487
922.079,1.326622,179937,8482
925.923,1.322575,200504,9540
929.762,1.327239,222660,10481
933.597,1.330139,244426,11429
937.427,1.326703,263972,12441
941.254,1.318392,281845,13540
945.076,1.317786,297271,14301
950.165,1.312470,315605,15370
953.978,1.314351,328029,15906
957.786,1.305763,340470,16839
961.59,1.308310,352317,17323
965.389,1.308068,363056,17861
969.185,1.310302,373162,18264
972.976,1.312102,382632,18650
976.763,1.296043,391202,19786
981.806,1.302258,400190,19953
985.583,1.306073,406088,20070
989.355,1.304348,410162,20352
993.124,1.302936,412868,20553
996.888,1.307369,414263,20413
1000.65,1.294119,415476,21107
1004.4,1.306351,415479,20521
1009.41,1.298103,414358,20858
1013.15,1.299270,412923,20730
1016.89,1.306452,411526,20321
1020.63,1.304897,409066,20272
1024.36,1.296439,406777,20555
1028.09,1.311317,404427,19748
1031.82,1.313984,401911,19505
1036.78,1.302264,398410,19864
1040.49,1.302660,396204,19736
1044.2,1.312410,394236,19202
1047.91,1.300811,392042,19612
1051.61,1.314061,389823,18915
1055.31,1.310020,388234,19014
1059,1.309675,387599,18998
1063.92,1.316193,386688,18671
1067.61,1.307684,386598,19036
1071.29,1.320751,387377,18509
1074.96,1.309719,388536,19042
1078.63,1.311259,389855,19039
1082.3,1.307106,391215,19289
1085.96,1.325211,393215,18596
1090.84,1.318758,396270,19021
1094.49,1.312127,398760,19435
1098.14,1.316809,400987,19334
1101.79,1.318353,403477,19385
1105.43,1.313655,406116,19724
1109.06,1.314335,407701,19770
1112.7,1.311496,409859,20005
1117.53,1.311509,412494,20133
1121.15,1.307217,414909,20452
1124.77,1.325475,416559,19688
1128.38,1.323138,418532,19888
1131.99,1.319144,419956,20140
1135.6,1.316223,421946,20372
1139.2,1.316381,423881,20458
1143.99,1.313360,426786,20742
1147.58,1.311528,428617,20919
1151.17,1.325358,431169,20384
1154.75,1.317275,433579,20883
1158.33,1.317096,436264,21021
1161.91,1.313971,439132,21312
1165.48,1.310949,442389,21620
1169.04,1.313154,446101,21691
1173.79,1.316474,451929,21807
1177.34,1.316547,456026,22001
1180.9,1.316015,461306,22283
1184.44,1.314533,467657,22667
1187.99,1.315460,473969,22924
1191.52,1.314259,479856,23273
1195.06,1.316941,487372,23492
1199.76,1.325056,497347,23529
1203.29,1.318578,504311,24217
1206.81,1.318641,511507,24559
1210.33,1.317223,519078,25004
1213.84,1.315251,527163,25509
1217.35,1.319301,534208,25610
1220.85,1.320733,540472,25825
1225.51,1.319229,549929,26368
1229.01,1.321834,556888,26542
1232.5,1.316186,562180,27145
1235.98,1.319329,567975,27227
1239.46,1.316829,574815,27714
1242.94,1.320447,582782,27865
1246.41,1.317946,591476,28444
1251.03,1.315606,604016,29204
1254.5,1.322243,612289,29155
1257.96,1.324555,619125,29324
1261.41,1.321818,624551,29768
1264.86,1.320546,629900,30111
1268.31,1.324857,634345,30024
1271.75,1.326400,638574,30117
1276.33,1.325342,642499,30376
1279.76,1.326924,645905,30426
1283.19,1.327638,648307,30489
1286.61,1.325677,650446,30728
1290.03,1.327693,652132,30665
1293.44,1.330008,653907,30585
1296.85,1.324049,655963,31105
1301.39,1.324143,657349,31164
1304.8,1.331971,657558,30617
1308.19,1.323368,658515,31275
1311.58,1.331519,658804,30707
1314.97,1.325811,659011,31123
1318.36,1.326106,658272,31067
1321.73,1.324323,658022,31183
1326.23,1.329660,657870,30795
1329.6,1.329618,656482,30733
1332.97,1.326206,654926,30902
1336.33,1.328782,653727,30663
1339.69,1.325436,652497,30842
1343.04,1.328456,649913,30507
1346.39,1.326187,647671,30561
1349.73,1.324648,645338,30559
1354.18,1.326438,641175,30237
1357.52,1.324567,638376,30235
1360.85,1.326391,635805,29987
1364.17,1.321752,633413,30195
1367.49,1.323737,631026,29944
1370.81,1.325501,628050,29682
1374.12,1.325596,625034,29533
1378.54,1.325552,620272,29311
1381.84,1.325124,616892,29180
1385.14,1.327628,613613,28858
1388.43,1.320408,611526,29242
1391.72,1.320181,610663,29216
1395.01,1.323099,610634,29019
1398.29,1.322541,611700,29107
1402.66,1.321544,614051,29286
1405.93,1.328631,616268,28916
1409.2,1.330458,617795,28866
1412.46,1.330793,618872,28894
1415.72,1.330720,619795,28942
1418.98,1.331345,620495,28933
1422.23,1.325382,621087,29361
1426.56,1.329520,621375,29096
1429.8,1.331274,621616,28990
1433.04,1.333028,622129,28897
1436.27,1.330508,621526,29037
1439.5,1.330833,621113,28996
1442.72,1.334761,620921,28726
1445.94,1.330378,620270,28987
1450.23,1.331853,618860,28823
1453.44,1.333257,617697,28676
1456.64,1.333006,616264,28626
1459.85,1.332353,614413,28583
1463.04,1.329723,612307,28658
1466.24,1.334934,610032,28211
1469.43,1.353151,607345,26933
1473.67,1.332550,603789,28076
1476.85,1.325010,601175,28444
1480.02,1.328748,597737,28039
1483.19,1.325059,594479,28124
1486.36,1.337189,591232,27200
1489.52,1.336877,587853,27064
1492.68,1.334410,583875,27034
1496.89,1.332933,578062,26856
1500.03,1.332001,574159,26732
1503.18,1.330004,570285,26674
1506.32,1.334802,565444,26157
1509.45,1.334560,560571,25946
1512.58,1.333315,555821,25800
1515.71,1.334469,550344,25478
1519.87,1.339857,543983,24873
1522.99,1.332106,538764,25078
1526.1,1.327496,533692,25107
1529.21,1.335912,527902,24358
1532.32,1.331630,521886,24319
1535.42,1.328561,515888,24210
1538.51,1.333287,509987,23674
1541.6,1.333661,503936,23373
1545.72,1.324435,494694,23437
1548.8,1.326821,488378,23011
1551.88,1.330983,481832,22486
1554.95,1.332881,474989,22070
1558.02,1.329613,467818,21901
1561.08,1.324114,460730,21844
1564.15,1.329533,454170,21266
1568.22,1.330291,444181,20762
1571.27,1.327807,436947,20541
1574.32,1.330991,429598,20048
1577.36,1.330622,422039,19712
1580.4,1.335542,414375,19136
1583.43,1.326532,406354,19159
1586.46,1.336836,398475,18347
1590.49,1.320767,388982,18585
1593.51,1.325127,380708,18008
1596.53,1.332242,372727,17344
1599.54,1.327038,365060,17192
1602.55,1.328433,357543,16784
1605.55,1.327038,349495,16459
1608.55,1.318637,341154,16380
1612.54,1.318406,330877,15895
1615.53,1.319555,322904,15471
1618.51,1.315942,315116,15224
1621.49,1.305602,307217,15200
1624.47,1.317977,299481,14401
1627.44,1.320011,292112,13981
1630.41,1.312118,284245,13854
1634.36,1.299889,274079,13740
1637.32,1.308938,266916,13105
1640.27,1.322447,259612,12356
1643.22,1.308412,251804,12378
1646.16,1.312754,244348,11892
1649.1,1.291454,236703,12099
1652.04,1.317144,228171,10993
1655.95,1.272375,215408,11505
1658.88,1.272603,204937,10940
1661.8,1.272681,193395,10322
1664.72,1.265878,179728,9744
1667.63,1.230043,163642,9635
1670.54,1.222677,146312,8762
1673.44,1.186064,128451,8369
1677.31,1.169528,105080,7112
1680.21,1.184680,88906,5811
1683.1,1.134732,75033,5502
1685.99,1.129429,63520,4715
1688.87,1.112353,53714,4147
1691.75,1.139904,45653,3308
1694.62,1.099129,39137,3115
1697.49,1.151484,33776,2383
1701.31,1.112405,28175,2175

File: Column 1_078994_20241121_173207.csv
Method:,Column 1,,
Host Date-Time:,21/11/24 @ 17:32:7,,
Header Version:,1,,
System Temp (C):,37.64,,
Detector Temp (C):,36.98,,
Humidity (%):,0.83,,
Lamp PD:,3795,,
Shift Vector Coefficients:,-10.5391,0.0761263,-0.000134223,,
Pixel to Wavelength Coefficients:,1775.68,-0.916766,-0.000235065,,
Serial Number:,5510004,,
Scan Config Name:,Column 1,,
Scan Config Type:,Slew,,
Section 1,,
Start wavelength (nm):,900,,
End wavelength (nm):,1700,,
Pattern Pixel Width (nm):,   7.03,,,,
Exposure (ms):,  0.635,,,,
Digital Resolution:,228,,
Num Repeats:,6,,
PGA Gain:,64,,
Total Measurement Time in sec:,  2.725,,
Wavelength (nm),Absorbance (AU),Reference Signal (unitless),Sample Signal (unitless)
901.51,1.298257,108485,5459
905.376,1.309073,121306,5954
909.237,1.338160,131909,6055
913.095,1.291791,143299,7319
916.948,1.327735,156982,7381
922.079,1.315402,179937,8704
925.923,1.338997,200504,9186
929.762,1.336283,222660,10265
933.597,1.311835,244426,11921
937.427,1.322534,263972,12561
941.254,1.326583,281845,13287
945.076,1.310887,297271,14530
950.165,1.325754,315605,14907
953.978,1.303299,328029,16316
957.786,1.317579,340470,16387
961.59,1.308436,352317,17318
965.389,1.302007,363056,18112
969.185,1.308190,373162,18353
972.976,1.314554,382632,18545
976.763,1.309168,391202,19197
981.806,1.302650,400190,19935
985.583,1.300590,406088,20325
989.355,1.312991,410162,19951
993.124,1.307375,412868,20344
996.888,1.308861,414263,20343
1000.65,1.310174,415476,20341
1004.4,1.304303,415479,20618
1009.41,1.304733,414358,20542
1013.15,1.300529,412923,20670
1016.89,1.312868,411526,20023
1020.63,1.301674,409066,20423
1024.36,1.312560,406777,19806
1028.09,1.301317,404427,20208
1031.82,1.307662,401911,19791
1036.78,1.311054,398410,19466
1040.49,1.314980,396204,19184
1044.2,1.307843,394236,19405
1047.91,1.311323,392042,19143
1051.61,1.314153,389823,18911
1055.31,1.312793,388234,18893
1059,1.301522,387599,19358
1063.92,1.309339,386688,18968
1067.61,1.310844,386598,18898
1071.29,1.307328,387377,19090
1074.96,1.301562,388536,19403
1078.63,1.315454,389855,18856
1082.3,1.317012,391215,18854
1085.96,1.309546,393215,19279
1090.84,1.318849,396270,19017
1094.49,1.316845,398760,19225
1098.14,1.311429,400987,19575
1101.79,1.313363,403477,19609
1105.43,1.307924,406116,19986
1109.06,1.307297,407701,20093
1112.7,1.311887,409859,19987
1117.53,1.317942,412494,19837
1121.15,1.307451,414909,20441
1124.77,1.324792,416559,19719
1128.38,1.311609,418532,20423
1131.99,1.312957,419956,20429
1135.6,1.310905,421946,20623
1139.2,1.306267,423881,20940
1143.99,1.318605,426786,20493
1147.58,1.316225,428617,20694
1151.17,1.317755,431169,20744
1154.75,1.321896,433579,20662
1158.33,1.314213,436264,21161
1161.91,1.310217,439132,21497
1165.48,1.313507,442389,21493
1169.04,1.311734,446101,21762
1173.79,1.312509,451929,22007
1177.34,1.310587,456026,22305
1180.9,1.310400,461306,22573
1184.44,1.317475,467657,22514
1187.99,1.314759,473969,22961
1191.52,1.308493,479856,23584
1195.06,1.317921,487372,23439
1199.76,1.319754,497347,23818
1203.29,1.322904,504311,23977
1206.81,1.313333,511507,24861
1210.33,1.320798,519078,24799
1213.84,1.321010,527163,25173
1217.35,1.317372,534208,25724
1220.85,1.321238,540472,25795
1225.51,1.317143,549929,26495
1229.01,1.321442,556888,26566
1232.5,1.318367,562180,27009
1235.98,1.321152,567975,27113
1239.46,1.318871,574815,27584
1242.94,1.315565,582782,28180
1246.41,1.311776,591476,28851
1251.03,1.319235,604016,28961
1254.5,1.322765,612289,29120
1257.96,1.324881,619125,29302
1261.41,1.321672,624551,29778
1264.86,1.328435,629900,29569
1268.31,1.323038,634345,30150
1271.75,1.324342,638574,30260
1276.33,1.319703,642499,30773
1279.76,1.322974,645905,30704
1283.19,1.321766,648307,30904
1286.61,1.329310,650446,30472
1290.03,1.320557,652132,31173
1293.44,1.324925,653907,30945
1296.85,1.327357,655963,30869
1301.39,1.330191,657349,30733
1304.8,1.323752,657558,31202
1308.19,1.326196,658515,31072
1311.58,1.325005,658804,31171
1314.97,1.325616,659011,31137
1318.36,1.327899,658272,30939
1321.73,1.323627,658022,31233
1326.23,1.329829,657870,30783
1329.6,1.329816,656482,30719
1332.97,1.326543,654926,30878
1336.33,1.326465,653727,30827
1339.69,1.329198,652497,30576
1343.04,1.322503,649913,30928
1346.39,1.331664,647671,30178
1349.73,1.323243,645338,30658
1354.18,1.323432,641175,30447
1357.52,1.320577,638376,30514
1360.85,1.322656,635805,30246
1364.17,1.327646,633413,29788
1367.49,1.321856,631026,30074
1370.81,1.324157,628050,29774
1374.12,1.326759,625034,29454
1378.54,1.326159,620272,29270
1381.84,1.325124,616892,29180
1385.14,1.321502,613613,29268
1388.43,1.326751,611526,28818
1391.72,1.319498,610663,29262
1395.01,1.322620,610634,29051
1398.29,1.318561,611700,29375
1402.66,1.328631,614051,28812
1405.93,1.326310,616268,29071
1409.2,1.325462,617795,29200
1412.46,1.330613,618872,28906
1415.72,1.322514,619795,29494
1418.98,1.326286,620495,29272
1422.23,1.334243,621087,28768
1426.56,1.336912,621375,28605
1429.8,1.335202,621616,28729
1433.04,1.324279,622129,29485
1436.27,1.330523,621526,29036
1439.5,1.331672,621113,28940
1442.72,1.334973,620921,28712
1445.94,1.329001,620270,29079
1450.23,1.330334,618860,28924
1453.44,1.331504,617697,28792
1456.64,1.334952,616264,28498
1459.85,1.331472,614413,28641
1463.04,1.333116,612307,28435
1466.24,1.327047,610032,28728
1469.43,1.332632,607345,28236
1473.67,1.335717,603789,27872
1476.85,1.327000,601175,28314
1480.02,1.329678,597737,27979
1483.19,1.329280,594479,27852
1486.36,1.323268,591232,28086
1489.52,1.330110,587853,27489
1492.68,1.336422,583875,26909
1496.89,1.336505,578062,26636
1500.03,1.334379,574159,26586
1503.18,1.345618,570285,25732
1506.32,1.332830,565444,26276
1509.45,1.333307,560571,26021
1512.58,1.329978,555821,25999
1515.71,1.329082,550344,25796
1519.87,1.330837,543983,25395
1522.99,1.338772,538764,24696
1526.1,1.341077,533692,24334
1529.21,1.332484,527902,24551
1532.32,1.329954,521886,24413
1535.42,1.335358,515888,23834
1538.51,1.321649,509987,24317
1541.6,1.326858,503936,23742
1545.72,1.328980,494694,23193
1548.8,1.321531,488378,23293
1551.88,1.331737,481832,22447
1554.95,1.333039,474989,22062
1558.02,1.334258,467818,21668
1561.08,1.332546,460730,21424
1564.15,1.324437,454170,21517
1568.22,1.333988,444181,20586
1571.27,1.330671,436947,20406
1574.32,1.333337,429598,19940
1577.36,1.330402,422039,19722
1580.4,1.320970,414375,19789
1583.43,1.330517,406354,18984
1586.46,1.336883,398475,18345
1590.49,1.334585,388982,18003
1593.51,1.328711,380708,17860
1596.53,1.321728,372727,17769
1599.54,1.332862,365060,16963
1602.55,1.324133,357543,16951
1605.55,1.326721,349495,16471
1608.55,1.325289,341154,16131
1612.54,1.319720,330877,15847
1615.53,1.321299,322904,15409
1618.51,1.301328,315116,15745
1621.49,1.324642,307217,14548
1624.47,1.312999,299481,14567
1627.44,1.321100,292112,13946
1630.41,1.318051,284245,13666
1634.36,1.313469,274079,13317
1637.32,1.318250,266916,12827
1640.27,1.311788,259612,12663
1643.22,1.308693,251804,12370
1646.16,1.311951,244348,11914
1649.1,1.306055,236703,11699
1652.04,1.300442,228171,11424
1655.95,1.295437,215408,10910
1658.88,1.290928,204937,10488
1661.8,1.289409,193395,9932
1664.72,1.254659,179728,9999
1667.63,1.236080,163642,9502
1670.54,1.209640,146312,9029
1673.44,1.192231,128451,8251
1677.31,1.153287,105080,7383
1680.21,1.127614,88906,6627
1683.1,1.154680,75033,5255
1685.99,1.116900,63520,4853
1688.87,1.140250,53714,3889
1691.75,1.128374,45653,3397
1694.62,1.085407,39137,3215
1697.49,1.075749,33776,2837
1701.31,1.138534,28175,2048

File: Column 1_078995_20241121_173210.csv
Method:,Column 1,,
Host Date-Time:,21/11/24 @ 17:32:10,,
Header Version:,1,,
System Temp (C):,37.61,,
Detector Temp (C):,36.98,,
Humidity (%):,0.73,,
Lamp PD:,3795,,
Shift Vector Coefficients:,-10.5391,0.0761263,-0.000134223,,
Pixel to Wavelength Coefficients:,1775.68,-0.916766,-0.000235065,,
Serial Number:,5510004,,
Scan Config Name:,Column 1,,
Scan Config Type:,Slew,,
Section 1,,
Start wavelength (nm):,900,,
End wavelength (nm):,1700,,
Pattern Pixel Width (nm):,   7.03,,,,
Exposure (ms):,  0.635,,,,
Digital Resolution:,228,,
Num Repeats:,6,,
PGA Gain:,64,,
Total Measurement Time in sec:,  2.727,,
Wavelength (nm),Absorbance (AU),Reference Signal (unitless),Sample Signal (unitless)
901.51,1.281251,108485,5677
905.376,1.328694,121306,5691
909.237,1.329708,131909,6174
913.095,1.311580,143299,6993
916.948,1.306772,156982,7746
922.079,1.309258,179937,8828
925.923,1.319445,200504,9609
929.762,1.321968,222660,10609
933.597,1.318036,244426,11752
937.427,1.334664,263972,12215
941.254,1.315387,281845,13634
945.076,1.308889,297271,14597
950.165,1.303770,315605,15681
953.978,1.309194,328029,16096
957.786,1.304552,340470,16886
961.59,1.308085,352317,17332
965.389,1.300571,363056,18172
969.185,1.305689,373162,18459
972.976,1.308554,382632,18803
976.763,1.302277,391202,19504
981.806,1.315025,400190,19375
985.583,1.313075,406088,19749
989.355,1.301180,410162,20501
993.124,1.303973,412868,20504
996.888,1.298108,414263,20853
1000.65,1.306030,415476,20536
1004.4,1.308132,415479,20437
1009.41,1.301657,414358,20688
1013.15,1.299794,412923,20705
1016.89,1.300846,411526,20585
1020.63,1.304833,409066,20275
1024.36,1.300301,406777,20373
1028.09,1.314828,404427,19589
1031.82,1.297426,401911,20263
1036.78,1.306040,398410,19692
1040.49,1.303232,396204,19710
1044.2,1.307194,394236,19434
1047.91,1.296975,392042,19786
1051.61,1.303043,389823,19401
1055.31,1.307538,388234,19123
1059,1.315451,387599,18747
1063.92,1.299044,386688,19423
1067.61,1.298943,386598,19423
1071.29,1.310112,387377,18968
1074.96,1.309126,388536,19068
1078.63,1.313752,389855,18930
1082.3,1.305353,391215,19367
1085.96,1.304595,393215,19500
1090.84,1.309250,396270,19442
1094.49,1.307902,398760,19625
1098.14,1.301124,400987,20045
1101.79,1.300833,403477,20183
1105.43,1.310234,406116,19880
1109.06,1.313852,407701,19792
1112.7,1.307584,409859,20186
1117.53,1.307451,412494,20322
1121.15,1.313915,414909,20139
1124.77,1.308580,416559,20469
1128.38,1.313719,418532,20324
1131.99,1.321306,419956,20040
1135.6,1.321370,421946,20132
1139.2,1.311400,423881,20694
1143.99,1.299979,426786,21391
1147.58,1.312089,428617,20892
1151.17,1.308312,431169,21200
1154.75,1.312251,433579,21126
1158.33,1.311921,436264,21273
1161.91,1.304777,439132,21768
1165.48,1.313972,442389,21470
1169.04,1.317844,446101,21458
1173.79,1.303467,451929,22470
1177.34,1.315758,456026,22041
1180.9,1.311980,461306,22491
1184.44,1.310851,467657,22860
1187.99,1.317987,473969,22791
1191.52,1.310172,479856,23493
1195.06,1.312526,487372,23732
1199.76,1.316937,497347,23973
1203.29,1.314988,504311,24418
1206.81,1.317846,511507,24604
1210.33,1.318232,519078,24946
1213.84,1.320028,527163,25230
1217.35,1.316411,534208,25781
1220.85,1.322806,540472,25702
1225.51,1.324532,549929,26048
1229.01,1.318038,556888,26775
1232.5,1.315083,562180,27214
1235.98,1.311928,567975,27695
1239.46,1.316234,574815,27752
1242.94,1.322196,582782,27753
1246.41,1.315343,591476,28615
1251.03,1.322365,604016,28753
1254.5,1.321306,612289,29218
1257.96,1.328767,619125,29041
1261.41,1.319258,624551,29944
1264.86,1.319869,629900,30158
1268.31,1.322290,634345,30202
1271.75,1.326255,638574,30127
1276.33,1.323103,642499,30533
1279.76,1.324760,645905,30578
1283.19,1.326769,648307,30550
1286.61,1.326738,650446,30653
1290.03,1.332993,652132,30293
1293.44,1.323804,653907,31025
1296.85,1.324748,655963,31055
1301.39,1.320631,657349,31417
1304.8,1.329144,657558,30817
1308.19,1.325442,658515,31126
1311.58,1.326513,658804,31063
1314.97,1.329961,659011,30827
1318.36,1.331550,658272,30680
1321.73,1.329591,658022,30807
1326.23,1.325869,657870,31065
1329.6,1.326352,656482,30965
1332.97,1.323963,654926,31062
1336.33,1.325073,653727,30926
1339.69,1.323806,652497,30958
1343.04,1.324615,649913,30778
1346.39,1.321312,647671,30906
1349.73,1.323470,645338,30642
1354.18,1.328021,641175,30127
1357.52,1.325026,638376,30203
1360.85,1.320908,635805,30368
1364.17,1.324913,633413,29976
1367.49,1.323824,631026,29938
1370.81,1.321742,628050,29940
1374.12,1.324113,625034,29634
1378.54,1.320382,620272,29662
1381.84,1.318741,616892,29612
1385.14,1.322854,613613,29177
1388.43,1.321910,611526,29141
1391.72,1.327013,610663,28760
1395.01,1.319818,610634,29239
1398.29,1.326558,611700,28839
1402.66,1.325313,614051,29033
1405.93,1.327881,616268,28966
1409.2,1.324926,617795,29236
1412.46,1.328664,618872,29036
1415.72,1.327937,619795,29128
1418.98,1.333678,620495,28778
1422.23,1.324938,621087,29391
1426.56,1.326946,621375,29269
1429.8,1.328139,621616,29200
1433.04,1.327948,622129,29237
1436.27,1.327913,621526,29211
1439.5,1.329980,621113,29053
1442.72,1.323892,620921,29454
1445.94,1.329913,620270,29018
1450.23,1.325303,618860,29261
1453.44,1.336815,617697,28442
1456.64,1.330616,616264,28784
1459.85,1.331275,614413,28654
1463.04,1.325711,612307,28924
1466.24,1.329458,610032,28569
1469.43,1.331404,607345,28316
1473.67,1.326467,603789,28472
1476.85,1.329091,601175,28178
1480.02,1.332840,597737,27776
1483.19,1.329857,594479,27815
1486.36,1.331022,591232,27589
1489.52,1.330078,587853,27491
1492.68,1.330714,583875,27265
1496.89,1.330144,578062,27029
1500.03,1.326704,574159,27060
1503.18,1.336880,570285,26255
1506.32,1.329062,565444,26505
1509.45,1.333557,560571,26006
1512.58,1.328861,555821,26066
1515.71,1.327217,550344,25907
1519.87,1.324589,543983,25763
1522.99,1.329808,538764,25211
1526.1,1.330812,533692,24916
1529.21,1.331601,527902,24601
1532.32,1.326941,521886,24583
1535.42,1.336490,515888,23772
1538.51,1.327782,509987,23976
1541.6,1.326767,503936,23747
1545.72,1.328643,494694,23211
1548.8,1.326085,488378,23050
1551.88,1.337443,481832,22154
1554.95,1.329998,474989,22217
1558.02,1.325803,467818,22094
1561.08,1.325169,460730,21791
1564.15,1.330391,454170,21224
1568.22,1.330667,444181,20744
1571.27,1.327807,436947,20541
1574.32,1.321860,429598,20474
1577.36,1.326347,422039,19907
1580.4,1.326980,414375,19517
1583.43,1.325083,406354,19223
1586.46,1.327771,398475,18734
1590.49,1.322781,388982,18499
1593.51,1.321955,380708,18140
1596.53,1.311749,372727,18182
1599.54,1.317197,365060,17586
1602.55,1.305306,357543,17702
1605.55,1.319322,349495,16754
1608.55,1.310000,341154,16709
1612.54,1.315384,330877,16006
1615.53,1.318518,322904,15508
1618.51,1.311655,315116,15375
1621.49,1.315924,307217,14843
1624.47,1.329157,299481,14035
1627.44,1.325324,292112,13811
1630.41,1.299817,284245,14252
1634.36,1.308702,274079,13464
1637.32,1.298590,266916,13421
1640.27,1.307726,259612,12782
1643.22,1.294566,251804,12779
1646.16,1.307563,244348,12035
1649.1,1.304721,236703,11735
1652.04,1.301622,228171,11393
1655.95,1.281801,215408,11258
1658.88,1.272643,204937,10939
1661.8,1.273903,193395,10293
1664.72,1.262018,179728,9831
1667.63,1.231036,163642,9613
1670.54,1.211134,146312,8998
1673.44,1.202241,128451,8063
1677.31,1.151585,105080,7412
1680.21,1.141261,88906,6422
1683.1,1.097536,75033,5994
1685.99,1.097474,63520,5075
1688.87,1.136358,53714,3924
1691.75,1.060023,45653,3976
1694.62,1.127056,39137,2921
1697.49,1.087699,33776,2760
1701.31,1.076584,28175,2362