Folder: textile_sorting_NIRSCAN_/ML/samples/unknown (part 53)

File: Column 1_078349_20241121_165741.csv
Method:,Column 1,,
Host Date-Time:,21/11/24 @ 16:57:41,,
Header Version:,1,,
System Temp (C):,34.8,,
Detector Temp (C):,33.28,,
Humidity (%):,2.16,,
Lamp PD:,3801,,
Shift Vector Coefficients:,-10.5391,0.0761263,-0.000134223,,
Pixel to Wavelength Coefficients:,1775.68,-0.916766,-0.000235065,,
Serial Number:,5510004,,
Scan Config Name:,Column 1,,
Scan Config Type:,Slew,,
Section 1,,
Start wavelength (nm):,900,,
End wavelength (nm):,1700,,
Pattern Pixel Width (nm):,   7.03,,,,
Exposure (ms):,  0.635,,,,
Digital Resolution:,228,,
Num Repeats:,6,,
PGA Gain:,64,,
Total Measurement Time in sec:,  2.722,,
Wavelength (nm),Absorbance (AU),Reference Signal (unitless),Sample Signal (unitless)
901.51,1.327119,108485,5108
905.376,1.320305,121306,5802
909.237,1.333027,131909,6127
913.095,1.338083,143299,6579
916.948,1.362894,156982,6807
922.079,1.328624,179937,8443
925.923,1.333920,200504,9294
929.762,1.322295,222660,10601
933.597,1.312309,244426,11908
937.427,1.333954,263972,12235
941.254,1.326583,281845,13287
945.076,1.318607,297271,14274
950.165,1.311116,315605,15418
953.978,1.322815,328029,15599
957.786,1.318614,340470,16348
961.59,1.308887,352317,17300
965.389,1.309261,363056,17812
969.185,1.310730,373162,18246
972.976,1.312685,382632,18625
976.763,1.303459,391202,19451
981.806,1.310276,400190,19588
985.583,1.308046,406088,19979
989.355,1.304669,410162,20337
993.124,1.311062,412868,20172
996.888,1.313174,414263,20142
1000.65,1.311200,415476,20293
1004.4,1.308791,415479,20406
1009.41,1.315716,414358,20029
1013.15,1.313257,412923,20073
1016.89,1.309304,411526,20188
1020.63,1.305304,409066,20253
1024.36,1.307220,406777,20051
1028.09,1.303752,404427,20095
1031.82,1.308475,401911,19754
1036.78,1.308562,398410,19578
1040.49,1.306040,396204,19583
1044.2,1.307507,394236,19420
1047.91,1.306113,392042,19374
1051.61,1.307453,389823,19205
1055.31,1.303469,388234,19303
1059,1.321469,387599,18489
1063.92,1.317591,386688,18611
1067.61,1.313472,386598,18784
1071.29,1.307715,387377,19073
1074.96,1.315782,388536,18778
1078.63,1.307919,389855,19186
1082.3,1.302247,391215,19506
1085.96,1.313733,393215,19094
1090.84,1.318301,396270,19041
1094.49,1.315289,398760,19294
1098.14,1.317393,400987,19308
1101.79,1.319834,403477,19319
1105.43,1.310693,406116,19859
1109.06,1.314115,407701,19780
1112.7,1.314218,409859,19880
1117.53,1.317723,412494,19847
1121.15,1.321003,414909,19813
1124.77,1.320453,416559,19917
1128.38,1.322243,418532,19929
1131.99,1.320635,419956,20071
1135.6,1.313524,421946,20499
1139.2,1.326236,423881,19999
1143.99,1.319220,426786,20464
1147.58,1.324659,428617,20296
1151.17,1.323106,431169,20490
1154.75,1.320595,433579,20724
1158.33,1.315982,436264,21075
1161.91,1.323364,439132,20856
1165.48,1.311693,442389,21583
1169.04,1.322504,446101,21229
1173.79,1.320677,451929,21597
1177.34,1.325039,456026,21575
1180.9,1.317851,461306,22189
1184.44,1.323614,467657,22198
1187.99,1.312270,473969,23093
1191.52,1.326849,479856,22608
1195.06,1.330116,487372,22790
1199.76,1.326906,497347,23429
1203.29,1.325137,504311,23854
1206.81,1.324104,511507,24252
1210.33,1.325801,519078,24515
1213.84,1.323051,527163,25055
1217.35,1.326413,534208,25194
1220.85,1.314969,540472,26170
1225.51,1.324716,549929,26037
1229.01,1.329777,556888,26061
1232.5,1.316698,562180,27113
1235.98,1.328160,567975,26679
1239.46,1.325550,574815,27163
1242.94,1.326063,582782,27507
1246.41,1.326411,591476,27895
1251.03,1.324743,604016,28596
1254.5,1.329226,612289,28690
1257.96,1.327736,619125,29110
1261.41,1.332541,624551,29042
1264.86,1.328347,629900,29575
1268.31,1.328926,634345,29744
1271.75,1.329134,638574,29928
1276.33,1.330187,642499,30039
1279.76,1.330406,645905,30183
1283.19,1.331343,648307,30230
1286.61,1.331625,650446,30310
1290.03,1.328061,652132,30639
1293.44,1.330946,653907,30519
1296.85,1.327033,655963,30892
1301.39,1.331606,657349,30633
1304.8,1.333506,657558,30509
1308.19,1.327064,658515,31010
1311.58,1.333418,658804,30573
1314.97,1.330173,659011,30812
1318.36,1.334191,658272,30494
1321.73,1.334953,658022,30429
1326.23,1.330889,657870,30708
1329.6,1.333194,656482,30481
1332.97,1.335941,654926,30217
1336.33,1.337162,653727,30077
1339.69,1.332964,652497,30312
1343.04,1.330296,649913,30378
1346.39,1.334103,647671,30009
1349.73,1.332507,645338,30011
1354.18,1.328684,641175,30081
1357.52,1.335520,638376,29482
1360.85,1.335420,635805,29370
1364.17,1.332528,633413,29455
1367.49,1.331272,631026,29429
1370.81,1.331334,628050,29286
1374.12,1.329837,625034,29246
1378.54,1.332994,620272,28813
1381.84,1.330214,616892,28840
1385.14,1.325512,613613,28999
1388.43,1.329412,611526,28642
1391.72,1.332300,610663,28412
1395.01,1.329597,610634,28588
1398.29,1.330476,611700,28580
1402.66,1.326676,614051,28942
1405.93,1.332888,616268,28634
1409.2,1.332932,617795,28702
1412.46,1.330373,618872,28922
1415.72,1.335472,619795,28627
1418.98,1.337041,620495,28556
1422.23,1.330560,621087,29013
1426.56,1.335169,621375,28720
1429.8,1.334945,621616,28746
1433.04,1.337499,622129,28601
1436.27,1.331421,621526,28976
1439.5,1.332889,621113,28859
1442.72,1.332590,620921,28870
1445.94,1.336762,620270,28564
1450.23,1.334604,618860,28641
1453.44,1.334409,617697,28600
1456.64,1.336280,616264,28411
1459.85,1.334867,614413,28418
1463.04,1.337877,612307,28125
1466.24,1.332570,610032,28365
1469.43,1.333002,607345,28212
1473.67,1.336700,603789,27809
1476.85,1.338155,601175,27596
1480.02,1.334909,597737,27644
1483.19,1.335183,594479,27476
1486.36,1.337844,591232,27159
1489.52,1.335211,587853,27168
1492.68,1.335053,583875,26994
1496.89,1.333872,578062,26798
1500.03,1.337050,574159,26423
1503.18,1.335542,570285,26336
1506.32,1.338169,565444,25955
1509.45,1.335046,560571,25917
1512.58,1.340478,555821,25378
1515.71,1.334861,550344,25455
1519.87,1.337333,543983,25018
1522.99,1.334781,538764,24924
1526.1,1.333435,533692,24766
1529.21,1.335823,527902,24363
1532.32,1.334407,521886,24164
1535.42,1.334067,515888,23905
1538.51,1.344248,509987,23084
1541.6,1.335374,503936,23281
1545.72,1.335717,494694,22836
1548.8,1.337578,488378,22448
1551.88,1.342333,481832,21906
1554.95,1.338825,474989,21770
1558.02,1.335061,467818,21628
1561.08,1.340401,460730,21040
1564.15,1.334854,454170,21007
1568.22,1.336569,444181,20464
1571.27,1.334175,436947,20242
1574.32,1.331425,429598,20028
1577.36,1.331460,422039,19674
1580.4,1.336451,414375,19096
1583.43,1.338389,406354,18643
1586.46,1.328792,398475,18690
1590.49,1.332683,388982,18082
1593.51,1.325488,380708,17993
1596.53,1.332517,372727,17333
1599.54,1.331583,365060,17013
1602.55,1.334872,357543,16537
1605.55,1.338237,349495,16040
1608.55,1.327882,341154,16035
1612.54,1.332484,330877,15388
1615.53,1.327659,322904,15185
1618.51,1.334773,315116,14578
1621.49,1.321459,307217,14655
1624.47,1.332107,299481,13940
1627.44,1.325041,292112,13820
1630.41,1.324357,284245,13469
1634.36,1.322965,274079,13029
1637.32,1.318182,266916,12829
1640.27,1.311857,259612,12661
1643.22,1.314845,251804,12196
1646.16,1.319637,244348,11705
1649.1,1.322434,236703,11266
1652.04,1.304299,228171,11323
1655.95,1.297552,215408,10857
1658.88,1.305839,204937,10134
1661.8,1.291293,193395,9889
1664.72,1.263656,179728,9794
1667.63,1.272582,163642,8736
1670.54,1.251360,146312,8202
1673.44,1.251345,128451,7201
1677.31,1.218200,105080,6358
1680.21,1.192980,88906,5701
1683.1,1.192115,75033,4821
1685.99,1.226224,63520,3773
1688.87,1.204654,53714,3353
1691.75,1.250213,45653,2566
1694.62,1.204131,39137,2446
1697.49,1.238796,33776,1949
1701.31,1.181286,28175,1856

File: Column 1_078355_20241121_165759.csv
Method:,Column 1,,
Host Date-Time:,21/11/24 @ 16:57:59,,
Header Version:,1,,
System Temp (C):,34.88,,
Detector Temp (C):,33.26,,
Humidity (%):,2.06,,
Lamp PD:,3802,,
Shift Vector Coefficients:,-10.5391,0.0761263,-0.000134223,,
Pixel to Wavelength Coefficients:,1775.68,-0.916766,-0.000235065,,
Serial Number:,5510004,,
Scan Config Name:,Column 1,,
Scan Config Type:,Slew,,
Section 1,,
Start wavelength (nm):,900,,
End wavelength (nm):,1700,,
Pattern Pixel Width (nm):,   7.03,,,,
Exposure (ms):,  0.635,,,,
Digital Resolution:,228,,
Num Repeats:,6,,
PGA Gain:,64,,
Total Measurement Time in sec:,  2.725,,
Wavelength (nm),Absorbance (AU),Reference Signal (unitless),Sample Signal (unitless)
901.51,1.298098,108485,5461
905.376,1.299764,121306,6083
909.237,1.292841,131909,6721
913.095,1.325654,143299,6770
916.948,1.314522,156982,7609
922.079,1.309701,179937,8819
925.923,1.300562,200504,10036
929.762,1.331696,222660,10374
933.597,1.324101,244426,11589
937.427,1.322707,263972,12556
941.254,1.312656,281845,13720
945.076,1.326033,297271,14032
950.165,1.313545,315605,15332
953.978,1.316678,328029,15821
957.786,1.303627,340470,16922
961.59,1.312113,352317,17172
965.389,1.314116,363056,17614
969.185,1.316794,373162,17993
972.976,1.312918,382632,18615
976.763,1.304577,391202,19401
981.806,1.311253,400190,19544
985.583,1.311582,406088,19817
989.355,1.301413,410162,20490
993.124,1.317111,412868,19893
996.888,1.308989,414263,20337
1000.65,1.314767,415476,20127
1004.4,1.300006,415479,20823
1009.41,1.313877,414358,20114
1013.15,1.302994,412923,20553
1016.89,1.310036,411526,20154
1020.63,1.304212,409066,20304
1024.36,1.310525,406777,19899
1028.09,1.309474,404427,19832
1031.82,1.313939,401911,19507
1036.78,1.316509,398410,19223
1040.49,1.313060,396204,19269
1044.2,1.311687,394236,19234
1047.91,1.311867,392042,19119
1051.61,1.320515,389823,18636
1055.31,1.311347,388234,18956
1059,1.312151,387599,18890
1063.92,1.312464,386688,18832
1067.61,1.305885,386598,19115
1071.29,1.309403,387377,18999
1074.96,1.309172,388536,19066
1078.63,1.317393,389855,18772
1082.3,1.312475,391215,19052
1085.96,1.317962,393215,18909
1090.84,1.314306,396270,19217
1094.49,1.322736,398760,18966
1098.14,1.318068,400987,19278
1101.79,1.312059,403477,19668
1105.43,1.317370,406116,19556
1109.06,1.320820,407701,19477
1112.7,1.317706,409859,19721
1117.53,1.317985,412494,19835
1121.15,1.321770,414909,19778
1124.77,1.326911,416559,19623
1128.38,1.316829,418532,20179
1131.99,1.313425,419956,20407
1135.6,1.322385,421946,20085
1139.2,1.321270,423881,20229
1143.99,1.317758,426786,20533
1147.58,1.319300,428617,20548
1151.17,1.314480,431169,20901
1154.75,1.309362,433579,21267
1158.33,1.319811,436264,20890
1161.91,1.322345,439132,20905
1165.48,1.316427,442389,21349
1169.04,1.321911,446101,21258
1173.79,1.316693,451929,21796
1177.34,1.315995,456026,22029
1180.9,1.314964,461306,22337
1184.44,1.311307,467657,22836
1187.99,1.313663,473969,23019
1191.52,1.318082,479856,23069
1195.06,1.318014,487372,23434
1199.76,1.318571,497347,23883
1203.29,1.320790,504311,24094
1206.81,1.326672,511507,24109
1210.33,1.322044,519078,24728
1213.84,1.321752,527163,25130
1217.35,1.324178,534208,25324
1220.85,1.327632,540472,25418
1225.51,1.329951,549929,25725
1229.01,1.330678,556888,26007
1232.5,1.320091,562180,26902
1235.98,1.321841,567975,27070
1239.46,1.315046,574815,27828
1242.94,1.327645,582782,27407
1246.41,1.324330,591476,28029
1251.03,1.324136,604016,28636
1254.5,1.323556,612289,29067
1257.96,1.327468,619125,29128
1261.41,1.326203,624551,29469
1264.86,1.330083,629900,29457
1268.31,1.330067,634345,29666
1271.75,1.328510,638574,29971
1276.33,1.331128,642499,29974
1279.76,1.327667,645905,30374
1283.19,1.325818,648307,30617
1286.61,1.329881,650446,30432
1290.03,1.326759,652132,30731
1293.44,1.329000,653907,30656
1296.85,1.322850,655963,31191
1301.39,1.336239,657349,30308
1304.8,1.329073,657558,30822
1308.19,1.333597,658515,30547
1311.58,1.325940,658804,31104
1314.97,1.328429,659011,30936
1318.36,1.337766,658272,30244
1321.73,1.335410,658022,30397
1326.23,1.328899,657870,30849
1329.6,1.330396,656482,30678
1332.97,1.336344,654926,30189
1336.33,1.341166,653727,29801
1339.69,1.333451,652497,30278
1343.04,1.333943,649913,30124
1346.39,1.332802,647671,30099
1349.73,1.334785,645338,29854
1354.18,1.331305,641175,29900
1357.52,1.326755,638376,30083
1360.85,1.330158,635805,29728
1364.17,1.320574,633413,30277
1367.49,1.325831,631026,29800
1370.81,1.329455,628050,29413
1374.12,1.331653,625034,29124
1378.54,1.327676,620272,29168
1381.84,1.329642,616892,28878
1385.14,1.328713,613613,28786
1388.43,1.325893,611526,28875
1391.72,1.331170,610663,28486
1395.01,1.322142,610634,29083
1398.29,1.323781,611700,29024
1402.66,1.324416,614051,29093
1405.93,1.331812,616268,28705
1409.2,1.328596,617795,28990
1412.46,1.332857,618872,28757
1415.72,1.331636,619795,28881
1418.98,1.328040,620495,29154
1422.23,1.333127,621087,28842
1426.56,1.332456,621375,28900
1429.8,1.331409,621616,28981
1433.04,1.332442,622129,28936
1436.27,1.330552,621526,29034
1439.5,1.336835,621113,28598
1442.72,1.333538,620921,28807
1445.94,1.329644,620270,29036
1450.23,1.339745,618860,28304
1453.44,1.340788,617697,28183
1456.64,1.332400,616264,28666
1459.85,1.328029,614413,28869
1463.04,1.339951,612307,27991
1466.24,1.340559,610032,27848
1469.43,1.338376,607345,27865
1473.67,1.334939,603789,27922
1476.85,1.336851,601175,27679
1480.02,1.339045,597737,27382
1483.19,1.335547,594479,27453
1486.36,1.337892,591232,27156
1489.52,1.336139,587853,27110
1492.68,1.336067,583875,26931
1496.89,1.340107,578062,26416
1500.03,1.342974,574159,26065
1503.18,1.337360,570285,26226
1506.32,1.336049,565444,26082
1509.45,1.338309,560571,25723
1512.58,1.327762,555821,26132
1515.71,1.338528,550344,25241
1519.87,1.339107,543983,24916
1522.99,1.332712,538764,25043
1526.1,1.345202,533692,24104
1529.21,1.337770,527902,24254
1532.32,1.335883,521886,24082
1535.42,1.337276,515888,23729
1538.51,1.336880,509987,23479
1541.6,1.336364,503936,23228
1545.72,1.333043,494694,22977
1548.8,1.329832,488378,22852
1551.88,1.333385,481832,22362
1554.95,1.338845,474989,21769
1558.02,1.335583,467818,21602
1561.08,1.327868,460730,21656
1564.15,1.329921,454170,21247
1568.22,1.333651,444181,20602
1571.27,1.332291,436947,20330
1574.32,1.334558,429598,19884
1577.36,1.334673,422039,19529
1580.4,1.330197,414375,19373
1583.43,1.331112,406354,18958
1586.46,1.324767,398475,18864
1590.49,1.328001,388982,18278
1593.51,1.337628,380708,17497
1596.53,1.316819,372727,17971
1599.54,1.333990,365060,16919
1602.55,1.323723,357543,16967
1605.55,1.322262,349495,16641
1608.55,1.316626,341154,16456
1612.54,1.327880,330877,15552
1615.53,1.319780,322904,15463
1618.51,1.318402,315116,15138
1621.49,1.320956,307217,14672
1624.47,1.316802,299481,14440
1627.44,1.316823,292112,14084
1630.41,1.322845,284245,13516
1634.36,1.315988,274079,13240
1637.32,1.329986,266916,12485
1640.27,1.319504,259612,12440
1643.22,1.318529,251804,12093
1646.16,1.314144,244348,11854
1649.1,1.301550,236703,11821
1652.04,1.316828,228171,11001
1655.95,1.307301,215408,10616
1658.88,1.303318,204937,10193
1661.8,1.281780,193395,10108
1664.72,1.266146,179728,9738
1667.63,1.247049,163642,9265
1670.54,1.246045,146312,8303
1673.44,1.243574,128451,7331
1677.31,1.215815,105080,6393
1680.21,1.203700,88906,5562
1683.1,1.219730,75033,4524
1685.99,1.187381,63520,4126
1688.87,1.196951,53714,3413
1691.75,1.216833,45653,2771
1694.62,1.124979,39137,2935
1697.49,1.218552,33776,2042
1701.31,1.219160,28175,1701

File: Column 1_078360_20241121_165813.csv
Method:,Column 1,,
Host Date-Time:,21/11/24 @ 16:58:13,,
Header Version:,1,,
System Temp (C):,34.82,,
Detector Temp (C):,33.38,,
Humidity (%):,2.05,,
Lamp PD:,3801,,
Shift Vector Coefficients:,-10.5391,0.0761263,-0.000134223,,
Pixel to Wavelength Coefficients:,1775.68,-0.916766,-0.000235065,,
Serial Number:,5510004,,
Scan Config Name:,Column 1,,
Scan Config Type:,Slew,,
Section 1,,
Start wavelength (nm):,900,,
End wavelength (nm):,1700,,
Pattern Pixel Width (nm):,   7.03,,,,
Exposure (ms):,  0.635,,,,
Digital Resolution:,228,,
Num Repeats:,6,,
PGA Gain:,64,,
Total Measurement Time in sec:,  2.671,,
Wavelength (nm),Absorbance (AU),Reference Signal (unitless),Sample Signal (unitless)
901.51,1.305315,108485,5371
905.376,1.316059,121306,5859
909.237,1.350528,131909,5885
913.095,1.320236,143299,6855
916.948,1.342212,156982,7139
922.079,1.329602,179937,8424
925.923,1.328718,200504,9406
929.762,1.315427,222660,10770
933.597,1.310489,244426,11958
937.427,1.323919,263972,12521
941.254,1.318616,281845,13533
945.076,1.304832,297271,14734
950.165,1.319994,315605,15106
953.978,1.310464,328029,16049
957.786,1.313045,340470,16559
961.59,1.314115,352317,17093
965.389,1.305353,363056,17973
969.185,1.315516,373162,18046
972.976,1.312475,382632,18634
976.763,1.308309,391202,19235
981.806,1.303588,400190,19892
985.583,1.309222,406088,19925
989.355,1.304882,410162,20327
993.124,1.317832,412868,19860
996.888,1.311452,414263,20222
1000.65,1.319366,415476,19915
1004.4,1.307643,415479,20460
1009.41,1.302540,414358,20646
1013.15,1.315752,412923,19958
1016.89,1.304427,411526,20416
1020.63,1.305390,409066,20249
1024.36,1.312998,406777,19786
1028.09,1.309298,404427,19840
1031.82,1.307487,401911,19799
1036.78,1.309472,398410,19537
1040.49,1.304026,396204,19674
1044.2,1.310514,394236,19286
1047.91,1.301232,392042,19593
1051.61,1.317820,389823,18752
1055.31,1.314220,388234,18831
1059,1.312818,387599,18861
1063.92,1.315496,386688,18701
1067.61,1.315581,386598,18693
1071.29,1.314739,387377,18767
1074.96,1.311364,388536,18970
1078.63,1.315062,389855,18873
1082.3,1.313868,391215,18991
1085.96,1.314940,393215,19041
1090.84,1.322542,396270,18856
1094.49,1.318838,398760,19137
1098.14,1.318654,400987,19252
1101.79,1.319475,403477,19335
1105.43,1.313655,406116,19724
1109.06,1.316957,407701,19651
1112.7,1.314022,409859,19889
1117.53,1.315344,412494,19956
1121.15,1.313398,414909,20163
1124.77,1.321195,416559,19883
1128.38,1.321742,418532,19952
1131.99,1.322239,419956,19997
1135.6,1.323229,421946,20046
1139.2,1.328522,423881,19894
1143.99,1.324193,426786,20231
1147.58,1.315617,428617,20723
1151.17,1.317462,431169,20758
1154.75,1.329273,433579,20314
1158.33,1.322376,436264,20767
1161.91,1.316218,439132,21202
1165.48,1.325907,442389,20888
1169.04,1.317965,446101,21452
1173.79,1.315341,451929,21864
1177.34,1.315168,456026,22071
1180.9,1.318753,461306,22143
1184.44,1.321350,467657,22314
1187.99,1.317663,473969,22808
1191.52,1.321617,479856,22882
1195.06,1.328367,487372,22882
1199.76,1.324410,497347,23564
1203.29,1.319116,504311,24187
1206.81,1.319579,511507,24506
1210.33,1.321219,519078,24775
1213.84,1.321891,527163,25122
1217.35,1.321545,534208,25478
1220.85,1.328710,540472,25355
1225.51,1.322602,549929,26164
1229.01,1.327317,556888,26209
1232.5,1.328535,562180,26384
1235.98,1.320639,567975,27145
1239.46,1.328857,574815,26957
1242.94,1.323356,582782,27679
1246.41,1.325540,591476,27951
1251.03,1.321128,604016,28835
1254.5,1.323601,612289,29064
1257.96,1.325534,619125,29258
1261.41,1.323558,624551,29649
1264.86,1.332641,629900,29284
1268.31,1.328372,634345,29782
1271.75,1.329351,638574,29913
1276.33,1.330389,642499,30025
1279.76,1.331141,645905,30132
1283.19,1.325549,648307,30636
1286.61,1.332644,650446,30239
1290.03,1.329651,652132,30527
1293.44,1.334891,653907,30243
1296.85,1.330449,655963,30650
1301.39,1.332288,657349,30585
1304.8,1.334390,657558,30447
1308.19,1.335192,658515,30435
1311.58,1.332014,658804,30672
1314.97,1.335805,659011,30415
1318.36,1.329742,658272,30808
1321.73,1.332108,658022,30629
1326.23,1.330931,657870,30705
1329.6,1.334535,656482,30387
1332.97,1.333705,654926,30373
1336.33,1.333238,653727,30350
1339.69,1.332964,652497,30312
1343.04,1.335228,649913,30035
1346.39,1.330098,647671,30287
1349.73,1.332550,645338,30008
1354.18,1.333198,641175,29770
1357.52,1.328941,638376,29932
1360.85,1.337198,635805,29250
1364.17,1.328974,633413,29697
1367.49,1.335319,631026,29156
1370.81,1.327907,628050,29518
1374.12,1.325523,625034,29538
1378.54,1.328421,620272,29118
1381.84,1.330741,616892,28805
1385.14,1.327643,613613,28857
1388.43,1.324841,611526,28945
1391.72,1.327254,610663,28744
1395.01,1.333427,610634,28337
1398.29,1.334215,611700,28335
1402.66,1.330489,614051,28689
1405.93,1.331298,616268,28739
1409.2,1.332509,617795,28730
1412.46,1.331922,618872,28819
1415.72,1.332765,619795,28806
1418.98,1.333406,620495,28796
1422.23,1.330695,621087,29004
1426.56,1.333539,621375,28828
1429.8,1.332114,621616,28934
1433.04,1.329153,622129,29156
1436.27,1.333193,621526,28858
1439.5,1.339608,621113,28416
1442.72,1.334928,620921,28715
1445.94,1.339798,620270,28365
1450.23,1.327849,618860,29090
1453.44,1.329337,617697,28936
1456.64,1.331643,616264,28716
1459.85,1.340744,614413,28036
1463.04,1.336797,612307,28195
1466.24,1.338489,610032,27981
1469.43,1.335224,607345,28068
1473.67,1.338155,603789,27716
1476.85,1.336129,601175,27725
1480.02,1.336704,597737,27530
1483.19,1.333857,594479,27560
1486.36,1.339013,591232,27086
1489.52,1.342855,587853,26694
1492.68,1.334056,583875,27056
1496.89,1.338991,578062,26484
1500.03,1.342775,574159,26077
1503.18,1.344657,570285,25789
1506.32,1.343810,565444,25620
1509.45,1.343900,560571,25394
1512.58,1.338787,555821,25477
1515.71,1.335801,550344,25400
1519.87,1.334944,543983,25156
1522.99,1.331690,538764,25102
1526.1,1.341309,533692,24321
1529.21,1.342035,527902,24017
1532.32,1.328179,521886,24513
1535.42,1.336545,515888,23769
1538.51,1.339402,509987,23343
1541.6,1.337881,503936,23147
1545.72,1.338828,494694,22673
1548.8,1.339401,488378,22354
1551.88,1.333113,481832,22376
1554.95,1.336101,474989,21907
1558.02,1.328702,467818,21947
1561.08,1.333947,460730,21355
1564.15,1.334090,454170,21044
1568.22,1.332829,444181,20641
1571.27,1.331331,436947,20375
1574.32,1.339148,429598,19675
1577.36,1.339615,422039,19308
1580.4,1.334930,414375,19163
1583.43,1.332765,406354,18886
1586.46,1.337879,398475,18303
1590.49,1.332971,388982,18070
1593.51,1.327739,380708,17900
1596.53,1.334602,372727,17250
1599.54,1.329826,365060,17082
1602.55,1.333744,357543,16580
1605.55,1.327460,349495,16443
1608.55,1.328125,341154,16026
1612.54,1.330851,330877,15446
1615.53,1.324666,322904,15290
1618.51,1.327066,315116,14839
1621.49,1.328721,307217,14412
1624.47,1.317344,299481,14422
1627.44,1.330671,292112,13642
1630.41,1.322202,284245,13536
1634.36,1.319280,274079,13140
1637.32,1.335165,266916,12337
1640.27,1.311103,259612,12683
1643.22,1.318098,251804,12105
1646.16,1.318341,244348,11740
1649.1,1.310120,236703,11590
1652.04,1.320078,228171,10919
1655.95,1.305382,215408,10663
1658.88,1.301702,204937,10231
1661.8,1.299584,193395,9702
1664.72,1.285246,179728,9319
1667.63,1.255092,163642,9095
1670.54,1.251043,146312,8208
1673.44,1.227239,128451,7612
1677.31,1.187290,105080,6827
1680.21,1.176243,88906,5925
1683.1,1.175501,75033,5009
1685.99,1.148541,63520,4512
1688.87,1.162473,53714,3695
1691.75,1.172048,45653,3072
1694.62,1.151207,39137,2763
1697.49,1.183823,33776,2212
1701.31,1.264039,28175,1534