Folder: textile_sorting_NIRSCAN_/ML/samples/unknown (part 115)

File: Column 1_078832_20241121_172419.csv
Method:,Column 1,,
Host Date-Time:,21/11/24 @ 17:24:19,,
Header Version:,1,,
System Temp (C):,37.4,,
Detector Temp (C):,35.74,,
Humidity (%):,1.03,,
Lamp PD:,3797,,
Shift Vector Coefficients:,-10.5391,0.0761263,-0.000134223,,
Pixel to Wavelength Coefficients:,1775.68,-0.916766,-0.000235065,,
Serial Number:,5510004,,
Scan Config Name:,Column 1,,
Scan Config Type:,Slew,,
Section 1,,
Start wavelength (nm):,900,,
End wavelength (nm):,1700,,
Pattern Pixel Width (nm):,   7.03,,,,
Exposure (ms):,  0.635,,,,
Digital Resolution:,228,,
Num Repeats:,6,,
PGA Gain:,64,,
Total Measurement Time in sec:,  2.718,,
Wavelength (nm),Absorbance (AU),Reference Signal (unitless),Sample Signal (unitless)
901.51,1.320035,108485,5192
905.376,1.325803,121306,5729
909.237,1.335728,131909,6089
913.095,1.322969,143299,6812
916.948,1.332051,156982,7308
922.079,1.336042,179937,8300
925.923,1.334154,200504,9289
929.762,1.347338,222660,10007
933.597,1.320444,244426,11687
937.427,1.313873,263972,12814
941.254,1.317911,281845,13555
945.076,1.311994,297271,14493
950.165,1.324067,315605,14965
953.978,1.306961,328029,16179
957.786,1.310743,340470,16647
961.59,1.307284,352317,17364
965.389,1.320299,363056,17365
969.185,1.304069,373162,18528
972.976,1.306411,382632,18896
976.763,1.304443,391202,19407
981.806,1.304440,400190,19853
985.583,1.306354,406088,20057
989.355,1.308918,410162,20139
993.124,1.307418,412868,20342
996.888,1.304295,414263,20558
1000.65,1.305438,415476,20564
1004.4,1.309345,415479,20380
1009.41,1.313856,414358,20115
1013.15,1.301623,412923,20618
1016.89,1.307072,411526,20292
1020.63,1.306593,409066,20193
1024.36,1.309022,406777,19968
1028.09,1.297125,404427,20404
1031.82,1.311542,401911,19615
1036.78,1.313268,398410,19367
1040.49,1.301517,396204,19788
1044.2,1.309479,394236,19332
1047.91,1.315174,392042,18974
1051.61,1.304276,389823,19346
1055.31,1.305001,388234,19235
1059,1.306373,387599,19143
1063.92,1.306396,386688,19097
1067.61,1.312409,386598,18830
1071.29,1.301543,387377,19346
1074.96,1.310861,388536,18992
1078.63,1.309552,389855,19114
1082.3,1.317035,391215,18853
1085.96,1.317319,393215,18937
1090.84,1.308113,396270,19493
1094.49,1.312105,398760,19436
1098.14,1.322506,400987,19082
1101.79,1.323673,403477,19149
1105.43,1.316217,406116,19608
1109.06,1.318064,407701,19601
1112.7,1.317155,409859,19746
1117.53,1.319323,412494,19774
1121.15,1.316749,414909,20008
1124.77,1.310579,416559,20375
1128.38,1.320373,418532,20015
1131.99,1.322434,419956,19988
1135.6,1.318146,421946,20282
1139.2,1.321141,423881,20235
1143.99,1.318520,426786,20497
1147.58,1.310823,428617,20953
1151.17,1.315250,431169,20864
1154.75,1.312889,433579,21095
1158.33,1.316312,436264,21059
1161.91,1.316813,439132,21173
1165.48,1.315066,442389,21416
1169.04,1.313715,446101,21663
1173.79,1.318410,451929,21710
1177.34,1.322250,456026,21714
1180.9,1.319341,461306,22113
1184.44,1.317648,467657,22505
1187.99,1.313645,473969,23020
1191.52,1.309618,479856,23523
1195.06,1.314470,487372,23626
1199.76,1.317826,497347,23924
1203.29,1.320663,504311,24101
1206.81,1.321035,511507,24424
1210.33,1.314885,519078,25139
1213.84,1.319254,527163,25275
1217.35,1.323185,534208,25382
1220.85,1.322637,540472,25712
1225.51,1.321409,549929,26236
1229.01,1.318769,556888,26730
1232.5,1.316410,562180,27131
1235.98,1.319968,567975,27187
1239.46,1.315999,574815,27767
1242.94,1.317527,582782,28053
1246.41,1.321827,591476,28191
1251.03,1.321083,604016,28838
1254.5,1.324349,612289,29014
1257.96,1.319842,619125,29644
1261.41,1.325010,624551,29550
1264.86,1.322976,629900,29943
1268.31,1.323254,634345,30135
1271.75,1.321995,638574,30424
1276.33,1.325042,642499,30397
1279.76,1.327452,645905,30389
1283.19,1.331702,648307,30205
1286.61,1.323956,650446,30850
1290.03,1.321394,652132,31113
1293.44,1.321194,653907,31212
1296.85,1.326429,655963,30935
1301.39,1.323210,657349,31231
1304.8,1.330047,657558,30753
1308.19,1.327372,658515,30988
1311.58,1.327773,658804,30973
1314.97,1.325602,659011,31138
1318.36,1.323153,658272,31279
1321.73,1.327271,658022,30972
1326.23,1.324682,657870,31150
1329.6,1.327602,656482,30876
1332.97,1.334578,654926,30312
1336.33,1.328753,653727,30665
1339.69,1.328403,652497,30632
1343.04,1.323445,649913,30861
1346.39,1.331606,647671,30182
1349.73,1.330183,645338,30172
1354.18,1.321809,641175,30561
1357.52,1.324452,638376,30243
1360.85,1.326130,635805,30005
1364.17,1.324132,633413,30030
1367.49,1.323027,631026,29993
1370.81,1.327231,628050,29564
1374.12,1.328754,625034,29319
1378.54,1.319548,620272,29719
1381.84,1.325049,616892,29185
1385.14,1.319060,613613,29433
1388.43,1.327203,611526,28788
1391.72,1.325084,610663,28888
1395.01,1.323368,610634,29001
1398.29,1.324380,611700,28984
1402.66,1.327427,614051,28892
1405.93,1.330257,616268,28808
1409.2,1.324155,617795,29288
1412.46,1.334113,618872,28674
1415.72,1.330495,619795,28957
1418.98,1.332472,620495,28858
1422.23,1.328827,621087,29129
1426.56,1.333765,621375,28813
1429.8,1.328675,621616,29164
1433.04,1.325932,622129,29373
1436.27,1.332967,621526,28873
1439.5,1.332664,621113,28874
1442.72,1.329711,620921,29062
1445.94,1.328837,620270,29090
1450.23,1.333559,618860,28710
1453.44,1.333530,617697,28658
1456.64,1.332839,616264,28637
1459.85,1.331715,614413,28625
1463.04,1.325981,612307,28906
1466.24,1.334180,610032,28260
1469.43,1.333109,607345,28205
1473.67,1.332937,603789,28051
1476.85,1.332029,601175,27988
1480.02,1.332091,597737,27824
1483.19,1.331343,594479,27720
1486.36,1.330597,591232,27616
1489.52,1.334301,587853,27225
1492.68,1.330062,583875,27306
1496.89,1.332206,578062,26901
1500.03,1.329006,574159,26917
1503.18,1.331897,570285,26558
1506.32,1.335134,565444,26137
1509.45,1.332340,560571,26079
1512.58,1.334242,555821,25745
1515.71,1.335185,550344,25436
1519.87,1.327210,543983,25608
1522.99,1.335670,538764,24873
1526.1,1.334102,533692,24728
1529.21,1.336750,527902,24311
1532.32,1.341199,521886,23789
1535.42,1.332236,515888,24006
1538.51,1.338417,509987,23396
1541.6,1.338575,503936,23110
1545.72,1.329598,494694,23160
1548.8,1.328390,488378,22928
1551.88,1.330000,481832,22537
1554.95,1.337530,474989,21835
1558.02,1.327950,467818,21985
1561.08,1.333195,460730,21392
1564.15,1.331067,454170,21191
1568.22,1.327684,444181,20887
1571.27,1.325887,436947,20632
1574.32,1.323901,429598,20378
1577.36,1.339705,422039,19304
1580.4,1.330398,414375,19364
1583.43,1.323910,406354,19275
1586.46,1.331847,398475,18559
1590.49,1.317461,388982,18727
1593.51,1.325416,380708,17996
1596.53,1.331641,372727,17368
1599.54,1.329597,365060,17091
1602.55,1.316816,357543,17239
1605.55,1.319763,349495,16737
1608.55,1.317895,341154,16408
1612.54,1.322689,330877,15739
1615.53,1.310829,322904,15785
1618.51,1.322263,315116,15004
1621.49,1.317947,307217,14774
1624.47,1.314163,299481,14528
1627.44,1.314272,292112,14167
1630.41,1.309679,284245,13932
1634.36,1.313078,274079,13329
1637.32,1.313468,266916,12969
1640.27,1.308270,259612,12766
1643.22,1.296166,251804,12732
1646.16,1.304685,244348,12115
1649.1,1.294986,236703,12001
1652.04,1.291190,228171,11670
1655.95,1.293729,215408,10953
1658.88,1.283822,204937,10661
1661.8,1.295175,193395,9801
1664.72,1.251284,179728,10077
1667.63,1.233937,163642,9549
1670.54,1.219664,146312,8823
1673.44,1.200896,128451,8088
1677.31,1.186782,105080,6835
1680.21,1.142073,88906,6410
1683.1,1.140612,75033,5428
1685.99,1.129613,63520,4713
1688.87,1.173303,53714,3604
1691.75,1.190384,45653,2945
1694.62,1.189639,39137,2529
1697.49,1.209711,33776,2084
1701.31,1.164757,28175,1928

File: Column 1_078836_20241121_172431.csv
Method:,Column 1,,
Host Date-Time:,21/11/24 @ 17:24:31,,
Header Version:,1,,
System Temp (C):,37.29,,
Detector Temp (C):,35.71,,
Humidity (%):,0.68,,
Lamp PD:,3797,,
Shift Vector Coefficients:,-10.5391,0.0761263,-0.000134223,,
Pixel to Wavelength Coefficients:,1775.68,-0.916766,-0.000235065,,
Serial Number:,5510004,,
Scan Config Name:,Column 1,,
Scan Config Type:,Slew,,
Section 1,,
Start wavelength (nm):,900,,
End wavelength (nm):,1700,,
Pattern Pixel Width (nm):,   7.03,,,,
Exposure (ms):,  0.635,,,,
Digital Resolution:,228,,
Num Repeats:,6,,
PGA Gain:,64,,
Total Measurement Time in sec:,  2.721,,
Wavelength (nm),Absorbance (AU),Reference Signal (unitless),Sample Signal (unitless)
901.51,1.323141,108485,5155
905.376,1.318885,121306,5821
909.237,1.295173,131909,6685
913.095,1.296385,143299,7242
916.948,1.326853,156982,7396
922.079,1.328932,179937,8437
925.923,1.333033,200504,9313
929.762,1.316395,222660,10746
933.597,1.318073,244426,11751
937.427,1.307180,263972,13013
941.254,1.314051,281845,13676
945.076,1.313315,297271,14449
950.165,1.308896,315605,15497
953.978,1.309086,328029,16100
957.786,1.306537,340470,16809
961.59,1.305910,352317,17419
965.389,1.305812,363056,17954
969.185,1.302244,373162,18606
972.976,1.301362,382632,19117
976.763,1.293243,391202,19914
981.806,1.306391,400190,19764
985.583,1.303721,406088,20179
989.355,1.309220,410162,20125
993.124,1.301860,412868,20604
996.888,1.306583,414263,20450
1000.65,1.310558,415476,20323
1004.4,1.303230,415479,20669
1009.41,1.311530,414358,20223
1013.15,1.309701,412923,20238
1016.89,1.299372,411526,20655
1020.63,1.311437,409066,19969
1024.36,1.305513,406777,20130
1028.09,1.300351,404427,20253
1031.82,1.304819,401911,19921
1036.78,1.310407,398410,19495
1040.49,1.307929,396204,19498
1044.2,1.299113,394236,19799
1047.91,1.302364,392042,19542
1051.61,1.304658,389823,19329
1055.31,1.308857,388234,19065
1059,1.308761,387599,19038
1063.92,1.307283,386688,19058
1067.61,1.305908,386598,19114
1071.29,1.305466,387377,19172
1074.96,1.317102,388536,18721
1078.63,1.305233,389855,19305
1082.3,1.312863,391215,19035
1085.96,1.306180,393215,19429
1090.84,1.313222,396270,19265
1094.49,1.312015,398760,19440
1098.14,1.317123,400987,19320
1101.79,1.309680,403477,19776
1105.43,1.315840,406116,19625
1109.06,1.326001,407701,19246
1112.7,1.313694,409859,19904
1117.53,1.301656,412494,20595
1121.15,1.314562,414909,20109
1124.77,1.315164,416559,20161
1128.38,1.318165,418532,20117
1131.99,1.315622,419956,20304
1135.6,1.325009,421946,19964
1139.2,1.312787,423881,20628
1143.99,1.309482,426786,20928
1147.58,1.311819,428617,20905
1151.17,1.322513,431169,20518
1154.75,1.312703,433579,21104
1158.33,1.313905,436264,21176
1161.91,1.316505,439132,21188
1165.48,1.313406,442389,21498
1169.04,1.318006,446101,21450
1173.79,1.306668,451929,22305
1177.34,1.321910,456026,21731
1180.9,1.312173,461306,22481
1184.44,1.312717,467657,22762
1187.99,1.311537,473969,23132
1191.52,1.307905,479856,23616
1195.06,1.318144,487372,23427
1199.76,1.316304,497347,24008
1203.29,1.320735,504311,24097
1206.81,1.321711,511507,24386
1210.33,1.324774,519078,24573
1213.84,1.324161,527163,24991
1217.35,1.318657,534208,25648
1220.85,1.318669,540472,25948
1225.51,1.314691,549929,26645
1229.01,1.320805,556888,26605
1232.5,1.321028,562180,26844
1235.98,1.316848,567975,27383
1239.46,1.317237,574815,27688
1242.94,1.320478,582782,27863
1246.41,1.321165,591476,28234
1251.03,1.316917,604016,29116
1254.5,1.325848,612289,28914
1257.96,1.320457,619125,29602
1261.41,1.324438,624551,29589
1264.86,1.320734,629900,30098
1268.31,1.323413,634345,30124
1271.75,1.325204,638574,30200
1276.33,1.322833,642499,30552
1279.76,1.325229,645905,30545
1283.19,1.324798,648307,30689
1286.61,1.324590,650446,30805
1290.03,1.323100,652132,30991
1293.44,1.325586,653907,30898
1296.85,1.326570,655963,30925
1301.39,1.329485,657349,30783
1304.8,1.324267,657558,31165
1308.19,1.325610,658515,31114
1311.58,1.326219,658804,31084
1314.97,1.331231,659011,30737
1318.36,1.333181,658272,30565
1321.73,1.326193,658022,31049
1326.23,1.329674,657870,30794
1329.6,1.329759,656482,30723
1332.97,1.330996,654926,30563
1336.33,1.322259,653727,31127
1339.69,1.325971,652497,30804
1343.04,1.333337,649913,30166
1346.39,1.325889,647671,30582
1349.73,1.327471,645338,30361
1354.18,1.325634,641175,30293
1357.52,1.325372,638376,30179
1360.85,1.325942,635805,30018
1364.17,1.327879,633413,29772
1367.49,1.324100,631026,29919
1370.81,1.324770,628050,29732
1374.12,1.324685,625034,29595
1378.54,1.322613,620272,29510
1381.84,1.323267,616892,29305
1385.14,1.321442,613613,29272
1388.43,1.329260,611526,28652
1391.72,1.325716,610663,28846
1395.01,1.327566,610634,28722
1398.29,1.319404,611700,29318
1402.66,1.322227,614051,29240
1405.93,1.323941,616268,29230
1409.2,1.327429,617795,29068
1412.46,1.331967,618872,28816
1415.72,1.328310,619795,29103
1418.98,1.327489,620495,29191
1422.23,1.324141,621087,29445
1426.56,1.327376,621375,29240
1429.8,1.327619,621616,29235
1433.04,1.330391,622129,29073
1436.27,1.330717,621526,29023
1439.5,1.328621,621113,29144
1442.72,1.329517,620921,29075
1445.94,1.327481,620270,29181
1450.23,1.330304,618860,28926
1453.44,1.333151,617697,28683
1456.64,1.332930,616264,28631
1459.85,1.334134,614413,28466
1463.04,1.327245,612307,28822
1466.24,1.326156,610032,28787
1469.43,1.329460,607345,28443
1473.67,1.326879,603789,28445
1476.85,1.334691,601175,27817
1480.02,1.335145,597737,27629
1483.19,1.329826,594479,27817
1486.36,1.329764,591232,27669
1489.52,1.330126,587853,27488
1492.68,1.331799,583875,27197
1496.89,1.330369,578062,27015
1500.03,1.334036,574159,26607
1503.18,1.332322,570285,26532
1506.32,1.332269,565444,26310
1509.45,1.339239,560571,25668
1512.58,1.329311,555821,26039
1515.71,1.329318,550344,25782
1519.87,1.331145,543983,25377
1522.99,1.336160,538764,24845
1526.1,1.333207,533692,24779
1529.21,1.336358,527902,24333
1532.32,1.335000,521886,24131
1535.42,1.331567,515888,24043
1538.51,1.332206,509987,23733
1541.6,1.332084,503936,23458
1545.72,1.334805,494694,22884
1548.8,1.326066,488378,23051
1551.88,1.327904,481832,22646
1554.95,1.336041,474989,21910
1558.02,1.334439,467818,21659
1561.08,1.323042,460730,21898
1564.15,1.328717,454170,21306
1568.22,1.330270,444181,20763
1571.27,1.332762,436947,20308
1574.32,1.329111,429598,20135
1577.36,1.332919,422039,19608
1580.4,1.325869,414375,19567
1583.43,1.329808,406354,19015
1586.46,1.330048,398475,18636
1590.49,1.325797,388982,18371
1593.51,1.326261,380708,17961
1596.53,1.316794,372727,17972
1599.54,1.323491,365060,17333
1602.55,1.318988,357543,17153
1605.55,1.319504,349495,16747
1608.55,1.329700,341154,15968
1612.54,1.315954,330877,15985
1615.53,1.318238,322904,15518
1618.51,1.319149,315116,15112
1621.49,1.318447,307217,14757
1624.47,1.323622,299481,14215
1627.44,1.318770,292112,14021
1630.41,1.315548,284245,13745
1634.36,1.315398,274079,13258
1637.32,1.302654,266916,13296
1640.27,1.308678,259612,12754
1643.22,1.318385,251804,12097
1646.16,1.315612,244348,11814
1649.1,1.316158,236703,11430
1652.04,1.299759,228171,11442
1655.95,1.308694,215408,10582
1658.88,1.286110,204937,10605
1661.8,1.269913,193395,10388
1664.72,1.260343,179728,9869
1667.63,1.248928,163642,9225
1670.54,1.224913,146312,8717
1673.44,1.229642,128451,7570
1677.31,1.172408,105080,7065
1680.21,1.153121,88906,6249
1683.1,1.141814,75033,5413
1685.99,1.134338,63520,4662
1688.87,1.105702,53714,4211
1691.75,1.151479,45653,3221
1694.62,1.138048,39137,2848
1697.49,1.120368,33776,2560
1701.31,1.090218,28175,2289

File: Column 1_078839_20241121_172440.csv
Method:,Column 1,,
Host Date-Time:,21/11/24 @ 17:24:40,,
Header Version:,1,,
System Temp (C):,37.53,,
Detector Temp (C):,35.74,,
Humidity (%):,0.68,,
Lamp PD:,3796,,
Shift Vector Coefficients:,-10.5391,0.0761263,-0.000134223,,
Pixel to Wavelength Coefficients:,1775.68,-0.916766,-0.000235065,,
Serial Number:,5510004,,
Scan Config Name:,Column 1,,
Scan Config Type:,Slew,,
Section 1,,
Start wavelength (nm):,900,,
End wavelength (nm):,1700,,
Pattern Pixel Width (nm):,   7.03,,,,
Exposure (ms):,  0.635,,,,
Digital Resolution:,228,,
Num Repeats:,6,,
PGA Gain:,64,,
Total Measurement Time in sec:,  2.725,,
Wavelength (nm),Absorbance (AU),Reference Signal (unitless),Sample Signal (unitless)
901.51,1.322888,108485,5158
905.376,1.301983,121306,6052
909.237,1.314094,131909,6400
913.095,1.312263,143299,6982
916.948,1.327911,156982,7378
922.079,1.343750,179937,8154
925.923,1.322575,200504,9540
929.762,1.331612,222660,10376
933.597,1.321859,244426,11649
937.427,1.327401,263972,12421
941.254,1.348023,281845,12647
945.076,1.303126,297271,14792
950.165,1.318674,315605,15152
953.978,1.312879,328029,15960
957.786,1.325172,340470,16103
961.59,1.319741,352317,16873
965.389,1.306054,363056,17944
969.185,1.312758,373162,18161
972.976,1.308878,382632,18789
976.763,1.309915,391202,19164
981.806,1.312098,400190,19506
985.583,1.315943,406088,19619
989.355,1.298372,410162,20634
993.124,1.307183,412868,20353
996.888,1.302356,414263,20650
1000.65,1.311821,415476,20264
1004.4,1.307919,415479,20447
1009.41,1.306682,414358,20450
1013.15,1.304433,412923,20485
1016.89,1.314193,411526,19962
1020.63,1.310633,409066,20006
1024.36,1.308826,406777,19977
1028.09,1.310263,404427,19796
1031.82,1.319000,401911,19281
1036.78,1.315606,398410,19263
1040.49,1.318914,396204,19011
1044.2,1.318422,394236,18938
1047.91,1.315334,392042,18967
1051.61,1.319072,389823,18698
1055.31,1.304505,388234,19257
1059,1.312082,387599,18893
1063.92,1.304557,386688,19178
1067.61,1.320182,386598,18496
1071.29,1.314646,387377,18771
1074.96,1.307126,388536,19156
1078.63,1.312973,389855,18964
1082.3,1.309861,391215,19167
1085.96,1.312734,393215,19138
1090.84,1.315822,396270,19150
1094.49,1.317705,398760,19187
1098.14,1.313764,400987,19470
1101.79,1.314939,403477,19538
1105.43,1.318838,406116,19490
1109.06,1.315523,407701,19716
1112.7,1.322132,409859,19521
1117.53,1.306341,412494,20374
1121.15,1.310157,414909,20314
1124.77,1.320213,416559,19928
1128.38,1.322570,418532,19914
1131.99,1.322282,419956,19995
1135.6,1.323988,421946,20011
1139.2,1.318872,423881,20341
1143.99,1.321667,426786,20349
1147.58,1.322950,428617,20376
1151.17,1.322767,431169,20506
1154.75,1.321959,433579,20659
1158.33,1.311859,436264,21276
1161.91,1.314338,439132,21294
1165.48,1.317506,442389,21296
1169.04,1.320035,446101,21350
1173.79,1.315480,451929,21857
1177.34,1.320732,456026,21790
1180.9,1.315606,461306,22304
1184.44,1.321117,467657,22326
1187.99,1.318654,473969,22756
1191.52,1.322929,479856,22813
1195.06,1.320076,487372,23323
1199.76,1.327926,497347,23374
1203.29,1.318955,504311,24196
1206.81,1.319455,511507,24513
1210.33,1.328110,519078,24385
1213.84,1.320751,527163,25188
1217.35,1.316731,534208,25762
1220.85,1.313478,540472,26260
1225.51,1.323550,549929,26107
1229.01,1.318980,556888,26717
1232.5,1.322016,562180,26783
1235.98,1.320016,567975,27184
1239.46,1.321461,574815,27420
1242.94,1.319326,582782,27937
1246.41,1.329363,591476,27706
1251.03,1.320737,604016,28861
1254.5,1.325263,612289,28953
1257.96,1.319066,619125,29697
1261.41,1.324247,624551,29602
1264.86,1.325682,629900,29757
1268.31,1.324669,634345,30037
1271.75,1.320186,638574,30551
1276.33,1.330404,642499,30024
1279.76,1.326225,645905,30475
1283.19,1.324204,648307,30731
1286.61,1.326229,650446,30689
1290.03,1.330691,652132,30454
1293.44,1.328760,653907,30673
1296.85,1.328907,655963,30759
1301.39,1.321669,657349,31342
1304.8,1.331419,657558,30656
1308.19,1.335349,658515,30424
1311.58,1.333262,658804,30584
1314.97,1.327265,659011,31019
1318.36,1.329855,658272,30800
1321.73,1.326655,658022,31016
1326.23,1.327718,657870,30933
1329.6,1.325847,656482,31001
1332.97,1.329209,654926,30689
1336.33,1.331880,653727,30445
1339.69,1.327865,652497,30670
1343.04,1.330067,649913,30394
1346.39,1.327610,647671,30461
1349.73,1.329507,645338,30219
1354.18,1.323646,641175,30432
1357.52,1.326524,638376,30099
1360.85,1.324945,635805,30087
1364.17,1.322861,633413,30118
1367.49,1.324710,631026,29877
1370.81,1.326438,628050,29618
1374.12,1.322300,625034,29758
1378.54,1.326397,620272,29254
1381.84,1.322083,616892,29385
1385.14,1.329574,613613,28729
1388.43,1.330854,611526,28547
1391.72,1.324708,610663,28913
1395.01,1.324703,610634,28912
1398.29,1.327704,611700,28763
1402.66,1.329144,614051,28778
1405.93,1.330422,616268,28797
1409.2,1.326638,617795,29121
1412.46,1.331289,618872,28861
1415.72,1.329970,619795,28992
1418.98,1.330955,620495,28959
1422.23,1.334968,621087,28720
1426.56,1.336184,621375,28653
1429.8,1.333045,621616,28872
1433.04,1.325444,622129,29406
1436.27,1.334489,621526,28772
1439.5,1.330728,621113,29003
1442.72,1.331313,620921,28955
1445.94,1.325358,620270,29324
1450.23,1.333075,618860,28742
1453.44,1.328947,617697,28962
1456.64,1.335578,616264,28457
1459.85,1.337534,614413,28244
1463.04,1.334968,612307,28314
1466.24,1.333397,610032,28311
1469.43,1.331143,607345,28333
1473.67,1.334845,603789,27928
1476.85,1.331905,601175,27996
1480.02,1.336010,597737,27574
1483.19,1.333684,594479,27571
1486.36,1.333944,591232,27404
1489.52,1.331994,587853,27370
1492.68,1.331001,583875,27247
1496.89,1.333856,578062,26799
1500.03,1.340284,574159,26227
1503.18,1.340468,570285,26039
1506.32,1.333227,565444,26252
1509.45,1.330595,560571,26184
1512.58,1.332743,555821,25834
1515.71,1.336639,550344,25351
1519.87,1.331162,543983,25376
1522.99,1.332938,538764,25030
1526.1,1.336303,533692,24603
1529.21,1.335252,527902,24395
1532.32,1.329794,521886,24422
1535.42,1.340048,515888,23578
1538.51,1.337601,509987,23440
1541.6,1.334796,503936,23312
1545.72,1.332496,494694,23006
1548.8,1.336554,488378,22501
1551.88,1.338956,481832,22077
1554.95,1.332488,474989,22090
1558.02,1.326727,467818,22047
1561.08,1.331048,460730,21498
1564.15,1.332977,454170,21098
1568.22,1.331149,444181,20721
1571.27,1.332740,436947,20309
1574.32,1.334166,429598,19902
1577.36,1.336455,422039,19449
1580.4,1.327938,414375,19474
1583.43,1.341053,406354,18529
1586.46,1.335324,398475,18411
1590.49,1.330383,388982,18178
1593.51,1.333946,380708,17646
1596.53,1.333747,372727,17284
1599.54,1.327974,365060,17155
1602.55,1.329391,357543,16747
1605.55,1.324328,349495,16562
1608.55,1.328017,341154,16030
1612.54,1.322634,330877,15741
1615.53,1.322400,322904,15370
1618.51,1.317456,315116,15171
1621.49,1.306975,307217,15152
1624.47,1.324999,299481,14170
1627.44,1.321910,292112,13920
1630.41,1.317924,284245,13670
1634.36,1.314645,274079,13281
1637.32,1.323975,266916,12659
1640.27,1.314403,259612,12587
1643.22,1.316808,251804,12141
1646.16,1.303218,244348,12156
1649.1,1.306687,236703,11682
1652.04,1.300024,228171,11435
1655.95,1.307546,215408,10610
1658.88,1.285373,204937,10623
1661.8,1.275849,193395,10247
1664.72,1.282552,179728,9377
1667.63,1.256383,163642,9068
1670.54,1.215012,146312,8918
1673.44,1.222642,128451,7693
1677.31,1.184753,105080,6867
1680.21,1.179406,88906,5882
1683.1,1.148770,75033,5327
1685.99,1.150084,63520,4496
1688.87,1.173182,53714,3605
1691.75,1.153912,45653,3203
1694.62,1.089751,39137,3183
1697.49,1.131016,33776,2498
1701.31,1.152760,28175,1982