Folder: textile_sorting_NIRSCAN_/ML/samples/unknown (part 32)

File: Column 1_078211_20241121_165055.csv
Method:,Column 1,,
Host Date-Time:,21/11/24 @ 16:50:55,,
Header Version:,1,,
System Temp (C):,34.02,,
Detector Temp (C):,30.88,,
Humidity (%):,2.94,,
Lamp PD:,3803,,
Shift Vector Coefficients:,-10.5391,0.0761263,-0.000134223,,
Pixel to Wavelength Coefficients:,1775.68,-0.916766,-0.000235065,,
Serial Number:,5510004,,
Scan Config Name:,Column 1,,
Scan Config Type:,Slew,,
Section 1,,
Start wavelength (nm):,900,,
End wavelength (nm):,1700,,
Pattern Pixel Width (nm):,   7.03,,,,
Exposure (ms):,  0.635,,,,
Digital Resolution:,228,,
Num Repeats:,6,,
PGA Gain:,64,,
Total Measurement Time in sec:,  2.727,,
Wavelength (nm),Absorbance (AU),Reference Signal (unitless),Sample Signal (unitless)
901.51,1.324069,108485,5144
905.376,1.311928,121306,5915
909.237,1.313959,131909,6402
913.095,1.311518,143299,6994
916.948,1.308908,156982,7708
922.079,1.311379,179937,8785
925.923,1.331823,200504,9339
929.762,1.315386,222660,10771
933.597,1.327148,244426,11508
937.427,1.319776,263972,12641
941.254,1.312435,281845,13727
945.076,1.307582,297271,14641
950.165,1.311341,315605,15410
953.978,1.308655,328029,16116
957.786,1.320398,340470,16281
961.59,1.311936,352317,17179
965.389,1.308238,363056,17854
969.185,1.310516,373162,18255
972.976,1.308970,382632,18785
976.763,1.308015,391202,19248
981.806,1.316237,400190,19321
985.583,1.309680,406088,19904
989.355,1.307432,410162,20208
993.124,1.306650,412868,20378
996.888,1.312872,414263,20156
1000.65,1.309470,415476,20374
1004.4,1.308238,415479,20432
1009.41,1.307277,414358,20422
1013.15,1.304285,412923,20492
1016.89,1.311309,411526,20095
1020.63,1.317019,409066,19714
1024.36,1.307719,406777,20028
1028.09,1.308096,404427,19895
1031.82,1.306151,401911,19860
1036.78,1.308274,398410,19591
1040.49,1.320355,396204,18948
1044.2,1.309524,394236,19330
1047.91,1.312914,392042,19073
1051.61,1.312000,389823,19005
1055.31,1.317577,388234,18686
1059,1.304968,387599,19205
1063.92,1.299067,386688,19422
1067.61,1.313749,386598,18772
1071.29,1.313284,387377,18830
1074.96,1.313383,388536,18882
1078.63,1.305188,389855,19307
1082.3,1.317173,391215,18847
1085.96,1.305621,393215,19454
1090.84,1.315482,396270,19165
1094.49,1.321501,398760,19020
1098.14,1.322324,400987,19090
1101.79,1.320667,403477,19282
1105.43,1.314471,406116,19687
1109.06,1.313501,407701,19808
1112.7,1.319449,409859,19642
1117.53,1.322143,412494,19646
1121.15,1.316489,414909,20020
1124.77,1.316178,416559,20114
1128.38,1.314661,418532,20280
1131.99,1.326013,419956,19824
1135.6,1.330460,421946,19715
1139.2,1.316423,423881,20456
1143.99,1.324450,426786,20219
1147.58,1.330757,428617,20013
1151.17,1.318027,431169,20731
1154.75,1.317192,433579,20887
1158.33,1.324157,436264,20682
1161.91,1.313889,439132,21316
1165.48,1.320514,442389,21149
1169.04,1.315784,446101,21560
1173.79,1.311071,451929,22080
1177.34,1.314440,456026,22108
1180.9,1.315704,461306,22299
1184.44,1.326381,467657,22057
1187.99,1.319437,473969,22715
1191.52,1.321086,479856,22910
1195.06,1.328139,487372,22894
1199.76,1.325259,497347,23518
1203.29,1.322777,504311,23984
1206.81,1.317352,511507,24632
1210.33,1.332172,519078,24158
1213.84,1.324005,527163,25000
1217.35,1.317693,534208,25705
1220.85,1.326881,540472,25462
1225.51,1.319658,549929,26342
1229.01,1.322998,556888,26471
1232.5,1.317660,562180,27053
1235.98,1.323690,567975,26955
1239.46,1.330002,574815,26886
1242.94,1.325195,582782,27562
1246.41,1.323865,591476,28059
1251.03,1.320587,604016,28871
1254.5,1.327112,612289,28830
1257.96,1.325237,619125,29278
1261.41,1.325540,624551,29514
1264.86,1.329965,629900,29465
1268.31,1.327876,634345,29816
1271.75,1.334404,638574,29567
1276.33,1.326186,642499,30317
1279.76,1.330896,645905,30149
1283.19,1.329422,648307,30364
1286.61,1.325946,650446,30709
1290.03,1.332077,652132,30357
1293.44,1.333944,653907,30309
1296.85,1.329600,655963,30710
1301.39,1.334951,657349,30398
1304.8,1.326026,657558,31039
1308.19,1.331144,658515,30720
1311.58,1.327801,658804,30971
1314.97,1.333711,659011,30562
1318.36,1.333479,658272,30544
1321.73,1.333784,658022,30511
1326.23,1.324654,657870,31152
1329.6,1.329957,656482,30709
1332.97,1.334649,654926,30307
1336.33,1.328739,653727,30666
1339.69,1.337023,652497,30030
1343.04,1.330654,649913,30353
1346.39,1.326429,647671,30544
1349.73,1.333637,645338,29933
1354.18,1.332629,641175,29809
1357.52,1.331999,638376,29722
1360.85,1.334563,635805,29428
1364.17,1.326830,633413,29844
1367.49,1.329475,631026,29551
1370.81,1.327319,628050,29558
1374.12,1.328695,625034,29323
1378.54,1.329795,620272,29026
1381.84,1.330395,616892,28828
1385.14,1.324450,613613,29070
1388.43,1.330748,611526,28554
1391.72,1.330409,610663,28536
1395.01,1.333672,610634,28321
1398.29,1.324905,611700,28949
1402.66,1.328013,614051,28853
1405.93,1.335291,616268,28476
1409.2,1.329361,617795,28939
1412.46,1.330312,618872,28926
1415.72,1.339174,619795,28384
1418.98,1.333557,620495,28786
1422.23,1.334394,621087,28758
1426.56,1.330118,621375,29056
1429.8,1.336974,621616,28612
1433.04,1.331992,622129,28966
1436.27,1.330508,621526,29037
1439.5,1.333627,621113,28810
1442.72,1.333086,620921,28837
1445.94,1.336701,620270,28568
1450.23,1.336549,618860,28513
1453.44,1.336495,617697,28463
1456.64,1.335471,616264,28464
1459.85,1.341039,614413,28017
1463.04,1.337769,612307,28132
1466.24,1.333198,610032,28324
1469.43,1.334513,607345,28114
1473.67,1.331006,603789,28176
1476.85,1.330496,601175,28087
1480.02,1.338696,597737,27404
1483.19,1.336022,594479,27423
1486.36,1.329419,591232,27691
1489.52,1.338613,587853,26956
1492.68,1.334763,583875,27012
1496.89,1.334602,578062,26753
1500.03,1.342242,574159,26109
1503.18,1.338953,570285,26130
1506.32,1.339241,565444,25891
1509.45,1.339476,560571,25654
1512.58,1.336237,555821,25627
1515.71,1.348853,550344,24648
1519.87,1.339055,543983,24919
1522.99,1.334502,538764,24940
1526.1,1.333751,533692,24748
1529.21,1.336643,527902,24317
1532.32,1.339141,521886,23902
1535.42,1.334085,515888,23904
1538.51,1.335107,509987,23575
1541.6,1.335392,503936,23280
1545.72,1.346441,494694,22279
1548.8,1.336207,488378,22519
1551.88,1.336445,481832,22205
1554.95,1.331094,474989,22161
1558.02,1.338488,467818,21458
1561.08,1.336926,460730,21209
1564.15,1.332936,454170,21100
1568.22,1.326314,444181,20953
1571.27,1.330713,436947,20404
1574.32,1.333599,429598,19928
1577.36,1.326958,422039,19879
1580.4,1.333527,414375,19225
1583.43,1.333593,406354,18850
1586.46,1.328513,398475,18702
1590.49,1.330001,388982,18194
1593.51,1.322985,380708,18097
1596.53,1.331041,372727,17392
1599.54,1.326331,365060,17220
1602.55,1.325853,357543,16884
1605.55,1.323019,349495,16612
1608.55,1.330435,341154,15941
1612.54,1.324404,330877,15677
1615.53,1.329120,322904,15134
1618.51,1.331774,315116,14679
1621.49,1.323807,307217,14576
1624.47,1.323836,299481,14208
1627.44,1.327721,292112,13735
1630.41,1.319707,284245,13614
1634.36,1.320803,274079,13094
1637.32,1.322673,266916,12697
1640.27,1.318006,259612,12483
1643.22,1.321122,251804,12021
1646.16,1.327122,244348,11505
1649.1,1.318749,236703,11362
1652.04,1.317975,228171,10972
1655.95,1.322665,215408,10247
1658.88,1.308893,204937,10063
1661.8,1.301963,193395,9649
1664.72,1.292199,179728,9171
1667.63,1.282284,163642,8543
1670.54,1.241311,146312,8394
1673.44,1.265629,128451,6968
1677.31,1.243224,105080,6002
1680.21,1.233178,88906,5197
1683.1,1.229535,75033,4423
1685.99,1.249149,63520,3579
1688.87,1.250224,53714,3019
1691.75,1.215268,45653,2781
1694.62,1.238479,39137,2260
1697.49,1.280880,33776,1769
1701.31,1.150357,28175,1993

File: Column 1_078214_20241121_165104.csv
Method:,Column 1,,
Host Date-Time:,21/11/24 @ 16:51:4,,
Header Version:,1,,
System Temp (C):,33.92,,
Detector Temp (C):,30.98,,
Humidity (%):,2.94,,
Lamp PD:,3803,,
Shift Vector Coefficients:,-10.5391,0.0761263,-0.000134223,,
Pixel to Wavelength Coefficients:,1775.68,-0.916766,-0.000235065,,
Serial Number:,5510004,,
Scan Config Name:,Column 1,,
Scan Config Type:,Slew,,
Section 1,,
Start wavelength (nm):,900,,
End wavelength (nm):,1700,,
Pattern Pixel Width (nm):,   7.03,,,,
Exposure (ms):,  0.635,,,,
Digital Resolution:,228,,
Num Repeats:,6,,
PGA Gain:,64,,
Total Measurement Time in sec:,  2.724,,
Wavelength (nm),Absorbance (AU),Reference Signal (unitless),Sample Signal (unitless)
901.51,1.315624,108485,5245
905.376,1.309438,121306,5949
909.237,1.302841,131909,6568
913.095,1.307315,143299,7062
916.948,1.328265,156982,7372
922.079,1.316501,179937,8682
925.923,1.322985,200504,9531
929.762,1.312172,222660,10851
933.597,1.308966,244426,12000
937.427,1.327401,263972,12421
941.254,1.316887,281845,13587
945.076,1.314127,297271,14422
950.165,1.322012,315605,15036
953.978,1.313342,328029,15943
957.786,1.308817,340470,16721
961.59,1.306834,352317,17382
965.389,1.317830,363056,17464
969.185,1.308238,373162,18351
972.976,1.304439,382632,18982
976.763,1.309258,391202,19193
981.806,1.302519,400190,19941
985.583,1.306181,406088,20065
989.355,1.319063,410162,19674
993.124,1.319651,412868,19777
996.888,1.305268,414263,20512
1000.65,1.312958,415476,20211
1004.4,1.306795,415479,20500
1009.41,1.311831,414358,20209
1013.15,1.312500,412923,20108
1016.89,1.308015,411526,20248
1020.63,1.314865,409066,19812
1024.36,1.317211,406777,19595
1028.09,1.304791,404427,20047
1031.82,1.306348,401911,19851
1036.78,1.304675,398410,19754
1040.49,1.309223,396204,19440
1044.2,1.308806,394236,19362
1047.91,1.312640,392042,19085
1051.61,1.307385,389823,19208
1055.31,1.308606,388234,19076
1059,1.311370,387599,18924
1063.92,1.310531,386688,18916
1067.61,1.313680,386598,18775
1071.29,1.307669,387377,19075
1074.96,1.312074,388536,18939
1078.63,1.314395,389855,18902
1082.3,1.308278,391215,19237
1085.96,1.313210,393215,19117
1090.84,1.315664,396270,19157
1094.49,1.321775,398760,19008
1098.14,1.328903,400987,18803
1101.79,1.312943,403477,19628
1105.43,1.307338,406116,20013
1109.06,1.306520,407701,20129
1112.7,1.323894,409859,19442
1117.53,1.304173,412494,20476
1121.15,1.319777,414909,19869
1124.77,1.315790,416559,20132
1128.38,1.310356,418532,20482
1131.99,1.319770,419956,20111
1135.6,1.312804,421946,20533
1139.2,1.320005,423881,20288
1143.99,1.316216,426786,20606
1147.58,1.321546,428617,20442
1151.17,1.316292,431169,20814
1154.75,1.313857,433579,21048
1158.33,1.321790,436264,20795
1161.91,1.322490,439132,20898
1165.48,1.317771,442389,21283
1169.04,1.317379,446101,21481
1173.79,1.311327,451929,22067
1177.34,1.314715,456026,22094
1180.9,1.321349,461306,22011
1184.44,1.318112,467657,22481
1187.99,1.316959,473969,22845
1191.52,1.326407,479856,22631
1195.06,1.318404,487372,23413
1199.76,1.320192,497347,23794
1203.29,1.330615,504311,23555
1206.81,1.323549,511507,24283
1210.33,1.316806,519078,25028
1213.84,1.324196,527163,24989
1217.35,1.323818,534208,25345
1220.85,1.328761,540472,25352
1225.51,1.321392,549929,26237
1229.01,1.322915,556888,26476
1232.5,1.318142,562180,27023
1235.98,1.322998,567975,26998
1239.46,1.323095,574815,27317
1242.94,1.318457,582782,27993
1246.41,1.325664,591476,27943
1251.03,1.325747,604016,28530
1254.5,1.324229,612289,29022
1257.96,1.323401,619125,29402
1261.41,1.328685,624551,29301
1264.86,1.331131,629900,29386
1268.31,1.326843,634345,29887
1271.75,1.325176,638574,30202
1276.33,1.328297,642499,30170
1279.76,1.326111,645905,30483
1283.19,1.334009,648307,30045
1286.61,1.329239,650446,30477
1290.03,1.328231,652132,30627
1293.44,1.333744,653907,30323
1296.85,1.335580,655963,30290
1301.39,1.328161,657349,30877
1304.8,1.335232,657558,30388
1308.19,1.325931,658515,31091
1311.58,1.325061,658804,31167
1314.97,1.329947,659011,30828
1318.36,1.333622,658272,30534
1321.73,1.333485,658022,30532
1326.23,1.330521,657870,30734
1329.6,1.335265,656482,30336
1332.97,1.336085,654926,30207
1336.33,1.333739,653727,30315
1339.69,1.331262,652497,30431
1343.04,1.333784,649913,30135
1346.39,1.333871,647671,30025
1349.73,1.326771,645338,30410
1354.18,1.329031,641175,30057
1357.52,1.329987,638376,29860
1360.85,1.326768,635805,29961
1364.17,1.323279,633413,30089
1367.49,1.328814,631026,29596
1370.81,1.328319,628050,29490
1374.12,1.322855,625034,29720
1378.54,1.324456,620272,29385
1381.84,1.326256,616892,29104
1385.14,1.323644,613613,29124
1388.43,1.332730,611526,28424
1391.72,1.331094,610663,28491
1395.01,1.326464,610634,28795
1398.29,1.329171,611700,28666
1402.66,1.335223,614051,28378
1405.93,1.329729,616268,28843
1409.2,1.335010,617795,28565
1412.46,1.337183,618872,28472
1415.72,1.330524,619795,28955
1418.98,1.333180,620495,28811
1422.23,1.336953,621087,28589
1426.56,1.328909,621375,29137
1429.8,1.331229,621616,28993
1433.04,1.336832,622129,28645
1436.27,1.328895,621526,29145
1439.5,1.337549,621113,28551
1442.72,1.333991,620921,28777
1445.94,1.334684,620270,28701
1450.23,1.336412,618860,28522
1453.44,1.330299,617697,28872
1456.64,1.338718,616264,28252
1459.85,1.334485,614413,28443
1463.04,1.330254,612307,28623
1466.24,1.333489,610032,28305
1469.43,1.332356,607345,28254
1473.67,1.336778,603789,27804
1476.85,1.336223,601175,27719
1480.02,1.338142,597737,27439
1483.19,1.329420,594479,27843
1486.36,1.336423,591232,27248
1489.52,1.342774,587853,26699
1492.68,1.337068,583875,26869
1496.89,1.339089,578062,26478
1500.03,1.338746,574159,26320
1503.18,1.337012,570285,26247
1506.32,1.334039,565444,26203
1509.45,1.334594,560571,25944
1512.58,1.336186,555821,25630
1515.71,1.338958,550344,25216
1519.87,1.338950,543983,24925
1522.99,1.338297,538764,24723
1526.1,1.340150,533692,24386
1529.21,1.337806,527902,24252
1532.32,1.340634,521886,23820
1535.42,1.337770,515888,23702
1538.51,1.330781,509987,23811
1541.6,1.329868,503936,23578
1545.72,1.333308,494694,22963
1548.8,1.340004,488378,22323
1551.88,1.339664,481832,22041
1554.95,1.337093,474989,21857
1558.02,1.329355,467818,21914
1561.08,1.325070,460730,21796
1564.15,1.348761,454170,20345
1568.22,1.339765,444181,20314
1571.27,1.335056,436947,20201
1574.32,1.334056,429598,19907
1577.36,1.331924,422039,19653
1580.4,1.341369,414375,18881
1583.43,1.325965,406354,19184
1586.46,1.328699,398475,18694
1590.49,1.327621,388982,18294
1593.51,1.330343,380708,17793
1596.53,1.326199,372727,17587
1599.54,1.322389,365060,17377
1602.55,1.315609,357543,17287
1605.55,1.334033,349495,16196
1608.55,1.329428,341154,15978
1612.54,1.320927,330877,15803
1615.53,1.324325,322904,15302
1618.51,1.318947,315116,15119
1621.49,1.325658,307217,14514
1624.47,1.317163,299481,14428
1627.44,1.312894,292112,14212
1630.41,1.322523,284245,13526
1634.36,1.327825,274079,12884
1637.32,1.321342,266916,12736
1640.27,1.323714,259612,12320
1643.22,1.313565,251804,12232
1646.16,1.312681,244348,11894
1649.1,1.316880,236703,11411
1652.04,1.317816,228171,10976
1655.95,1.318699,215408,10341
1658.88,1.299501,204937,10283
1661.8,1.304355,193395,9596
1664.72,1.293147,179728,9151
1667.63,1.263871,163642,8913
1670.54,1.263005,146312,7985
1673.44,1.249479,128451,7232
1677.31,1.245837,105080,5966
1680.21,1.198963,88906,5623
1683.1,1.192386,75033,4818
1685.99,1.264966,63520,3451
1688.87,1.219677,53714,3239
1691.75,1.246841,45653,2586
1694.62,1.214553,39137,2388
1697.49,1.197789,33776,2142
1701.31,1.140447,28175,2039

File: Column 1_078215_20241121_165107.csv
Method:,Column 1,,
Host Date-Time:,21/11/24 @ 16:51:7,,
Header Version:,1,,
System Temp (C):,33.95,,
Detector Temp (C):,31.02,,
Humidity (%):,2.99,,
Lamp PD:,3803,,
Shift Vector Coefficients:,-10.5391,0.0761263,-0.000134223,,
Pixel to Wavelength Coefficients:,1775.68,-0.916766,-0.000235065,,
Serial Number:,5510004,,
Scan Config Name:,Column 1,,
Scan Config Type:,Slew,,
Section 1,,
Start wavelength (nm):,900,,
End wavelength (nm):,1700,,
Pattern Pixel Width (nm):,   7.03,,,,
Exposure (ms):,  0.635,,,,
Digital Resolution:,228,,
Num Repeats:,6,,
PGA Gain:,64,,
Total Measurement Time in sec:,  2.724,,
Wavelength (nm),Absorbance (AU),Reference Signal (unitless),Sample Signal (unitless)
901.51,1.314549,108485,5258
905.376,1.324139,121306,5751
909.237,1.357671,131909,5789
913.095,1.314071,143299,6953
916.948,1.301423,156982,7842
922.079,1.313311,179937,8746
925.923,1.304824,200504,9938
929.762,1.295834,222660,11267
933.597,1.326544,244426,11524
937.427,1.321774,263972,12583
941.254,1.314242,281845,13670
945.076,1.320131,297271,14224
950.165,1.308168,315605,15523
953.978,1.313179,328029,15949
957.786,1.319891,340470,16300
961.59,1.316638,352317,16994
965.389,1.313032,363056,17658
969.185,1.306513,373162,18424
972.976,1.311707,382632,18667
976.763,1.309666,391202,19175
981.806,1.312232,400190,19500
985.583,1.306571,406088,20047
989.355,1.305010,410162,20321
993.124,1.302915,412868,20554
996.888,1.310101,414263,20285
1000.65,1.300733,415476,20788
1004.4,1.310326,415479,20334
1009.41,1.304966,414358,20531
1013.15,1.302213,412923,20590
1016.89,1.308230,411526,20238
1020.63,1.305540,409066,20242
1024.36,1.317721,406777,19572
1028.09,1.307050,404427,19943
1031.82,1.307706,401911,19789
1036.78,1.313559,398410,19354
1040.49,1.312024,396204,19315
1044.2,1.300519,394236,19735
1047.91,1.310937,392042,19160
1051.61,1.306346,389823,19254
1055.31,1.309609,388234,19032
1059,1.313002,387599,18853
1063.92,1.311957,386688,18854
1067.61,1.315093,386598,18714
1071.29,1.310158,387377,18966
1074.96,1.319288,388536,18627
1078.63,1.312515,389855,18984
1082.3,1.312110,391215,19068
1085.96,1.326919,393215,18523
1090.84,1.315211,396270,19177
1094.49,1.329079,398760,18691
1098.14,1.307739,400987,19742
1101.79,1.313430,403477,19606
1105.43,1.318638,406116,19499
1109.06,1.318241,407701,19593
1112.7,1.321066,409859,19569
1117.53,1.309851,412494,20210
1121.15,1.320608,414909,19831
1124.77,1.311603,416559,20327
1128.38,1.315132,418532,20258
1131.99,1.317208,419956,20230
1135.6,1.322299,421946,20089
1139.2,1.316933,423881,20432
1143.99,1.315437,426786,20643
1147.58,1.327041,428617,20185
1151.17,1.316709,431169,20794
1154.75,1.318379,433579,20830
1158.33,1.321144,436264,20826
1161.91,1.322033,439132,20920
1165.48,1.320514,442389,21149
1169.04,1.317783,446101,21461
1173.79,1.328243,451929,21224
1177.34,1.315817,456026,22038
1180.9,1.317812,461306,22191
1184.44,1.315531,467657,22615
1187.99,1.317301,473969,22827
1191.52,1.319232,479856,23008
1195.06,1.323066,487372,23163
1199.76,1.319463,497347,23834
1203.29,1.321078,504311,24078
1206.81,1.318411,511507,24572
1210.33,1.321166,519078,24778
1213.84,1.317642,527163,25369
1217.35,1.319470,534208,25600
1220.85,1.317399,540472,26024
1225.51,1.324866,549929,26028
1229.01,1.329427,556888,26082
1232.5,1.325631,562180,26561
1235.98,1.323432,567975,26971
1239.46,1.323891,574815,27267
1242.94,1.323042,582782,27699
1246.41,1.327393,591476,27832
1251.03,1.321023,604016,28842
1254.5,1.328470,612289,28740
1257.96,1.329995,619125,28959
1261.41,1.325084,624551,29545
1264.86,1.327408,629900,29639
1268.31,1.325552,634345,29976
1271.75,1.319547,638574,30596
1276.33,1.324842,642499,30411
1279.76,1.332107,645905,30065
1283.19,1.323851,648307,30756
1286.61,1.325960,650446,30708
1290.03,1.331291,652132,30412
1293.44,1.332071,653907,30440
1296.85,1.331243,655963,30594
1301.39,1.333596,657349,30493
1304.8,1.332809,657558,30558
1308.19,1.328663,658515,30896
1311.58,1.324351,658804,31218
1314.97,1.334707,659011,30492
1318.36,1.334405,658272,30479
1321.73,1.332051,658022,30633
1326.23,1.330253,657870,30753
1329.6,1.331047,656482,30632
1332.97,1.329422,654926,30674
1336.33,1.332309,653727,30415
1339.69,1.335075,652497,30165
1343.04,1.328370,649913,30513
1346.39,1.330242,647671,30277
1349.73,1.337192,645338,29689
1354.18,1.330594,641175,29949
1357.52,1.328317,638376,29975
1360.85,1.329297,635805,29787
1364.17,1.330997,633413,29559
1367.49,1.331213,631026,29433
1370.81,1.329942,628050,29380
1374.12,1.323176,625034,29698
1378.54,1.323880,620272,29424
1381.84,1.328441,616892,28958
1385.14,1.331529,613613,28600
1388.43,1.325607,611526,28894
1391.72,1.334799,610663,28249
1395.01,1.330525,610634,28527
1398.29,1.322094,611700,29137
1402.66,1.326286,614051,28968
1405.93,1.330407,616268,28798
1409.2,1.333250,617795,28681
1412.46,1.325252,618872,29265
1415.72,1.332042,619795,28854
1418.98,1.334993,620495,28691
1422.23,1.335967,621087,28654
1426.56,1.327748,621375,29215
1429.8,1.331784,621616,28956
1433.04,1.336756,622129,28650
1436.27,1.332787,621526,28885
1439.5,1.334956,621113,28722
1442.72,1.335730,620921,28662
1445.94,1.336853,620270,28558
1450.23,1.331914,618860,28819
1453.44,1.340958,617697,28172
1456.64,1.336510,616264,28396
1459.85,1.336398,614413,28318
1463.04,1.334079,612307,28372
1466.24,1.329442,610032,28570
1469.43,1.330408,607345,28381
1473.67,1.340275,603789,27581
1476.85,1.335003,601175,27797
1480.02,1.339616,597737,27346
1483.19,1.338818,594479,27247
1486.36,1.342151,591232,26891
1489.52,1.339371,587853,26909
1492.68,1.345490,583875,26353
1496.89,1.333921,578062,26795
1500.03,1.332196,574159,26720
1503.18,1.339768,570285,26081
1506.32,1.336549,565444,26052
1509.45,1.342261,560571,25490
1512.58,1.332743,555821,25834
1515.71,1.332615,550344,25587
1519.87,1.337003,543983,25037
1522.99,1.337701,538764,24757
1526.1,1.336903,533692,24569
1529.21,1.337967,527902,24243
1532.32,1.330702,521886,24371
1535.42,1.334940,515888,23857
1538.51,1.342896,509987,23156
1541.6,1.337731,503936,23155
1545.72,1.339019,494694,22663
1548.8,1.327576,488378,22971
1551.88,1.342908,481832,21877
1554.95,1.340244,474989,21699
1558.02,1.334318,467818,21665
1561.08,1.335822,460730,21263
1564.15,1.335247,454170,20988
1568.22,1.329225,444181,20813
1571.27,1.334476,436947,20228
1574.32,1.337913,429598,19731
1577.36,1.330666,422039,19710
1580.4,1.333821,414375,19212
1583.43,1.333708,406354,18845
1586.46,1.333582,398475,18485
1590.49,1.331005,388982,18152
1593.51,1.328370,380708,17874
1596.53,1.327906,372727,17518
1599.54,1.324921,365060,17276
1602.55,1.334452,357543,16553
1605.55,1.330774,349495,16318
1608.55,1.327448,341154,16051
1612.54,1.322800,330877,15735
1615.53,1.334171,322904,14959
1618.51,1.327534,315116,14823
1621.49,1.322884,307217,14607
1624.47,1.338003,299481,13752
1627.44,1.305621,292112,14452
1630.41,1.325100,284245,13446
1634.36,1.318191,274079,13173
1637.32,1.323804,266916,12664
1640.27,1.330786,259612,12121
1643.22,1.307851,251804,12394
1646.16,1.333779,244348,11330
1649.1,1.308736,236703,11627
1652.04,1.314074,228171,11071
1655.95,1.301328,215408,10763
1658.88,1.299585,204937,10281
1661.8,1.305125,193395,9579
1664.72,1.288474,179728,9250
1667.63,1.266559,163642,8858
1670.54,1.260456,146312,8032
1673.44,1.245474,128451,7299
1677.31,1.212769,105080,6438
1680.21,1.200976,88906,5597
1683.1,1.211457,75033,4611
1685.99,1.223699,63520,3795
1688.87,1.198353,53714,3402
1691.75,1.237044,45653,2645
1694.62,1.193953,39137,2504
1697.49,1.216431,33776,2052
1701.31,1.207322,28175,1748