Folder: textile_sorting_NIRSCAN_/ML/samples/unknown (part 97)

File: Column 1_078686_20241121_171717.csv
Method:,Column 1,,
Host Date-Time:,21/11/24 @ 17:17:17,,
Header Version:,1,,
System Temp (C):,34.52,,
Detector Temp (C):,34.74,,
Humidity (%):,1.56,,
Lamp PD:,3801,,
Shift Vector Coefficients:,-10.5391,0.0761263,-0.000134223,,
Pixel to Wavelength Coefficients:,1775.68,-0.916766,-0.000235065,,
Serial Number:,5510004,,
Scan Config Name:,Column 1,,
Scan Config Type:,Slew,,
Section 1,,
Start wavelength (nm):,900,,
End wavelength (nm):,1700,,
Pattern Pixel Width (nm):,   7.03,,,,
Exposure (ms):,  0.635,,,,
Digital Resolution:,228,,
Num Repeats:,6,,
PGA Gain:,64,,
Total Measurement Time in sec:,  2.726,,
Wavelength (nm),Absorbance (AU),Reference Signal (unitless),Sample Signal (unitless)
901.51,1.299851,108485,5439
905.376,1.321579,121306,5785
909.237,1.320383,131909,6308
913.095,1.322905,143299,6813
916.948,1.298058,156982,7903
922.079,1.318255,179937,8647
925.923,1.313163,200504,9749
929.762,1.324513,222660,10547
933.597,1.322083,244426,11643
937.427,1.315129,263972,12777
941.254,1.313131,281845,13705
945.076,1.324612,297271,14078
950.165,1.310834,315605,15428
953.978,1.311358,328029,16016
957.786,1.311108,340470,16633
961.59,1.304989,352317,17456
965.389,1.305111,363056,17983
969.185,1.307363,373162,18388
972.976,1.307309,382632,18857
976.763,1.301121,391202,19556
981.806,1.302171,400190,19957
985.583,1.301616,406088,20277
989.355,1.300672,410162,20525
993.124,1.303570,412868,20523
996.888,1.299255,414263,20798
1000.65,1.299461,415476,20849
1004.4,1.306351,415479,20521
1009.41,1.302687,414358,20639
1013.15,1.302339,412923,20584
1016.89,1.304618,411526,20407
1020.63,1.304340,409066,20298
1024.36,1.297708,406777,20495
1028.09,1.308773,404427,19864
1031.82,1.303665,401911,19974
1036.78,1.310340,398410,19498
1040.49,1.306372,396204,19568
1044.2,1.299267,394236,19792
1047.91,1.303543,392042,19489
1051.61,1.306053,389823,19267
1055.31,1.303716,388234,19292
1059,1.309515,387599,19005
1063.92,1.307147,386688,19064
1067.61,1.299794,386598,19385
1071.29,1.304267,387377,19225
1074.96,1.307331,388536,19147
1078.63,1.309824,389855,19102
1082.3,1.310224,391215,19151
1085.96,1.305286,393215,19469
1090.84,1.307979,396270,19499
1094.49,1.308478,398760,19599
1098.14,1.304911,400987,19871
1101.79,1.301738,403477,20141
1105.43,1.311546,406116,19820
1109.06,1.311271,407701,19910
1112.7,1.313345,409859,19920
1117.53,1.308178,412494,20288
1121.15,1.310371,414909,20304
1124.77,1.309344,416559,20433
1128.38,1.317174,418532,20163
1131.99,1.312872,419956,20433
1135.6,1.310863,421946,20625
1139.2,1.309891,423881,20766
1143.99,1.310064,426786,20900
1147.58,1.314298,428617,20786
1151.17,1.312056,431169,21018
1154.75,1.311388,433579,21168
1158.33,1.311431,436264,21297
1161.91,1.315318,439132,21246
1165.48,1.306134,442389,21861
1169.04,1.312473,446101,21725
1173.79,1.311701,451929,22048
1177.34,1.311113,456026,22278
1180.9,1.315392,461306,22315
1184.44,1.317861,467657,22494
1187.99,1.321046,473969,22631
1191.52,1.313997,479856,23287
1195.06,1.322597,487372,23188
1199.76,1.316466,497347,23999
1203.29,1.321168,504311,24073
1206.81,1.319313,511507,24521
1210.33,1.314591,519078,25156
1213.84,1.316752,527163,25421
1217.35,1.315838,534208,25815
1220.85,1.321642,540472,25771
1225.51,1.319477,549929,26353
1229.01,1.317714,556888,26795
1232.5,1.321481,562180,26816
1235.98,1.321344,567975,27101
1239.46,1.322412,574815,27360
1242.94,1.317697,582782,28042
1246.41,1.318282,591476,28422
1251.03,1.317603,604016,29070
1254.5,1.319304,612289,29353
1257.96,1.323978,619125,29363
1261.41,1.324203,624551,29605
1264.86,1.319495,629900,30184
1268.31,1.323543,634345,30115
1271.75,1.324055,638574,30280
1276.33,1.325070,642499,30395
1279.76,1.324206,645905,30617
1283.19,1.323188,648307,30803
1286.61,1.323590,650446,30876
1290.03,1.321268,652132,31122
1293.44,1.327445,653907,30766
1296.85,1.324972,655963,31039
1301.39,1.321268,657349,31371
1304.8,1.328257,657558,30880
1308.19,1.322994,658515,31302
1311.58,1.327226,658804,31012
1314.97,1.324321,659011,31230
1318.36,1.323111,658272,31282
1321.73,1.324936,658022,31139
1326.23,1.326862,657870,30994
1329.6,1.324323,656482,31110
1332.97,1.328729,654926,30723
1336.33,1.327791,653727,30733
1339.69,1.318577,652497,31333
1343.04,1.323276,649913,30873
1346.39,1.323877,647671,30724
1349.73,1.325530,645338,30497
1354.18,1.322805,641175,30491
1357.52,1.324567,638376,30235
1360.85,1.324931,635805,30088
1364.17,1.322241,633413,30161
1367.49,1.324943,631026,29861
1370.81,1.318592,628050,30158
1374.12,1.324509,625034,29607
1378.54,1.315997,620272,29963
1381.84,1.320593,616892,29486
1385.14,1.322616,613613,29193
1388.43,1.319444,611526,29307
1391.72,1.328328,610663,28673
1395.01,1.324928,610634,28897
1398.29,1.320294,611700,29258
1402.66,1.324222,614051,29106
1405.93,1.327102,616268,29018
1409.2,1.323443,617795,29336
1412.46,1.325965,618872,29217
1415.72,1.321955,619795,29532
1418.98,1.325708,620495,29311
1422.23,1.321978,621087,29592
1426.56,1.324726,621375,29419
1429.8,1.324850,621616,29422
1433.04,1.324294,622129,29484
1436.27,1.333148,621526,28861
1439.5,1.333341,621113,28829
1442.72,1.325547,620921,29342
1445.94,1.329479,620270,29047
1450.23,1.328536,618860,29044
1453.44,1.332425,617697,28731
1456.64,1.330269,616264,28807
1459.85,1.331472,614413,28641
1463.04,1.326628,612307,28863
1466.24,1.325101,610032,28857
1469.43,1.329155,607345,28463
1473.67,1.333231,603789,28032
1476.85,1.333584,601175,27888
1480.02,1.326692,597737,28172
1483.19,1.329374,594479,27846
1486.36,1.335055,591232,27334
1489.52,1.332883,587853,27314
1492.68,1.332038,583875,27182
1496.89,1.339631,578062,26445
1500.03,1.334036,574159,26607
1503.18,1.331815,570285,26563
1506.32,1.334586,565444,26170
1509.45,1.339763,560571,25637
1512.58,1.334006,555821,25759
1515.71,1.328023,550344,25859
1519.87,1.337367,543983,25016
1522.99,1.336177,538764,24844
1526.1,1.333821,533692,24744
1529.21,1.333689,527902,24483
1532.32,1.333617,521886,24208
1535.42,1.332290,515888,24003
1538.51,1.327131,509987,24012
1541.6,1.327792,503936,23691
1545.72,1.322844,494694,23523
1548.8,1.340919,488378,22276
1551.88,1.332028,481832,22432
1554.95,1.328768,474989,22280
1558.02,1.327595,467818,22003
1561.08,1.323717,460730,21864
1564.15,1.332936,454170,21100
1568.22,1.330333,444181,20760
1571.27,1.334218,436947,20240
1574.32,1.329650,429598,20110
1577.36,1.321595,422039,20126
1580.4,1.320071,414375,19830
1583.43,1.328668,406354,19065
1586.46,1.331402,398475,18578
1590.49,1.324663,388982,18419
1593.51,1.328346,380708,17875
1596.53,1.327337,372727,17541
1599.54,1.321590,365060,17409
1602.55,1.320231,357543,17104
1605.55,1.314425,349495,16944
1608.55,1.322070,341154,16251
1612.54,1.315004,330877,16020
1615.53,1.312400,322904,15728
1618.51,1.309598,315116,15448
1621.49,1.325748,307217,14511
1624.47,1.319336,299481,14356
1627.44,1.308940,292112,14342
1630.41,1.318274,284245,13659
1634.36,1.297902,274079,13803
1637.32,1.314004,266916,12953
1640.27,1.305185,259612,12857
1643.22,1.306242,251804,12440
1646.16,1.312061,244348,11911
1649.1,1.311923,236703,11542
1652.04,1.309430,228171,11190
1655.95,1.297472,215408,10859
1658.88,1.297016,204937,10342
1661.8,1.273060,193395,10313
1664.72,1.276253,179728,9514
1667.63,1.254663,163642,9104
1670.54,1.254282,146312,8147
1673.44,1.201810,128451,8071
1677.31,1.198242,105080,6657
1680.21,1.173758,88906,5959
1683.1,1.127996,75033,5588
1685.99,1.175647,63520,4239
1688.87,1.154207,53714,3766
1691.75,1.176596,45653,3040
1694.62,1.120856,39137,2963
1697.49,1.121898,33776,2551
1701.31,1.112205,28175,2176

File: Column 1_078688_20241121_171723.csv
Method:,Column 1,,
Host Date-Time:,21/11/24 @ 17:17:23,,
Header Version:,1,,
System Temp (C):,34.72,,
Detector Temp (C):,34.74,,
Humidity (%):,1.56,,
Lamp PD:,3801,,
Shift Vector Coefficients:,-10.5391,0.0761263,-0.000134223,,
Pixel to Wavelength Coefficients:,1775.68,-0.916766,-0.000235065,,
Serial Number:,5510004,,
Scan Config Name:,Column 1,,
Scan Config Type:,Slew,,
Section 1,,
Start wavelength (nm):,900,,
End wavelength (nm):,1700,,
Pattern Pixel Width (nm):,   7.03,,,,
Exposure (ms):,  0.635,,,,
Digital Resolution:,228,,
Num Repeats:,6,,
PGA Gain:,64,,
Total Measurement Time in sec:,  2.726,,
Wavelength (nm),Absorbance (AU),Reference Signal (unitless),Sample Signal (unitless)
901.51,1.310521,108485,5307
905.376,1.304719,121306,6014
909.237,1.301653,131909,6586
913.095,1.313884,143299,6956
916.948,1.303477,156982,7805
922.079,1.309652,179937,8820
925.923,1.332335,200504,9328
929.762,1.325833,222660,10515
933.597,1.314356,244426,11852
937.427,1.309489,263972,12944
941.254,1.313480,281845,13694
945.076,1.311635,297271,14505
950.165,1.304158,315605,15667
953.978,1.313179,328029,15949
957.786,1.317288,340470,16398
961.59,1.301668,352317,17590
965.389,1.305595,363056,17963
969.185,1.312614,373162,18167
972.976,1.300159,382632,19170
976.763,1.313076,391202,19025
981.806,1.300607,400190,20029
985.583,1.293826,406088,20644
989.355,1.310235,410162,20078
993.124,1.291611,412868,21096
996.888,1.304507,414263,20548
1000.65,1.297714,415476,20933
1004.4,1.317020,415479,20023
1009.41,1.307192,414358,20426
1013.15,1.306708,412923,20378
1016.89,1.307736,411526,20261
1020.63,1.309181,409066,20073
1024.36,1.304500,406777,20177
1028.09,1.314850,404427,19588
1031.82,1.301107,401911,20092
1036.78,1.303051,398410,19828
1040.49,1.299634,396204,19874
1044.2,1.306011,394236,19487
1047.91,1.305777,392042,19389
1051.61,1.301903,389823,19452
1055.31,1.302547,388234,19344
1059,1.310407,387599,18966
1063.92,1.313549,386688,18785
1067.61,1.314305,386598,18748
1071.29,1.307692,387377,19074
1074.96,1.306447,388536,19186
1078.63,1.312150,389855,19000
1082.3,1.318558,391215,18787
1085.96,1.319134,393215,18858
1090.84,1.308648,396270,19469
1094.49,1.310388,398760,19513
1098.14,1.314590,400987,19433
1101.79,1.307927,403477,19856
1105.43,1.316394,406116,19600
1109.06,1.307254,407701,20095
1112.7,1.313323,409859,19921
1117.53,1.312178,412494,20102
1121.15,1.314282,414909,20122
1124.77,1.314089,416559,20211
1128.38,1.311801,418532,20414
1131.99,1.313020,419956,20426
1135.6,1.311790,421946,20581
1139.2,1.311882,423881,20671
1143.99,1.316069,426786,20613
1147.58,1.316981,428617,20658
1151.17,1.322957,431169,20497
1154.75,1.317275,433579,20883
1158.33,1.315549,436264,21096
1161.91,1.315706,439132,21227
1165.48,1.313669,442389,21485
1169.04,1.315261,446101,21586
1173.79,1.298566,451929,22725
1177.34,1.315877,456026,22035
1180.9,1.312405,461306,22469
1184.44,1.317803,467657,22497
1187.99,1.310693,473969,23177
1191.52,1.313531,479856,23312
1195.06,1.324343,487372,23095
1199.76,1.312557,497347,24216
1203.29,1.317360,504311,24285
1206.81,1.319491,511507,24511
1210.33,1.315853,519078,25083
1213.84,1.316308,527163,25447
1217.35,1.322723,534208,25409
1220.85,1.318820,540472,25939
1225.51,1.318752,549929,26397
1229.01,1.319208,556888,26703
1232.5,1.317403,562180,27069
1235.98,1.319026,567975,27246
1239.46,1.315265,574815,27814
1242.94,1.316244,582782,28136
1246.41,1.319859,591476,28319
1251.03,1.315383,604016,29219
1254.5,1.319733,612289,29324
1257.96,1.317154,619125,29828
1261.41,1.323324,624551,29665
1264.86,1.318173,629900,30276
1268.31,1.325885,634345,29953
1271.75,1.322466,638574,30391
1276.33,1.318111,642499,30886
1279.76,1.323412,645905,30673
1283.19,1.320447,648307,30998
1286.61,1.324562,650446,30807
1290.03,1.321226,652132,31125
1293.44,1.326768,653907,30814
1296.85,1.327652,655963,30848
1301.39,1.330078,657349,30741
1304.8,1.321309,657558,31378
1308.19,1.328706,658515,30893
1311.58,1.327647,658804,30982
1314.97,1.327727,659011,30986
1318.36,1.326190,658272,31061
1321.73,1.333542,658022,30528
1326.23,1.331285,657870,30680
1329.6,1.323026,656482,31203
1332.97,1.327839,654926,30786
1336.33,1.328513,653727,30682
1339.69,1.329113,652497,30582
1343.04,1.327176,649913,30597
1346.39,1.323283,647671,30766
1349.73,1.323300,645338,30654
1354.18,1.325262,641175,30319
1357.52,1.326438,638376,30105
1360.85,1.325191,635805,30070
1364.17,1.324624,633413,29996
1367.49,1.320890,631026,30141
1370.81,1.324172,628050,29773
1374.12,1.328917,625034,29308
1378.54,1.322245,620272,29535
1381.84,1.326839,616892,29065
1385.14,1.323330,613613,29145
1388.43,1.325592,611526,28895
1391.72,1.323134,610663,29018
1395.01,1.323338,610634,29003
1398.29,1.325716,611700,28895
1402.66,1.317912,614051,29532
1405.93,1.327087,616268,29019
1409.2,1.326757,617795,29113
1412.46,1.324570,618872,29311
1415.72,1.325751,619795,29275
1418.98,1.328338,620495,29134
1422.23,1.322375,621087,29565
1426.56,1.330567,621375,29026
1429.8,1.327916,621616,29215
1433.04,1.325725,622129,29387
1436.27,1.327066,621526,29268
1439.5,1.333808,621113,28798
1442.72,1.327832,620921,29188
1445.94,1.328867,620270,29088
1450.23,1.326210,618860,29200
1453.44,1.328557,617697,28988
1456.64,1.336831,616264,28375
1459.85,1.330957,614413,28675
1463.04,1.331120,612307,28566
1466.24,1.324620,610032,28889
1469.43,1.331526,607345,28308
1473.67,1.338688,603789,27682
1476.85,1.329553,601175,28148
1480.02,1.327943,597737,28091
1483.19,1.333432,594479,27587
1486.36,1.332662,591232,27485
1489.52,1.335035,587853,27179
1492.68,1.333511,583875,27090
1496.89,1.330997,578062,26976
1500.03,1.341926,574159,26128
1503.18,1.328752,570285,26751
1506.32,1.333641,565444,26227
1509.45,1.329568,560571,26246
1512.58,1.332105,555821,25872
1515.71,1.329705,550344,25759
1519.87,1.333410,543983,25245
1522.99,1.323091,538764,25604
1526.1,1.333487,533692,24763
1529.21,1.328049,527902,24803
1532.32,1.330221,521886,24398
1535.42,1.326913,515888,24302
1538.51,1.326462,509987,24049
1541.6,1.332640,503936,23428
1545.72,1.331911,494694,23037
1548.8,1.330878,488378,22797
1551.88,1.332454,481832,22410
1554.95,1.334044,474989,22011
1558.02,1.318242,467818,22482
1561.08,1.325648,460730,21767
1564.15,1.323248,454170,21576
1568.22,1.325341,444181,21000
1571.27,1.321969,436947,20819
1574.32,1.322688,429598,20435
1577.36,1.339525,422039,19312
1580.4,1.333392,414375,19231
1583.43,1.335903,406354,18750
1586.46,1.325735,398475,18822
1590.49,1.327336,388982,18306
1593.51,1.323009,380708,18096
1596.53,1.319607,372727,17856
1599.54,1.334632,365060,16894
1602.55,1.327967,357543,16802
1605.55,1.317486,349495,16825
1608.55,1.322124,341154,16249
1612.54,1.314489,330877,16039
1615.53,1.313174,322904,15700
1618.51,1.322379,315116,15000
1621.49,1.317184,307217,14800
1624.47,1.318278,299481,14391
1627.44,1.317935,292112,14048
1630.41,1.323874,284245,13484
1634.36,1.319115,274079,13145
1637.32,1.321273,266916,12738
1640.27,1.305557,259612,12846
1643.22,1.290843,251804,12889
1646.16,1.333357,244348,11341
1649.1,1.314489,236703,11474
1652.04,1.317856,228171,10975
1655.95,1.285403,215408,11165
1658.88,1.286437,204937,10597
1661.8,1.275891,193395,10246
1664.72,1.280980,179728,9411
1667.63,1.252664,163642,9146
1670.54,1.217503,146312,8867
1673.44,1.208097,128451,7955
1677.31,1.185893,105080,6849
1680.21,1.168254,88906,6035
1683.1,1.163024,75033,5155
1685.99,1.140814,63520,4593
1688.87,1.157100,53714,3741
1691.75,1.150670,45653,3227
1694.62,1.118080,39137,2982
1697.49,1.106347,33776,2644
1701.31,1.216614,28175,1711

File: Column 1_078694_20241121_171740.csv
Method:,Column 1,,
Host Date-Time:,21/11/24 @ 17:17:40,,
Header Version:,1,,
System Temp (C):,34.99,,
Detector Temp (C):,34.5,,
Humidity (%):,1.71,,
Lamp PD:,3800,,
Shift Vector Coefficients:,-10.5391,0.0761263,-0.000134223,,
Pixel to Wavelength Coefficients:,1775.68,-0.916766,-0.000235065,,
Serial Number:,5510004,,
Scan Config Name:,Column 1,,
Scan Config Type:,Slew,,
Section 1,,
Start wavelength (nm):,900,,
End wavelength (nm):,1700,,
Pattern Pixel Width (nm):,   7.03,,,,
Exposure (ms):,  0.635,,,,
Digital Resolution:,228,,
Num Repeats:,6,,
PGA Gain:,64,,
Total Measurement Time in sec:,  2.724,,
Wavelength (nm),Absorbance (AU),Reference Signal (unitless),Sample Signal (unitless)
901.51,1.319450,108485,5199
905.376,1.320604,121306,5798
909.237,1.311389,131909,6440
913.095,1.313509,143299,6962
916.948,1.320557,156982,7504
922.079,1.319664,179937,8619
925.923,1.337581,200504,9216
929.762,1.315346,222660,10772
933.597,1.318331,244426,11744
937.427,1.318233,263972,12686
941.254,1.315865,281845,13619
945.076,1.305009,297271,14728
950.165,1.313035,315605,15350
953.978,1.304178,328029,16283
957.786,1.304218,340470,16899
961.59,1.304268,352317,17485
965.389,1.307655,363056,17878
969.185,1.299893,373162,18707
972.976,1.299299,382632,19208
976.763,1.302277,391202,19504
981.806,1.301953,400190,19967
985.583,1.308460,406088,19960
989.355,1.304306,410162,20354
993.124,1.309815,412868,20230
996.888,1.302482,414263,20644
1000.65,1.298067,415476,20916
1004.4,1.303482,415479,20657
1009.41,1.308662,414358,20357
1013.15,1.309251,412923,20259
1016.89,1.316243,411526,19868
1020.63,1.308857,409066,20088
1024.36,1.306074,406777,20104
1028.09,1.300780,404427,20233
1031.82,1.304753,401911,19924
1036.78,1.303599,398410,19803
1040.49,1.323392,396204,18816
1044.2,1.302814,394236,19631
1047.91,1.298844,392042,19701
1051.61,1.298656,389823,19598
1055.31,1.302256,388234,19357
1059,1.295971,387599,19607
1063.92,1.296525,386688,19536
1067.61,1.305454,386598,19134
1071.29,1.316710,387377,18682
1074.96,1.313176,388536,18891
1078.63,1.315407,389855,18858
1082.3,1.309046,391215,19203
1085.96,1.304863,393215,19488
1090.84,1.309921,396270,19412
1094.49,1.309343,398760,19560
1098.14,1.305348,400987,19851
1101.79,1.316274,403477,19478
1105.43,1.311240,406116,19834
1109.06,1.308184,407701,20052
1112.7,1.315947,409859,19801
1117.53,1.317810,412494,19843
1121.15,1.309965,414909,20323
1124.77,1.317411,416559,20057
1128.38,1.320981,418532,19987
1131.99,1.308031,419956,20662
1135.6,1.313545,421946,20498
1139.2,1.312471,423881,20643
1143.99,1.319092,426786,20470
1147.58,1.308302,428617,21075
1151.17,1.317295,431169,20766
1154.75,1.315263,433579,20980
1158.33,1.310616,436264,21337
1161.91,1.318560,439132,21088
1165.48,1.319796,442389,21184
1169.04,1.317581,446101,21471
1173.79,1.307994,451929,22237
1177.34,1.312402,456026,22212
1180.9,1.307963,461306,22700
1184.44,1.318324,467657,22470
1187.99,1.315858,473969,22903
1191.52,1.314296,479856,23271
1195.06,1.314268,487372,23637
1199.76,1.326702,497347,23440
1203.29,1.315736,504311,24376
1206.81,1.322602,511507,24336
1210.33,1.320029,519078,24843
1213.84,1.313976,527163,25584
1217.35,1.318369,534208,25665
1220.85,1.321153,540472,25800
1225.51,1.317028,549929,26502
1229.01,1.326010,556888,26288
1232.5,1.314796,562180,27232
1235.98,1.316674,567975,27394
1239.46,1.318855,574815,27585
1242.94,1.320089,582782,27888
1246.41,1.318894,591476,28382
1251.03,1.317932,604016,29048
1254.5,1.322840,612289,29115
1257.96,1.317606,619125,29797
1261.41,1.318505,624551,29996
1264.86,1.325712,629900,29755
1268.31,1.322333,634345,30199
1271.75,1.322338,638574,30400
1276.33,1.324713,642499,30420
1279.76,1.326125,645905,30482
1283.19,1.318657,648307,31126
1286.61,1.324111,650446,30839
1290.03,1.330050,652132,30499
1293.44,1.326148,653907,30858
1296.85,1.328371,655963,30797
1301.39,1.325231,657349,31086
1304.8,1.327695,657558,30920
1308.19,1.324801,658515,31172
1311.58,1.329656,658804,30839
1314.97,1.327419,659011,31008
1318.36,1.326246,658272,31057
1321.73,1.332718,658022,30586
1326.23,1.326568,657870,31015
1329.6,1.329138,656482,30767
1332.97,1.331650,654926,30517
1336.33,1.326775,653727,30805
1339.69,1.334960,652497,30173
1343.04,1.322841,649913,30904
1346.39,1.328338,647671,30410
1349.73,1.324762,645338,30551
1354.18,1.327459,641175,30166
1357.52,1.326986,638376,30067
1360.85,1.323950,635805,30156
1364.17,1.324537,633413,30002
1367.49,1.323158,631026,29984
1370.81,1.325384,628050,29690
1374.12,1.325876,625034,29514
1378.54,1.326367,620272,29256
1381.84,1.322468,616892,29359
1385.14,1.331270,613613,28617
1388.43,1.331372,611526,28513
1391.72,1.322073,610663,29089
1395.01,1.328672,610634,28649
1398.29,1.323751,611700,29026
1402.66,1.327442,614051,28891
1405.93,1.324104,616268,29219
1409.2,1.328821,617795,28975
1412.46,1.328500,618872,29047
1415.72,1.332147,619795,28847
1418.98,1.325678,620495,29313
1422.23,1.325086,621087,29381
1426.56,1.330956,621375,29000
1429.8,1.331604,621616,28968
1433.04,1.332922,622129,28904
1436.27,1.335003,621526,28738
1439.5,1.333296,621113,28832
1442.72,1.330309,620921,29022
1445.94,1.323540,620270,29447
1450.23,1.336854,618860,28493
1453.44,1.330825,617697,28837
1456.64,1.333705,616264,28580
1459.85,1.330049,614413,28735
1463.04,1.332063,612307,28504
1466.24,1.331958,610032,28405
1469.43,1.330729,607345,28360
1473.67,1.331083,603789,28171
1476.85,1.335065,601175,27793
1480.02,1.332372,597737,27806
1483.19,1.356482,594479,26161
1486.36,1.337365,591232,27189
1489.52,1.331217,587853,27419
1492.68,1.328538,583875,27402
1496.89,1.328797,578062,27113
1500.03,1.336508,574159,26456
1503.18,1.333962,570285,26432
1506.32,1.331477,565444,26358
1509.45,1.336271,560571,25844
1512.58,1.327164,555821,26168
1515.71,1.332343,550344,25603
1519.87,1.333444,543983,25243
1522.99,1.334206,538764,24957
1526.1,1.329594,533692,24986
1529.21,1.329259,527902,24734
1532.32,1.331344,521886,24335
1535.42,1.334267,515888,23894
1538.51,1.326733,509987,24034
1541.6,1.331492,503936,23490
1545.72,1.330649,494694,23104
1548.8,1.331565,488378,22761
1551.88,1.325838,481832,22754
1554.95,1.333452,474989,22041
1558.02,1.325390,467818,22115
1561.08,1.327047,460730,21697
1564.15,1.338988,454170,20808
1568.22,1.325734,444181,20981
1571.27,1.337816,436947,20073
1574.32,1.330905,429598,20052
1577.36,1.334161,422039,19552
1580.4,1.334545,414375,19180
1583.43,1.336483,406354,18725
1586.46,1.328234,398475,18714
1590.49,1.320931,388982,18578
1593.51,1.325537,380708,17991
1596.53,1.326965,372727,17556
1599.54,1.328455,365060,17136
1602.55,1.329936,357543,16726
1605.55,1.325720,349495,16509
1608.55,1.326394,341154,16090
1612.54,1.326264,330877,15610
1615.53,1.317818,322904,15533
1618.51,1.314148,315116,15287
1621.49,1.311962,307217,14979
1624.47,1.315271,299481,14491
1627.44,1.307700,292112,14383
1630.41,1.321882,284245,13546
1634.36,1.321036,274079,13087
1637.32,1.303864,266916,13259
1640.27,1.311274,259612,12678
1643.22,1.313317,251804,12239
1646.16,1.317897,244348,11752
1649.1,1.322395,236703,11267
1652.04,1.317263,228171,10990
1655.95,1.303229,215408,10716
1658.88,1.296512,204937,10354
1661.8,1.279167,193395,10169
1664.72,1.255833,179728,9972
1667.63,1.271639,163642,8755
1670.54,1.239607,146312,8427
1673.44,1.232058,128451,7528
1677.31,1.197785,105080,6664
1680.21,1.168830,88906,6027
1683.1,1.152290,75033,5284
1685.99,1.187592,63520,4124
1688.87,1.108600,53714,4183
1691.75,1.168949,45653,3094
1694.62,1.138811,39137,2843
1697.49,1.209711,33776,2084
1701.31,1.206578,28175,1751