Folder: textile_sorting_NIRSCAN_/ML/samples/unknown (part 17)

File: Column 1_078114_20241121_164609.csv
Method:,Column 1,,
Host Date-Time:,21/11/24 @ 16:46:9,,
Header Version:,1,,
System Temp (C):,32.57,,
Detector Temp (C):,27.99,,
Humidity (%):,4.05,,
Lamp PD:,3806,,
Shift Vector Coefficients:,-10.5391,0.0761263,-0.000134223,,
Pixel to Wavelength Coefficients:,1775.68,-0.916766,-0.000235065,,
Serial Number:,5510004,,
Scan Config Name:,Column 1,,
Scan Config Type:,Slew,,
Section 1,,
Start wavelength (nm):,900,,
End wavelength (nm):,1700,,
Pattern Pixel Width (nm):,   7.03,,,,
Exposure (ms):,  0.635,,,,
Digital Resolution:,228,,
Num Repeats:,6,,
PGA Gain:,64,,
Total Measurement Time in sec:,  2.708,,
Wavelength (nm),Absorbance (AU),Reference Signal (unitless),Sample Signal (unitless)
901.51,1.313641,108485,5269
905.376,1.317172,121306,5844
909.237,1.319970,131909,6314
913.095,1.338149,143299,6578
916.948,1.311848,156982,7656
922.079,1.329138,179937,8433
925.923,1.327888,200504,9424
929.762,1.299822,222660,11164
933.597,1.329152,244426,11455
937.427,1.308082,263972,12986
941.254,1.315514,281845,13630
945.076,1.317999,297271,14294
950.165,1.312442,315605,15371
953.978,1.312961,328029,15957
957.786,1.304938,340470,16871
961.59,1.310094,352317,17252
965.389,1.308530,363056,17842
969.185,1.312662,373162,18165
972.976,1.303251,382632,19034
976.763,1.309485,391202,19183
981.806,1.307249,400190,19725
985.583,1.315833,406088,19624
989.355,1.305995,410162,20275
993.124,1.313762,412868,20047
996.888,1.315682,414263,20026
1000.65,1.314336,415476,20147
1004.4,1.308323,415479,20428
1009.41,1.306322,414358,20467
1013.15,1.315404,412923,19974
1016.89,1.305044,411526,20387
1020.63,1.300379,409066,20484
1024.36,1.317366,406777,19588
1028.09,1.309014,404427,19853
1031.82,1.311719,401911,19607
1036.78,1.310184,398410,19505
1040.49,1.308241,396204,19484
1044.2,1.309952,394236,19311
1047.91,1.318598,392042,18825
1051.61,1.310380,389823,19076
1055.31,1.317298,388234,18698
1059,1.307213,387599,19106
1063.92,1.305464,386688,19138
1067.61,1.312848,386598,18811
1071.29,1.312661,387377,18857
1074.96,1.320292,388536,18584
1078.63,1.317023,389855,18788
1082.3,1.319530,391215,18745
1085.96,1.323439,393215,18672
1090.84,1.316912,396270,19102
1094.49,1.313874,398760,19357
1098.14,1.319671,400987,19207
1101.79,1.321727,403477,19235
1105.43,1.317237,406116,19562
1109.06,1.308921,407701,20018
1112.7,1.310130,409859,20068
1117.53,1.315801,412494,19935
1121.15,1.323068,414909,19719
1124.77,1.323165,416559,19793
1128.38,1.320308,418532,20018
1131.99,1.315515,419956,20309
1135.6,1.319046,421946,20240
1139.2,1.318104,423881,20377
1143.99,1.321198,426786,20371
1147.58,1.317486,428617,20634
1151.17,1.331408,431169,20102
1154.75,1.324616,433579,20533
1158.33,1.314418,436264,21151
1161.91,1.322761,439132,20885
1165.48,1.305321,442389,21902
1169.04,1.323405,446101,21185
1173.79,1.325184,451929,21374
1177.34,1.313969,456026,22132
1180.9,1.317636,461306,22200
1184.44,1.322910,467657,22234
1187.99,1.313173,473969,23045
1191.52,1.317649,479856,23092
1195.06,1.321344,487372,23255
1199.76,1.319772,497347,23817
1203.29,1.317253,504311,24291
1206.81,1.324194,511507,24247
1210.33,1.332064,519078,24164
1213.84,1.331469,527163,24574
1217.35,1.323647,534208,25355
1220.85,1.321490,540472,25780
1225.51,1.325150,549929,26011
1229.01,1.328462,556888,26140
1232.5,1.323804,562180,26673
1235.98,1.325256,567975,26858
1239.46,1.329776,574815,26900
1242.94,1.327613,582782,27409
1246.41,1.326535,591476,27887
1251.03,1.325184,604016,28567
1254.5,1.333501,612289,28409
1257.96,1.331723,619125,28844
1261.41,1.331257,624551,29128
1264.86,1.331382,629900,29369
1268.31,1.329350,634345,29715
1271.75,1.331505,638574,29765
1276.33,1.325113,642499,30392
1279.76,1.327967,645905,30353
1283.19,1.330524,648307,30287
1286.61,1.326781,650446,30650
1290.03,1.332563,652132,30323
1293.44,1.334045,653907,30302
1296.85,1.331627,655963,30567
1301.39,1.329048,657349,30814
1304.8,1.330598,657558,30714
1308.19,1.332887,658515,30597
1311.58,1.325954,658804,31103
1314.97,1.334764,659011,30488
1318.36,1.334547,658272,30469
1321.73,1.333556,658022,30527
1326.23,1.327648,657870,30938
1329.6,1.332980,656482,30496
1332.97,1.328856,654926,30714
1336.33,1.333195,653727,30353
1339.69,1.329098,652497,30583
1343.04,1.336690,649913,29934
1346.39,1.336512,647671,29843
1349.73,1.324748,645338,30552
1354.18,1.330725,641175,29940
1357.52,1.333844,638376,29596
1360.85,1.328409,635805,29848
1364.17,1.330997,633413,29559
1367.49,1.325656,631026,29812
1370.81,1.328644,628050,29468
1374.12,1.332772,625034,29049
1378.54,1.329137,620272,29070
1381.84,1.332554,616892,28685
1385.14,1.326681,613613,28921
1388.43,1.330338,611526,28581
1391.72,1.328889,610663,28636
1395.01,1.327491,610634,28727
1398.29,1.326032,611700,28874
1402.66,1.319665,614051,29413
1405.93,1.327207,616268,29011
1409.2,1.331482,617795,28798
1412.46,1.333553,618872,28711
1415.72,1.330690,619795,28944
1418.98,1.332984,620495,28824
1422.23,1.331129,621087,28975
1426.56,1.337094,621375,28593
1429.8,1.331289,621616,28989
1433.04,1.337651,622129,28591
1436.27,1.330209,621526,29057
1439.5,1.336107,621113,28646
1442.72,1.334519,620921,28742
1445.94,1.330407,620270,28985
1450.23,1.332305,618860,28793
1453.44,1.338085,617697,28359
1456.64,1.339210,616264,28220
1459.85,1.337765,614413,28229
1463.04,1.331957,612307,28511
1466.24,1.343061,610032,27688
1469.43,1.341913,607345,27639
1473.67,1.335982,603789,27855
1476.85,1.338517,601175,27573
1480.02,1.331701,597737,27849
1483.19,1.334346,594479,27529
1486.36,1.334705,591232,27356
1489.52,1.340842,587853,26818
1492.68,1.336794,583875,26886
1496.89,1.332933,578062,26856
1500.03,1.338482,574159,26336
1503.18,1.339368,570285,26105
1506.32,1.330013,565444,26447
1509.45,1.337971,560571,25743
1512.58,1.339486,555821,25436
1515.71,1.343042,550344,24980
1519.87,1.343945,543983,24640
1522.99,1.339828,538764,24636
1526.1,1.343117,533692,24220
1529.21,1.338361,527902,24221
1532.32,1.337600,521886,23987
1535.42,1.340528,515888,23552
1538.51,1.331713,509987,23760
1541.6,1.328195,503936,23669
1545.72,1.332156,494694,23024
1548.8,1.342951,488378,22172
1551.88,1.336738,481832,22190
1554.95,1.335229,474989,21951
1558.02,1.338447,467818,21460
1561.08,1.341807,460730,20972
1564.15,1.337946,454170,20858
1568.22,1.334960,444181,20540
1571.27,1.343479,436947,19813
1574.32,1.346381,429598,19350
1577.36,1.333407,422039,19586
1580.4,1.331386,414375,19320
1583.43,1.339532,406354,18594
1586.46,1.334287,398475,18455
1590.49,1.331292,388982,18140
1593.51,1.328856,380708,17854
1596.53,1.336696,372727,17167
1599.54,1.323917,365060,17316
1602.55,1.320053,357543,17111
1605.55,1.323333,349495,16600
1608.55,1.320443,341154,16312
1612.54,1.334096,330877,15331
1615.53,1.324325,322904,15302
1618.51,1.321714,315116,15023
1621.49,1.321252,307217,14662
1624.47,1.331422,299481,13962
1627.44,1.331468,292112,13617
1630.41,1.324616,284245,13461
1634.36,1.330632,274079,12801
1637.32,1.314407,266916,12941
1640.27,1.331181,259612,12110
1643.22,1.324750,251804,11921
1646.16,1.325276,244348,11554
1649.1,1.321394,236703,11293
1652.04,1.317144,228171,10993
1655.95,1.308284,215408,10592
1658.88,1.310233,204937,10032
1661.8,1.296328,193395,9775
1664.72,1.308458,179728,8834
1667.63,1.291948,163642,8355
1670.54,1.304822,146312,7252
1673.44,1.289259,128451,6599
1677.31,1.308114,105080,5169
1680.21,1.292067,88906,4538
1683.1,1.296155,75033,3794
1685.99,1.288496,63520,3269
1688.87,1.314947,53714,2601
1691.75,1.222036,45653,2738
1694.62,1.281894,39137,2045
1697.49,1.280144,33776,1772
1701.31,1.161168,28175,1944

File: Column 1_078116_20241121_164615.csv
Method:,Column 1,,
Host Date-Time:,21/11/24 @ 16:46:15,,
Header Version:,1,,
System Temp (C):,32.64,,
Detector Temp (C):,28.11,,
Humidity (%):,4.01,,
Lamp PD:,3807,,
Shift Vector Coefficients:,-10.5391,0.0761263,-0.000134223,,
Pixel to Wavelength Coefficients:,1775.68,-0.916766,-0.000235065,,
Serial Number:,5510004,,
Scan Config Name:,Column 1,,
Scan Config Type:,Slew,,
Section 1,,
Start wavelength (nm):,900,,
End wavelength (nm):,1700,,
Pattern Pixel Width (nm):,   7.03,,,,
Exposure (ms):,  0.635,,,,
Digital Resolution:,228,,
Num Repeats:,6,,
PGA Gain:,64,,
Total Measurement Time in sec:,  2.723,,
Wavelength (nm),Absorbance (AU),Reference Signal (unitless),Sample Signal (unitless)
901.51,1.287414,108485,5597
905.376,1.298695,121306,6098
909.237,1.312672,131909,6421
913.095,1.310092,143299,7017
916.948,1.319401,156982,7524
922.079,1.335310,179937,8314
925.923,1.315128,200504,9705
929.762,1.298114,222660,11208
933.597,1.302928,244426,12168
937.427,1.324961,263972,12491
941.254,1.320675,281845,13469
945.076,1.314669,297271,14404
950.165,1.326278,315605,14889
953.978,1.309788,328029,16074
957.786,1.306485,340470,16811
961.59,1.309088,352317,17292
965.389,1.308554,363056,17841
969.185,1.306796,373162,18412
972.976,1.307424,382632,18852
976.763,1.309303,391202,19191
981.806,1.307888,400190,19696
985.583,1.307851,406088,19988
989.355,1.311491,410162,20020
993.124,1.317919,412868,19856
996.888,1.304295,414263,20558
1000.65,1.308214,415476,20433
1004.4,1.306732,415479,20503
1009.41,1.310715,414358,20261
1013.15,1.310819,412923,20186
1016.89,1.311180,411526,20101
1020.63,1.311263,409066,19977
1024.36,1.304909,406777,20158
1028.09,1.306723,404427,19958
1031.82,1.303013,401911,20004
1036.78,1.305776,398410,19704
1040.49,1.314776,396204,19193
1044.2,1.311890,394236,19225
1047.91,1.321398,392042,18704
1051.61,1.305040,389823,19312
1055.31,1.311255,388234,18960
1059,1.321634,387599,18482
1063.92,1.312995,386688,18809
1067.61,1.318378,386598,18573
1071.29,1.308193,387377,19052
1074.96,1.312441,388536,18923
1078.63,1.309256,389855,19127
1082.3,1.308030,391215,19248
1085.96,1.312892,393215,19131
1090.84,1.317777,396270,19064
1094.49,1.311926,398760,19444
1098.14,1.319829,400987,19200
1101.79,1.320306,403477,19298
1105.43,1.318371,406116,19511
1109.06,1.322406,407701,19406
1112.7,1.328091,409859,19255
1117.53,1.312849,412494,20071
1121.15,1.307727,414909,20428
1124.77,1.327044,416559,19617
1128.38,1.311482,418532,20429
1131.99,1.314938,419956,20336
1135.6,1.314585,421946,20449
1139.2,1.318146,423881,20375
1143.99,1.318435,426786,20501
1147.58,1.314968,428617,20754
1151.17,1.323148,431169,20488
1154.75,1.320616,433579,20723
1158.33,1.323192,436264,20728
1161.91,1.317079,439132,21160
1165.48,1.317282,442389,21307
1169.04,1.312733,446101,21712
1173.79,1.319231,451929,21669
1177.34,1.310257,456026,22322
1180.9,1.319597,461306,22100
1184.44,1.324671,467657,22144
1187.99,1.324224,473969,22466
1191.52,1.315080,479856,23229
1195.06,1.322447,487372,23196
1199.76,1.324153,497347,23578
1203.29,1.318363,504311,24229
1206.81,1.326582,511507,24114
1210.33,1.323187,519078,24663
1213.84,1.325118,527163,24936
1217.35,1.318945,534208,25631
1220.85,1.319038,540472,25926
1225.51,1.319724,549929,26338
1229.01,1.315467,556888,26934
1232.5,1.322454,562180,26756
1235.98,1.322290,567975,27042
1239.46,1.325646,574815,27157
1242.94,1.318426,582782,27995
1246.41,1.324826,591476,27997
1251.03,1.327960,604016,28385
1254.5,1.334557,612289,28340
1257.96,1.323608,619125,29388
1261.41,1.325834,624551,29494
1264.86,1.328479,629900,29566
1268.31,1.327279,634345,29857
1271.75,1.328727,638574,29956
1276.33,1.330853,642499,29993
1279.76,1.325712,645905,30511
1283.19,1.322596,648307,30845
1286.61,1.326597,650446,30663
1290.03,1.331305,652132,30411
1293.44,1.332057,653907,30441
1296.85,1.330931,655963,30616
1301.39,1.329231,657349,30801
1304.8,1.330414,657558,30727
1308.19,1.329944,658515,30805
1311.58,1.328320,658804,30934
1314.97,1.328092,659011,30960
1318.36,1.328784,658272,30876
1321.73,1.336597,658022,30314
1326.23,1.332490,657870,30595
1329.6,1.331729,656482,30584
1332.97,1.334291,654926,30332
1336.33,1.327721,653727,30738
1339.69,1.331962,652497,30382
1343.04,1.332561,649913,30220
1346.39,1.330974,647671,30226
1349.73,1.330817,645338,30128
1354.18,1.324932,641175,30342
1357.52,1.332818,638376,29666
1360.85,1.322096,635805,30285
1364.17,1.326088,633413,29895
1367.49,1.333773,631026,29260
1370.81,1.336361,628050,28949
1374.12,1.333311,625034,29013
1378.54,1.328197,620272,29133
1381.84,1.327063,616892,29050
1385.14,1.322408,613613,29207
1388.43,1.324826,611526,28946
1391.72,1.324078,610663,28955
1395.01,1.327718,610634,28712
1398.29,1.329474,611700,28646
1402.66,1.328812,614051,28800
1405.93,1.326160,616268,29081
1409.2,1.324585,617795,29259
1412.46,1.332239,618872,28798
1415.72,1.329925,619795,28995
1418.98,1.329532,620495,29054
1422.23,1.337288,621087,28567
1426.56,1.335502,621375,28698
1429.8,1.326299,621616,29324
1433.04,1.339173,622129,28491
1436.27,1.333434,621526,28842
1439.5,1.336410,621113,28626
1442.72,1.340652,620921,28339
1445.94,1.333641,620270,28770
1450.23,1.338136,618860,28409
1453.44,1.333196,617697,28680
1456.64,1.336448,616264,28400
1459.85,1.339229,614413,28134
1463.04,1.330710,612307,28593
1466.24,1.341605,610032,27781
1469.43,1.337971,607345,27891
1473.67,1.338280,603789,27708
1476.85,1.340142,601175,27470
1480.02,1.335397,597737,27613
1483.19,1.335531,594479,27454
1486.36,1.328573,591232,27745
1489.52,1.339307,587853,26913
1492.68,1.336600,583875,26898
1496.89,1.341128,578062,26354
1500.03,1.335426,574159,26522
1503.18,1.335971,570285,26310
1506.32,1.340905,565444,25792
1509.45,1.333891,560571,25986
1512.58,1.338974,555821,25466
1515.71,1.334060,550344,25502
1519.87,1.333272,543983,25253
1522.99,1.332868,538764,25034
1526.1,1.336108,533692,24614
1529.21,1.343792,527902,23920
1532.32,1.338923,521886,23914
1535.42,1.345367,515888,23291
1538.51,1.338213,509987,23407
1541.6,1.329077,503936,23621
1545.72,1.331496,494694,23059
1548.8,1.333956,488378,22636
1551.88,1.333735,481832,22344
1554.95,1.339704,474989,21726
1558.02,1.336589,467818,21552
1561.08,1.337869,460730,21163
1564.15,1.341731,454170,20677
1568.22,1.347421,444181,19959
1571.27,1.337038,436947,20109
1574.32,1.339059,429598,19679
1577.36,1.335073,422039,19511
1580.4,1.336724,414375,19084
1583.43,1.328804,406354,19059
1586.46,1.331472,398475,18575
1590.49,1.334971,388982,17987
1593.51,1.330099,380708,17803
1596.53,1.332016,372727,17353
1599.54,1.332478,365060,16978
1602.55,1.329469,357543,16744
1605.55,1.323333,349495,16600
1608.55,1.333415,341154,15832
1612.54,1.317315,330877,15935
1615.53,1.324524,322904,15295
1618.51,1.331124,315116,14701
1621.49,1.317918,307217,14775
1624.47,1.330614,299481,13988
1627.44,1.330640,292112,13643
1630.41,1.326588,284245,13400
1634.36,1.318653,274079,13159
1637.32,1.322981,266916,12688
1640.27,1.317311,259612,12503
1643.22,1.335520,251804,11629
1646.16,1.327878,244348,11485
1649.1,1.325917,236703,11176
1652.04,1.326448,228171,10760
1655.95,1.321734,215408,10269
1658.88,1.313448,204937,9958
1661.8,1.319740,193395,9262
1664.72,1.315096,179728,8700
1667.63,1.291689,163642,8360
1670.54,1.274803,146312,7771
1673.44,1.266253,128451,6958
1677.31,1.302189,105080,5240
1680.21,1.290157,88906,4558
1683.1,1.315585,75033,3628
1685.99,1.271815,63520,3397
1688.87,1.282774,53714,2801
1691.75,1.204624,45653,2850
1694.62,1.258536,39137,2158
1697.49,1.195564,33776,2153
1701.31,1.212823,28175,1726

File: Column 1_078121_20241121_164629.csv
Method:,Column 1,,
Host Date-Time:,21/11/24 @ 16:46:29,,
Header Version:,1,,
System Temp (C):,32.72,,
Detector Temp (C):,28.21,,
Humidity (%):,3.86,,
Lamp PD:,3806,,
Shift Vector Coefficients:,-10.5391,0.0761263,-0.000134223,,
Pixel to Wavelength Coefficients:,1775.68,-0.916766,-0.000235065,,
Serial Number:,5510004,,
Scan Config Name:,Column 1,,
Scan Config Type:,Slew,,
Section 1,,
Start wavelength (nm):,900,,
End wavelength (nm):,1700,,
Pattern Pixel Width (nm):,   7.03,,,,
Exposure (ms):,  0.635,,,,
Digital Resolution:,228,,
Num Repeats:,6,,
PGA Gain:,64,,
Total Measurement Time in sec:,  2.722,,
Wavelength (nm),Absorbance (AU),Reference Signal (unitless),Sample Signal (unitless)
901.51,1.315873,108485,5242
905.376,1.323761,121306,5756
909.237,1.308231,131909,6487
913.095,1.302727,143299,7137
916.948,1.318018,156982,7548
922.079,1.336356,179937,8294
925.923,1.328257,200504,9416
929.762,1.312533,222660,10842
933.597,1.331204,244426,11401
937.427,1.321843,263972,12581
941.254,1.316727,281845,13592
945.076,1.321905,297271,14166
950.165,1.316615,315605,15224
953.978,1.312771,328029,15964
957.786,1.322859,340470,16189
961.59,1.318174,352317,16934
965.389,1.302007,363056,18112
969.185,1.308569,373162,18337
972.976,1.307585,382632,18845
976.763,1.310573,391202,19135
981.806,1.311386,400190,19538
985.583,1.306874,406088,20033
989.355,1.314124,410162,19899
993.124,1.307652,412868,20331
996.888,1.309181,414263,20328
1000.65,1.313668,415476,20178
1004.4,1.321862,415479,19801
1009.41,1.311809,414358,20210
1013.15,1.314015,412923,20038
1016.89,1.311893,411526,20068
1020.63,1.313311,409066,19883
1024.36,1.321622,406777,19397
1028.09,1.311537,404427,19738
1031.82,1.311697,401911,19608
1036.78,1.318683,398410,19127
1040.49,1.314980,396204,19184
1044.2,1.315497,394236,19066
1047.91,1.314899,392042,18986
1051.61,1.316432,389823,18812
1055.31,1.319394,388234,18608
1059,1.311875,387599,18902
1063.92,1.309477,386688,18962
1067.61,1.318892,386598,18551
1071.29,1.308239,387377,19050
1074.96,1.308375,388536,19101
1078.63,1.316560,389855,18808
1082.3,1.320017,391215,18724
1085.96,1.322974,393215,18692
1090.84,1.325129,396270,18744
1094.49,1.323492,398760,18933
1098.14,1.313742,400987,19471
1101.79,1.314517,403477,19557
1105.43,1.308881,406116,19942
1109.06,1.320887,407701,19474
1112.7,1.315903,409859,19803
1117.53,1.317395,412494,19862
1121.15,1.318315,414909,19936
1124.77,1.332412,416559,19376
1128.38,1.329894,418532,19581
1131.99,1.325947,419956,19827
1135.6,1.321327,421946,20134
1139.2,1.326409,423881,19991
1143.99,1.318139,426786,20515
1147.58,1.332366,428617,19939
1151.17,1.317797,431169,20742
1154.75,1.331910,433579,20191
1158.33,1.323213,436264,20727
1161.91,1.317428,439132,21143
1165.48,1.323668,442389,20996
1169.04,1.320646,446101,21320
1173.79,1.321119,451929,21575
1177.34,1.323131,456026,21670
1180.9,1.320699,461306,22044
1184.44,1.325123,467657,22121
1187.99,1.325754,473969,22387
1191.52,1.321712,479856,22877
1195.06,1.322672,487372,23184
1199.76,1.316376,497347,24004
1203.29,1.330671,504311,23552
1206.81,1.323174,511507,24304
1210.33,1.331238,519078,24210
1213.84,1.326164,527163,24876
1217.35,1.326775,534208,25173
1220.85,1.329069,540472,25334
1225.51,1.325016,549929,26019
1229.01,1.320886,556888,26600
1232.5,1.329953,562180,26298
1235.98,1.325466,567975,26845
1239.46,1.326879,574815,27080
1242.94,1.321493,582782,27798
1246.41,1.328017,591476,27792
1251.03,1.327929,604016,28387
1254.5,1.326029,612289,28902
1257.96,1.331016,619125,28891
1261.41,1.327708,624551,29367
1264.86,1.327027,629900,29665
1268.31,1.326320,634345,29923
1271.75,1.332309,638574,29710
1276.33,1.331258,642499,29965
1279.76,1.332035,645905,30070
1283.19,1.336429,648307,29878
1286.61,1.328029,650446,30562
1290.03,1.332922,652132,30298
1293.44,1.333558,653907,30336
1296.85,1.335007,655963,30330
1301.39,1.331054,657349,30672
1304.8,1.341305,657558,29966
1308.19,1.340057,658515,30096
1311.58,1.334684,658804,30484
1314.97,1.336348,659011,30377
1318.36,1.341009,658272,30019
1321.73,1.336382,658022,30329
1326.23,1.341526,657870,29965
1329.6,1.328080,656482,30842
1332.97,1.335481,654926,30249
1336.33,1.331609,653727,30464
1339.69,1.329184,652497,30577
1343.04,1.331757,649913,30276
1346.39,1.331520,647671,30188
1349.73,1.330615,645338,30142
1354.18,1.332236,641175,29836
1357.52,1.330103,638376,29852
1360.85,1.335361,635805,29374
1364.17,1.333709,633413,29375
1367.49,1.329740,631026,29533
1370.81,1.331557,628050,29271
1374.12,1.335171,625034,28889
1378.54,1.331144,620272,28936
1381.84,1.335197,616892,28511
1385.14,1.326426,613613,28938
1388.43,1.335473,611526,28245
1391.72,1.334261,610663,28284
1395.01,1.329628,610634,28586
1398.29,1.329444,611700,28648
1402.66,1.332553,614051,28553
1405.93,1.337876,616268,28307
1409.2,1.335162,617795,28555
1412.46,1.338084,618872,28413
1415.72,1.334775,619795,28673
1418.98,1.338503,620495,28460
1422.23,1.339972,621087,28391
1426.56,1.336897,621375,28606
1429.8,1.338342,621616,28522
1433.04,1.336589,622129,28661
1436.27,1.334655,621526,28761
1439.5,1.336987,621113,28588
1442.72,1.335639,620921,28668
1445.94,1.335547,620270,28644
1450.23,1.327908,618860,29086
1453.44,1.337182,617697,28418
1456.64,1.342950,616264,27978
1459.85,1.338951,614413,28152
1463.04,1.341614,612307,27884
1466.24,1.347951,610032,27378
1469.43,1.344008,607345,27506
1473.67,1.334037,603789,27980
1476.85,1.337935,601175,27610
1480.02,1.342596,597737,27159
1483.19,1.329811,594479,27818
1486.36,1.338228,591232,27135
1489.52,1.338339,587853,26973
1492.68,1.342566,583875,26531
1496.89,1.340173,578062,26412
1500.03,1.339704,574159,26262
1503.18,1.338770,570285,26141
1506.32,1.342795,565444,25680
1509.45,1.340052,560571,25620
1512.58,1.341986,555821,25290
1515.71,1.338029,550344,25270
1519.87,1.343240,543983,24680
1522.99,1.341382,538764,24548
1526.1,1.341917,533692,24287
1529.21,1.342994,527902,23964
1532.32,1.335649,521886,24095
1535.42,1.342950,515888,23421
1538.51,1.340520,509987,23283
1541.6,1.331437,503936,23493
1545.72,1.330856,494694,23093
1548.8,1.343559,488378,22141
1551.88,1.338366,481832,22107
1554.95,1.333551,474989,22036
1558.02,1.334639,467818,21649
1561.08,1.343030,460730,20913
1564.15,1.340514,454170,20735
1568.22,1.336378,444181,20473
1571.27,1.343303,436947,19821
1574.32,1.333294,429598,19942
1577.36,1.335318,422039,19500
1580.4,1.329793,414375,19391
1583.43,1.332512,406354,18897
1586.46,1.333135,398475,18504
1590.49,1.326270,388982,18351
1593.51,1.334217,380708,17635
1596.53,1.346004,372727,16803
1599.54,1.324871,365060,17278
1602.55,1.340928,357543,16308
1605.55,1.329658,349495,16360
1608.55,1.342255,341154,15513
1612.54,1.329055,330877,15510
1615.53,1.316088,322904,15595
1618.51,1.330651,315116,14717
1621.49,1.324612,307217,14549
1624.47,1.333167,299481,13906
1627.44,1.333066,292112,13567
1630.41,1.334932,284245,13145
1634.36,1.336920,274079,12617
1637.32,1.322297,266916,12708
1640.27,1.335650,259612,11986
1643.22,1.319283,251804,12072
1646.16,1.319600,244348,11706
1649.1,1.338214,236703,10864
1652.04,1.319442,228171,10935
1655.95,1.312197,215408,10497
1658.88,1.337523,204937,9421
1661.8,1.322563,193395,9202
1664.72,1.331527,179728,8377
1667.63,1.310968,163642,7997
1670.54,1.299998,146312,7333
1673.44,1.281239,128451,6722
1677.31,1.273642,105080,5596
1680.21,1.293408,88906,4524
1683.1,1.282742,75033,3913
1685.99,1.303361,63520,3159
1688.87,1.276158,53714,2844
1691.75,1.268887,45653,2458
1694.62,1.254530,39137,2178
1697.49,1.305632,33776,1671
1701.31,1.250932,28175,1581