Folder: textile_sorting_NIRSCAN_/ML/samples/unknown (part 96)

File: Column 1_078682_20241121_171705.csv
Method:,Column 1,,
Host Date-Time:,21/11/24 @ 17:17:5,,
Header Version:,1,,
System Temp (C):,34.41,,
Detector Temp (C):,34.98,,
Humidity (%):,1.71,,
Lamp PD:,3801,,
Shift Vector Coefficients:,-10.5391,0.0761263,-0.000134223,,
Pixel to Wavelength Coefficients:,1775.68,-0.916766,-0.000235065,,
Serial Number:,5510004,,
Scan Config Name:,Column 1,,
Scan Config Type:,Slew,,
Section 1,,
Start wavelength (nm):,900,,
End wavelength (nm):,1700,,
Pattern Pixel Width (nm):,   7.03,,,,
Exposure (ms):,  0.635,,,,
Digital Resolution:,228,,
Num Repeats:,6,,
PGA Gain:,64,,
Total Measurement Time in sec:,  2.731,,
Wavelength (nm),Absorbance (AU),Reference Signal (unitless),Sample Signal (unitless)
901.51,1.330362,108485,5070
905.376,1.314357,121306,5882
909.237,1.331470,131909,6149
913.095,1.336370,143299,6605
916.948,1.313325,156982,7630
922.079,1.319059,179937,8631
925.923,1.321166,200504,9571
929.762,1.320497,222660,10645
933.597,1.328168,244426,11481
937.427,1.328907,263972,12378
941.254,1.328943,281845,13215
945.076,1.321599,297271,14176
950.165,1.324910,315605,14936
953.978,1.311521,328029,16010
957.786,1.315702,340470,16458
961.59,1.304169,352317,17489
965.389,1.317407,363056,17481
969.185,1.313907,373162,18113
972.976,1.305012,382632,18957
976.763,1.313533,391202,19005
981.806,1.303108,400190,19914
985.583,1.298947,406088,20402
989.355,1.301901,410162,20467
993.124,1.309386,412868,20250
996.888,1.309588,414263,20309
1000.65,1.302177,415476,20719
1004.4,1.306753,415479,20502
1009.41,1.312433,414358,20181
1013.15,1.312263,412923,20119
1016.89,1.301776,411526,20541
1020.63,1.306356,409066,20204
1024.36,1.307415,406777,20042
1028.09,1.318501,404427,19424
1031.82,1.315300,401911,19446
1036.78,1.308873,398410,19564
1040.49,1.300509,396204,19834
1044.2,1.303279,394236,19610
1047.91,1.311913,392042,19117
1051.61,1.316156,389823,18824
1055.31,1.315652,388234,18769
1059,1.310980,387599,18941
1063.92,1.311267,386688,18884
1067.61,1.317420,386598,18614
1071.29,1.308741,387377,19028
1074.96,1.308557,388536,19093
1078.63,1.314579,389855,18894
1082.3,1.312201,391215,19064
1085.96,1.313051,393215,19124
1090.84,1.319741,396270,18978
1094.49,1.316868,398760,19224
1098.14,1.306005,400987,19821
1101.79,1.309483,403477,19785
1105.43,1.303815,406116,20176
1109.06,1.325100,407701,19286
1112.7,1.311518,409859,20004
1117.53,1.316674,412494,19895
1121.15,1.312903,414909,20186
1124.77,1.317237,416559,20065
1128.38,1.319896,418532,20037
1131.99,1.313765,419956,20391
1135.6,1.322299,421946,20089
1139.2,1.320005,423881,20288
1143.99,1.317737,426786,20534
1147.58,1.316372,428617,20687
1151.17,1.320633,431169,20607
1154.75,1.321602,433579,20676
1158.33,1.312452,436264,21247
1161.91,1.309470,439132,21534
1165.48,1.313952,442389,21471
1169.04,1.320565,446101,21324
1173.79,1.322167,451929,21523
1177.34,1.317179,456026,21969
1180.9,1.313276,461306,22424
1184.44,1.312889,467657,22753
1187.99,1.317644,473969,22809
1191.52,1.320518,479856,22940
1195.06,1.313534,487372,23677
1199.76,1.318134,497347,23907
1203.29,1.323230,504311,23959
1206.81,1.329945,511507,23928
1210.33,1.325110,519078,24554
1213.84,1.320252,527163,25217
1217.35,1.322330,534208,25432
1220.85,1.311169,540472,26400
1225.51,1.324466,549929,26052
1229.01,1.323424,556888,26445
1232.5,1.323136,562180,26714
1235.98,1.318692,567975,27267
1239.46,1.313069,574815,27955
1242.94,1.321852,582782,27775
1246.41,1.322443,591476,28151
1251.03,1.321656,604016,28800
1254.5,1.323676,612289,29059
1257.96,1.320223,619125,29618
1261.41,1.322110,624551,29748
1264.86,1.325114,629900,29796
1268.31,1.323903,634345,30090
1271.75,1.318837,638574,30646
1276.33,1.327808,642499,30204
1279.76,1.323243,645905,30685
1283.19,1.324855,648307,30685
1286.61,1.325762,650446,30722
1290.03,1.327070,652132,30709
1293.44,1.323007,653907,31082
1296.85,1.334249,655963,30383
1301.39,1.329161,657349,30806
1304.8,1.324114,657558,31176
1308.19,1.325428,658515,31127
1311.58,1.326932,658804,31033
1314.97,1.331641,659011,30708
1318.36,1.325157,658272,31135
1321.73,1.336196,658022,30342
1326.23,1.331341,657870,30676
1329.6,1.333265,656482,30476
1332.97,1.328248,654926,30757
1336.33,1.329774,653727,30593
1339.69,1.330535,652497,30482
1343.04,1.326453,649913,30648
1346.39,1.332226,647671,30139
1349.73,1.327157,645338,30383
1354.18,1.327157,641175,30187
1357.52,1.328259,638376,29979
1360.85,1.324210,635805,30138
1364.17,1.319929,633413,30322
1367.49,1.328374,631026,29626
1370.81,1.326336,628050,29625
1374.12,1.325302,625034,29553
1378.54,1.325270,620272,29330
1381.84,1.322512,616892,29356
1385.14,1.326186,613613,28954
1388.43,1.328669,611526,28691
1391.72,1.324078,610663,28955
1395.01,1.324463,610634,28928
1398.29,1.329247,611700,28661
1402.66,1.324864,614051,29063
1405.93,1.326130,616268,29083
1409.2,1.325372,617795,29206
1412.46,1.328679,618872,29035
1415.72,1.331095,619795,28917
1418.98,1.333723,620495,28775
1422.23,1.321377,621087,29633
1426.56,1.335517,621375,28697
1429.8,1.325160,621616,29401
1433.04,1.333193,622129,28886
1436.27,1.333374,621526,28846
1439.5,1.331087,621113,28979
1442.72,1.331568,620921,28938
1445.94,1.335274,620270,28662
1450.23,1.334665,618860,28637
1453.44,1.331987,617697,28760
1456.64,1.328373,616264,28933
1459.85,1.325314,614413,29050
1463.04,1.333513,612307,28409
1466.24,1.328971,610032,28601
1469.43,1.332540,607345,28242
1473.67,1.333340,603789,28025
1476.85,1.336678,601175,27690
1480.02,1.334297,597737,27683
1483.19,1.332504,594479,27646
1486.36,1.328949,591232,27721
1489.52,1.334508,587853,27212
1492.68,1.335069,583875,26993
1496.89,1.342465,578062,26273
1500.03,1.331043,574159,26791
1503.18,1.335905,570285,26314
1506.32,1.336799,565444,26037
1509.45,1.340509,560571,25593
1512.58,1.335306,555821,25682
1515.71,1.335989,550344,25389
1519.87,1.330837,543983,25395
1522.99,1.337508,538764,24768
1526.1,1.338018,533692,24506
1529.21,1.332891,527902,24528
1532.32,1.342461,521886,23720
1535.42,1.332236,515888,24006
1538.51,1.336417,509987,23504
1541.6,1.334721,503936,23316
1545.72,1.332307,494694,23016
1548.8,1.330612,488378,22811
1551.88,1.337443,481832,22154
1554.95,1.336002,474989,21912
1558.02,1.340069,467818,21380
1561.08,1.334049,460730,21350
1564.15,1.333060,454170,21094
1568.22,1.335827,444181,20499
1571.27,1.339203,436947,20009
1574.32,1.336792,429598,19782
1577.36,1.331394,422039,19677
1580.4,1.332647,414375,19264
1583.43,1.330883,406354,18968
1586.46,1.341429,398475,18154
1590.49,1.325608,388982,18379
1593.51,1.329002,380708,17848
1596.53,1.331791,372727,17362
1599.54,1.337831,365060,16770
1602.55,1.327683,357543,16813
1605.55,1.332294,349495,16261
1608.55,1.328858,341154,15999
1612.54,1.328160,330877,15542
1615.53,1.320454,322904,15439
1618.51,1.328062,315116,14805
1621.49,1.328149,307217,14431
1624.47,1.329435,299481,14026
1627.44,1.322160,292112,13912
1630.41,1.308030,284245,13985
1634.36,1.326882,274079,12912
1637.32,1.319606,266916,12787
1640.27,1.321253,259612,12390
1643.22,1.320761,251804,12031
1646.16,1.313961,244348,11859
1649.1,1.308027,236703,11646
1652.04,1.298054,228171,11487
1655.95,1.301006,215408,10771
1658.88,1.305497,204937,10142
1661.8,1.297173,193395,9756
1664.72,1.276024,179728,9519
1667.63,1.244060,163642,9329
1670.54,1.264585,146312,7956
1673.44,1.196090,128451,8178
1677.31,1.178911,105080,6960
1680.21,1.185803,88906,5796
1683.1,1.188705,75033,4859
1685.99,1.167527,63520,4319
1688.87,1.192646,53714,3447
1691.75,1.244830,45653,2598
1694.62,1.216011,39137,2380
1697.49,1.248030,33776,1908
1701.31,1.232643,28175,1649

File: Column 1_078684_20241121_171711.csv
Method:,Column 1,,
Host Date-Time:,21/11/24 @ 17:17:11,,
Header Version:,1,,
System Temp (C):,34.38,,
Detector Temp (C):,34.88,,
Humidity (%):,1.61,,
Lamp PD:,3801,,
Shift Vector Coefficients:,-10.5391,0.0761263,-0.000134223,,
Pixel to Wavelength Coefficients:,1775.68,-0.916766,-0.000235065,,
Serial Number:,5510004,,
Scan Config Name:,Column 1,,
Scan Config Type:,Slew,,
Section 1,,
Start wavelength (nm):,900,,
End wavelength (nm):,1700,,
Pattern Pixel Width (nm):,   7.03,,,,
Exposure (ms):,  0.635,,,,
Digital Resolution:,228,,
Num Repeats:,6,,
PGA Gain:,64,,
Total Measurement Time in sec:,  2.711,,
Wavelength (nm),Absorbance (AU),Reference Signal (unitless),Sample Signal (unitless)
901.51,1.328993,108485,5086
905.376,1.319781,121306,5809
909.237,1.316817,131909,6360
913.095,1.317961,143299,6891
916.948,1.323169,156982,7459
922.079,1.319059,179937,8631
925.923,1.310853,200504,9801
929.762,1.319478,222660,10670
933.597,1.311653,244426,11926
937.427,1.320223,263972,12628
941.254,1.308749,281845,13844
945.076,1.317058,297271,14325
950.165,1.316273,315605,15236
953.978,1.308736,328029,16113
957.786,1.317341,340470,16396
961.59,1.298102,352317,17735
965.389,1.306006,363056,17946
969.185,1.308119,373162,18356
972.976,1.318767,382632,18366
976.763,1.311231,391202,19106
981.806,1.302389,400190,19947
985.583,1.310226,406088,19879
989.355,1.305695,410162,20289
993.124,1.307396,412868,20343
996.888,1.306838,414263,20438
1000.65,1.314551,415476,20137
1004.4,1.314813,415479,20125
1009.41,1.296358,414358,20942
1013.15,1.303374,412923,20535
1016.89,1.299751,411526,20637
1020.63,1.302419,409066,20388
1024.36,1.299854,406777,20394
1028.09,1.303860,404427,20090
1031.82,1.307991,401911,19776
1036.78,1.308518,398410,19580
1040.49,1.301693,396204,19780
1044.2,1.310334,394236,19294
1047.91,1.312208,392042,19104
1051.61,1.305873,389823,19275
1055.31,1.307038,388234,19145
1059,1.305398,387599,19186
1063.92,1.311658,386688,18867
1067.61,1.322206,386598,18410
1071.29,1.307032,387377,19103
1074.96,1.323835,388536,18433
1078.63,1.317670,389855,18760
1082.3,1.307083,391215,19290
1085.96,1.306918,393215,19396
1090.84,1.314916,396270,19190
1094.49,1.313537,398760,19372
1098.14,1.307959,400987,19732
1101.79,1.309505,403477,19784
1105.43,1.317992,406116,19528
1109.06,1.314929,407701,19743
1112.7,1.312670,409859,19951
1117.53,1.322276,412494,19640
1121.15,1.319821,414909,19867
1124.77,1.307393,416559,20525
1128.38,1.317066,418532,20168
1131.99,1.320916,419956,20058
1135.6,1.317397,421946,20317
1139.2,1.315744,423881,20488
1143.99,1.322821,426786,20295
1147.58,1.325258,428617,20268
1151.17,1.311788,431169,21031
1154.75,1.320553,433579,20726
1158.33,1.309112,436264,21411
1161.91,1.312831,439132,21368
1165.48,1.313669,442389,21485
1169.04,1.313955,446101,21651
1173.79,1.311347,451929,22066
1177.34,1.311269,456026,22270
1180.9,1.321981,461306,21979
1184.44,1.321623,467657,22300
1187.99,1.310374,473969,23194
1191.52,1.319837,479856,22976
1195.06,1.317347,487372,23470
1199.76,1.312593,497347,24214
1203.29,1.315398,504311,24395
1206.81,1.317405,511507,24629
1210.33,1.320536,519078,24814
1213.84,1.328264,527163,24756
1217.35,1.321409,534208,25486
1220.85,1.325654,540472,25534
1225.51,1.322586,549929,26165
1229.01,1.319843,556888,26664
1232.5,1.319204,562180,26957
1235.98,1.316040,567975,27434
1239.46,1.323477,574815,27293
1242.94,1.319124,582782,27950
1246.41,1.320627,591476,28269
1251.03,1.322864,604016,28720
1254.5,1.321663,612289,29194
1257.96,1.331317,619125,28871
1261.41,1.323778,624551,29634
1264.86,1.324342,629900,29849
1268.31,1.321729,634345,30241
1271.75,1.326111,638574,30137
1276.33,1.327176,642499,30248
1279.76,1.331674,645905,30095
1283.19,1.325010,648307,30674
1286.61,1.319795,650446,31147
1290.03,1.328628,652132,30599
1293.44,1.329454,653907,30624
1296.85,1.326738,655963,30913
1301.39,1.325930,657349,31036
1304.8,1.331433,657558,30655
1308.19,1.323994,658515,31230
1311.58,1.324643,658804,31197
1314.97,1.330765,659011,30770
1318.36,1.328728,658272,30880
1321.73,1.325033,658022,31132
1326.23,1.329759,657870,30788
1329.6,1.335336,656482,30331
1332.97,1.332648,654926,30447
1336.33,1.334327,653727,30274
1339.69,1.324339,652497,30920
1343.04,1.330296,649913,30378
1346.39,1.322170,647671,30845
1349.73,1.323725,645338,30624
1354.18,1.325047,641175,30334
1357.52,1.333961,638376,29588
1360.85,1.331285,635805,29651
1364.17,1.325609,633413,29928
1367.49,1.321899,631026,30071
1370.81,1.328658,628050,29467
1374.12,1.328547,625034,29333
1378.54,1.323349,620272,29460
1381.84,1.322350,616892,29367
1385.14,1.325706,613613,28986
1388.43,1.320869,611526,29211
1391.72,1.327345,610663,28738
1395.01,1.326781,610634,28774
1398.29,1.323691,611700,29030
1402.66,1.330928,614051,28660
1405.93,1.330302,616268,28805
1409.2,1.327638,617795,29054
1412.46,1.330688,618872,28901
1415.72,1.332253,619795,28840
1418.98,1.332307,620495,28869
1422.23,1.332345,621087,28894
1426.56,1.334882,621375,28739
1429.8,1.335655,621616,28699
1433.04,1.327191,622129,29288
1436.27,1.332607,621526,28897
1439.5,1.332032,621113,28916
1442.72,1.330743,620921,28993
1445.94,1.333505,620270,28779
1450.23,1.331055,618860,28876
1453.44,1.329427,617697,28930
1456.64,1.332460,616264,28662
1459.85,1.334073,614413,28470
1463.04,1.332201,612307,28495
1466.24,1.328471,610032,28634
1469.43,1.330148,607345,28398
1473.67,1.336200,603789,27841
1476.85,1.332169,601175,27979
1480.02,1.332465,597737,27800
1483.19,1.337863,594479,27307
1486.36,1.331384,591232,27566
1489.52,1.333775,587853,27258
1492.68,1.341389,583875,26603
1496.89,1.331770,578062,26928
1500.03,1.333009,574159,26670
1503.18,1.336285,570285,26291
1506.32,1.337717,565444,25982
1509.45,1.341971,560571,25507
1512.58,1.338463,555821,25496
1515.71,1.338235,550344,25258
1519.87,1.338410,543983,24956
1522.99,1.336037,538764,24852
1526.1,1.329629,533692,24984
1529.21,1.339295,527902,24169
1532.32,1.335432,521886,24107
1535.42,1.334103,515888,23903
1538.51,1.329016,509987,23908
1541.6,1.335560,503936,23271
1545.72,1.336173,494694,22812
1548.8,1.329110,488378,22890
1551.88,1.332803,481832,22392
1554.95,1.336299,474989,21897
1558.02,1.332298,467818,21766
1561.08,1.336926,460730,21209
1564.15,1.331682,454170,21161
1568.22,1.335933,444181,20494
1571.27,1.329035,436947,20483
1574.32,1.327990,429598,20187
1577.36,1.328709,422039,19799
1580.4,1.330174,414375,19374
1583.43,1.327962,406354,19096
1586.46,1.323365,398475,18925
1590.49,1.321281,388982,18563
1593.51,1.332791,380708,17693
1596.53,1.333219,372727,17305
1599.54,1.317296,365060,17582
1602.55,1.325185,357543,16910
1605.55,1.324145,349495,16569
1608.55,1.330462,341154,15940
1612.54,1.317669,330877,15922
1615.53,1.313700,322904,15681
1618.51,1.324964,315116,14911
1621.49,1.315251,307217,14866
1624.47,1.319608,299481,14347
1627.44,1.313108,292112,14205
1630.41,1.323649,284245,13491
1634.36,1.319049,274079,13147
1637.32,1.320830,266916,12751
1640.27,1.309530,259612,12729
1643.22,1.319211,251804,12074
1646.16,1.319341,244348,11713
1649.1,1.327163,236703,11144
1652.04,1.301737,228171,11390
1655.95,1.315644,215408,10414
1658.88,1.290514,204937,10498
1661.8,1.283761,193395,10062
1664.72,1.280519,179728,9421
1667.63,1.265286,163642,8884
1670.54,1.262299,146312,7998
1673.44,1.232404,128451,7522
1677.31,1.206474,105080,6532
1680.21,1.185653,88906,5798
1683.1,1.167342,75033,5104
1685.99,1.229923,63520,3741
1688.87,1.173906,53714,3599
1691.75,1.165872,45653,3116
1694.62,1.222630,39137,2344
1697.49,1.281126,33776,1768
1701.31,1.231591,28175,1653

File: Column 1_078685_20241121_171714.csv
Method:,Column 1,,
Host Date-Time:,21/11/24 @ 17:17:14,,
Header Version:,1,,
System Temp (C):,34.42,,
Detector Temp (C):,34.79,,
Humidity (%):,1.56,,
Lamp PD:,3801,,
Shift Vector Coefficients:,-10.5391,0.0761263,-0.000134223,,
Pixel to Wavelength Coefficients:,1775.68,-0.916766,-0.000235065,,
Serial Number:,5510004,,
Scan Config Name:,Column 1,,
Scan Config Type:,Slew,,
Section 1,,
Start wavelength (nm):,900,,
End wavelength (nm):,1700,,
Pattern Pixel Width (nm):,   7.03,,,,
Exposure (ms):,  0.635,,,,
Digital Resolution:,228,,
Num Repeats:,6,,
PGA Gain:,64,,
Total Measurement Time in sec:,  2.703,,
Wavelength (nm),Absorbance (AU),Reference Signal (unitless),Sample Signal (unitless)
901.51,1.321459,108485,5175
905.376,1.301840,121306,6054
909.237,1.339237,131909,6040
913.095,1.324629,143299,6786
916.948,1.325036,156982,7427
922.079,1.320117,179937,8610
925.923,1.327243,200504,9438
929.762,1.326412,222660,10501
933.597,1.319479,244426,11713
937.427,1.314144,263972,12806
941.254,1.315514,281845,13630
945.076,1.304478,297271,14746
950.165,1.312357,315605,15374
953.978,1.298428,328029,16500
957.786,1.294108,340470,17297
961.59,1.305064,352317,17453
965.389,1.303978,363056,18030
969.185,1.308711,373162,18331
972.976,1.300726,382632,19145
976.763,1.310414,391202,19142
981.806,1.303282,400190,19906
985.583,1.305014,406088,20119
989.355,1.306595,410162,20247
993.124,1.306735,412868,20374
996.888,1.304021,414263,20571
1000.65,1.304405,415476,20613
1004.4,1.309750,415479,20361
1009.41,1.303171,414358,20616
1013.15,1.319753,412923,19775
1016.89,1.304895,411526,20394
1020.63,1.312025,409066,19942
1024.36,1.303403,406777,20228
1028.09,1.303277,404427,20117
1031.82,1.297276,401911,20270
1036.78,1.300431,398410,19948
1040.49,1.310408,396204,19387
1044.2,1.306770,394236,19453
1047.91,1.307910,392042,19294
1051.61,1.301635,389823,19464
1055.31,1.311416,388234,18953
1059,1.304674,387599,19218
1063.92,1.312533,386688,18829
1067.61,1.311189,386598,18883
1071.29,1.304697,387377,19206
1074.96,1.312946,388536,18901
1078.63,1.312950,389855,18965
1082.3,1.309250,391215,19194
1085.96,1.307254,393215,19381
1090.84,1.310503,396270,19386
1094.49,1.315943,398760,19265
1098.14,1.313921,400987,19463
1101.79,1.315317,403477,19521
1105.43,1.311371,406116,19828
1109.06,1.309551,407701,19989
1112.7,1.315816,409859,19807
1117.53,1.310045,412494,20201
1121.15,1.303812,414909,20613
1124.77,1.310771,416559,20366
1128.38,1.316033,418532,20216
1131.99,1.318929,419956,20150
1135.6,1.321068,421946,20146
1139.2,1.311211,423881,20703
1143.99,1.319411,426786,20455
1147.58,1.317718,428617,20623
1151.17,1.313692,431169,20939
1154.75,1.322316,433579,20642
1158.33,1.316766,436264,21037
1161.91,1.315502,439132,21237
1165.48,1.306174,442389,21859
1169.04,1.314718,446101,21613
1173.79,1.310148,451929,22127
1177.34,1.313537,456026,22154
1180.9,1.316015,461306,22283
1184.44,1.317841,467657,22495
1187.99,1.320394,473969,22665
1191.52,1.312136,479856,23387
1195.06,1.317625,487372,23455
1199.76,1.315003,497347,24080
1203.29,1.318435,504311,24225
1206.81,1.314523,511507,24793
1210.33,1.317015,519078,25016
1213.84,1.320975,527163,25175
1217.35,1.310305,534208,26146
1220.85,1.325331,540472,25553
1225.51,1.316668,549929,26524
1229.01,1.317665,556888,26798
1232.5,1.314589,562180,27245
1235.98,1.318692,567975,27267
1239.46,1.314594,574815,27857
1242.94,1.316151,582782,28142
1246.41,1.319967,591476,28312
1251.03,1.320466,604016,28879
1254.5,1.319541,612289,29337
1257.96,1.317329,619125,29816
1261.41,1.325540,624551,29514
1264.86,1.319567,629900,30179
1268.31,1.323990,634345,30084
1271.75,1.322038,638574,30421
1276.33,1.323331,642499,30517
1279.76,1.318877,645905,30995
1283.19,1.322371,648307,30861
1286.61,1.329025,650446,30492
1290.03,1.325165,652132,30844
1293.44,1.321932,653907,31159
1296.85,1.331740,655963,30559
1301.39,1.327613,657349,30916
1304.8,1.323919,657558,31190
1308.19,1.326210,658515,31071
1311.58,1.327268,658804,31009
1314.97,1.329286,659011,30875
1318.36,1.323736,658272,31237
1321.73,1.330961,658022,30710
1326.23,1.323373,657870,31244
1329.6,1.325539,656482,31023
1332.97,1.329507,654926,30668
1336.33,1.322259,653727,31127
1339.69,1.330991,652497,30450
1343.04,1.325759,649913,30697
1346.39,1.333452,647671,30054
1349.73,1.326228,645338,30448
1354.18,1.325161,641175,30326
1357.52,1.324122,638376,30266
1360.85,1.325335,635805,30060
1364.17,1.324986,633413,29971
1367.49,1.321279,631026,30114
1370.81,1.330593,628050,29336
1374.12,1.330893,625034,29175
1378.54,1.323984,620272,29417
1381.84,1.323920,616892,29261
1385.14,1.319400,613613,29410
1388.43,1.320750,611526,29219
1391.72,1.319438,610663,29266
1395.01,1.322172,610634,29081
1398.29,1.316716,611700,29500
1402.66,1.324073,614051,29116
1405.93,1.324610,616268,29185
1409.2,1.324837,617795,29242
1412.46,1.326516,618872,29180
1415.72,1.323975,619795,29395
1418.98,1.330071,620495,29018
1422.23,1.330246,621087,29034
1426.56,1.330956,621375,29000
1429.8,1.323479,621616,29515
1433.04,1.330600,622129,29059
1436.27,1.327022,621526,29271
1439.5,1.323746,621113,29473
1442.72,1.332966,620921,28845
1445.94,1.334366,620270,28722
1450.23,1.334119,618860,28673
1453.44,1.330178,617697,28880
1456.64,1.322114,616264,29353
1459.85,1.325090,614413,29065
1463.04,1.330649,612307,28597
1466.24,1.331881,610032,28410
1469.43,1.331710,607345,28296
1473.67,1.331978,603789,28113
1476.85,1.329584,601175,28146
1480.02,1.336515,597737,27542
1483.19,1.333621,594479,27575
1486.36,1.323516,591232,28070
1489.52,1.326836,587853,27697
1492.68,1.332054,583875,27181
1496.89,1.331158,578062,26966
1500.03,1.332033,574159,26730
1503.18,1.328265,570285,26781
1506.32,1.335683,565444,26104
1509.45,1.334259,560571,25964
1512.58,1.328711,555821,26075
1515.71,1.329318,550344,25782
1519.87,1.331179,543983,25375
1522.99,1.329430,538764,25233
1526.1,1.333873,533692,24741
1529.21,1.330613,527902,24657
1532.32,1.335973,521886,24077
1535.42,1.333921,515888,23913
1538.51,1.336233,509987,23514
1541.6,1.328012,503936,23679
1545.72,1.334103,494694,22921
1548.8,1.335340,488378,22564
1551.88,1.336680,481832,22193
1554.95,1.332350,474989,22097
1558.02,1.332119,467818,21775
1561.08,1.331554,460730,21473
1564.15,1.332011,454170,21145
1568.22,1.329768,444181,20787
1571.27,1.330118,436947,20432
1574.32,1.323198,429598,20411
1577.36,1.325540,422039,19944
1580.4,1.329435,414375,19407
1583.43,1.324429,406354,19252
1586.46,1.317507,398475,19182
1590.49,1.326814,388982,18328
1593.51,1.328613,380708,17864
1596.53,1.331666,372727,17367
1599.54,1.321491,365060,17413
1602.55,1.324646,357543,16931
1605.55,1.330215,349495,16339
1608.55,1.322926,341154,16219
1612.54,1.314273,330877,16047
1615.53,1.313257,322904,15697
1618.51,1.316798,315116,15194
1621.49,1.306861,307217,15156
1624.47,1.319881,299481,14338
1627.44,1.307036,292112,14405
1630.41,1.309742,284245,13930
1634.36,1.300807,274079,13711
1637.32,1.304979,266916,13225
1640.27,1.308951,259612,12746
1643.22,1.301451,251804,12578
1646.16,1.322056,244348,11640
1649.1,1.301329,236703,11827
1652.04,1.313486,228171,11086
1655.95,1.295636,215408,10905
1658.88,1.286683,204937,10591
1661.8,1.290240,193395,9913
1664.72,1.265522,179728,9752
1667.63,1.245879,163642,9290
1670.54,1.236168,146312,8494
1673.44,1.236756,128451,7447
1677.31,1.172469,105080,7064
1680.21,1.178005,88906,5901
1683.1,1.174549,75033,5020
1685.99,1.155332,63520,4442
1688.87,1.158146,53714,3732
1691.75,1.182493,45653,2999
1694.62,1.185027,39137,2556
1697.49,1.212638,33776,2070
1701.31,1.232380,28175,1650