Folder: textile_sorting_NIRSCAN_/ML/samples/unknown (part 102)

File: Column 1_078718_20241121_171850.csv
Method:,Column 1,,
Host Date-Time:,21/11/24 @ 17:18:50,,
Header Version:,1,,
System Temp (C):,35.79,,
Detector Temp (C):,34.49,,
Humidity (%):,1.57,,
Lamp PD:,3799,,
Shift Vector Coefficients:,-10.5391,0.0761263,-0.000134223,,
Pixel to Wavelength Coefficients:,1775.68,-0.916766,-0.000235065,,
Serial Number:,5510004,,
Scan Config Name:,Column 1,,
Scan Config Type:,Slew,,
Section 1,,
Start wavelength (nm):,900,,
End wavelength (nm):,1700,,
Pattern Pixel Width (nm):,   7.03,,,,
Exposure (ms):,  0.635,,,,
Digital Resolution:,228,,
Num Repeats:,6,,
PGA Gain:,64,,
Total Measurement Time in sec:,  2.725,,
Wavelength (nm),Absorbance (AU),Reference Signal (unitless),Sample Signal (unitless)
901.51,1.331649,108485,5055
905.376,1.303493,121306,6031
909.237,1.326414,131909,6221
913.095,1.313759,143299,6958
916.948,1.307446,156982,7734
922.079,1.298520,179937,9049
925.923,1.316293,200504,9679
929.762,1.298773,222660,11191
933.597,1.316892,244426,11783
937.427,1.314552,263972,12794
941.254,1.319291,281845,13512
945.076,1.312054,297271,14491
950.165,1.313035,315605,15350
953.978,1.304285,328029,16279
957.786,1.307365,340470,16777
961.59,1.308135,352317,17330
965.389,1.308457,363056,17845
969.185,1.298804,373162,18754
972.976,1.300544,382632,19153
976.763,1.299768,391202,19617
981.806,1.293382,400190,20365
985.583,1.300333,406088,20337
989.355,1.301032,410162,20508
993.124,1.304672,412868,20471
996.888,1.303346,414263,20603
1000.65,1.297383,415476,20949
1004.4,1.295834,415479,21024
1009.41,1.302855,414358,20631
1013.15,1.301833,412923,20608
1016.89,1.309476,411526,20180
1020.63,1.301993,409066,20408
1024.36,1.303984,406777,20201
1028.09,1.296147,404427,20450
1031.82,1.303361,401911,19988
1036.78,1.298801,398410,20023
1040.49,1.298150,396204,19942
1044.2,1.303124,394236,19617
1047.91,1.294785,392042,19886
1051.61,1.316409,389823,18813
1055.31,1.297103,388234,19588
1059,1.306418,387599,19141
1063.92,1.304422,386688,19184
1067.61,1.299077,386598,19417
1071.29,1.320094,387377,18537
1074.96,1.305791,388536,19215
1078.63,1.310052,389855,19092
1082.3,1.307106,391215,19289
1085.96,1.300782,393215,19672
1090.84,1.309049,396270,19451
1094.49,1.313515,398760,19373
1098.14,1.306970,400987,19777
1101.79,1.312346,403477,19655
1105.43,1.314625,406116,19680
1109.06,1.305119,407701,20194
1112.7,1.313214,409859,19926
1117.53,1.312849,412494,20071
1121.15,1.312129,414909,20222
1124.77,1.313251,416559,20250
1128.38,1.313912,418532,20315
1131.99,1.310498,419956,20545
1135.6,1.316607,421946,20354
1139.2,1.308284,423881,20843
1143.99,1.307041,426786,21046
1147.58,1.312297,428617,20882
1151.17,1.307964,431169,21217
1154.75,1.319841,433579,20760
1158.33,1.308079,436264,21462
1161.91,1.313462,439132,21337
1165.48,1.310708,442389,21632
1169.04,1.310439,446101,21827
1173.79,1.310364,451929,22116
1177.34,1.307116,456026,22484
1180.9,1.308193,461306,22688
1184.44,1.315300,467657,22627
1187.99,1.313494,473969,23028
1191.52,1.318289,479856,23058
1195.06,1.313552,487372,23676
1199.76,1.315021,497347,24079
1203.29,1.313515,504311,24501
1206.81,1.305474,511507,25315
1210.33,1.308829,519078,25492
1213.84,1.319202,527163,25278
1217.35,1.319487,534208,25599
1220.85,1.313727,540472,26245
1225.51,1.315033,549929,26624
1229.01,1.314115,556888,27018
1232.5,1.317965,562180,27034
1235.98,1.321681,567975,27080
1239.46,1.315780,574815,27781
1242.94,1.313628,582782,28306
1246.41,1.311746,591476,28853
1251.03,1.317753,604016,29060
1254.5,1.322229,612289,29156
1257.96,1.319783,619125,29648
1261.41,1.318230,624551,30015
1264.86,1.317456,629900,30326
1268.31,1.323947,634345,30087
1271.75,1.321196,638574,30480
1276.33,1.319590,642499,30781
1279.76,1.322564,645905,30733
1283.19,1.320573,648307,30989
1286.61,1.323914,650446,30853
1290.03,1.328004,652132,30643
1293.44,1.320930,653907,31231
1296.85,1.326865,655963,30904
1301.39,1.327823,657349,30901
1304.8,1.323362,657558,31230
1308.19,1.329099,658515,30865
1311.58,1.328292,658804,30936
1314.97,1.326007,659011,31109
1318.36,1.328433,658272,30901
1321.73,1.327453,658022,30959
1326.23,1.326582,657870,31014
1329.6,1.328700,656482,30798
1332.97,1.322999,654926,31131
1336.33,1.320880,653727,31226
1339.69,1.327511,652497,30695
1343.04,1.332963,649913,30192
1346.39,1.326983,647671,30505
1349.73,1.322324,645338,30723
1354.18,1.318384,641175,30803
1357.52,1.322317,638376,30392
1360.85,1.323633,635805,30178
1364.17,1.320675,633413,30270
1367.49,1.321654,631026,30088
1370.81,1.319919,628050,30066
1374.12,1.324348,625034,29618
1378.54,1.321056,620272,29616
1381.84,1.322069,616892,29386
1385.14,1.327162,613613,28889
1388.43,1.320259,611526,29252
1391.72,1.319186,610663,29283
1395.01,1.323533,610634,28990
1398.29,1.318472,611700,29381
1402.66,1.320360,614051,29366
1405.93,1.321747,616268,29378
1409.2,1.321523,617795,29466
1412.46,1.322383,618872,29459
1415.72,1.327356,619795,29167
1418.98,1.323388,620495,29468
1422.23,1.325337,621087,29364
1426.56,1.329341,621375,29108
1429.8,1.321688,621616,29637
1433.04,1.328512,622129,29199
1436.27,1.328047,621526,29202
1439.5,1.329980,621113,29053
1442.72,1.324881,620921,29387
1445.94,1.327838,620270,29157
1450.23,1.324414,618860,29321
1453.44,1.332395,617697,28733
1456.64,1.336678,616264,28385
1459.85,1.328149,614413,28861
1463.04,1.330725,612307,28592
1466.24,1.330599,610032,28494
1469.43,1.327373,607345,28580
1473.67,1.334426,603789,27955
1476.85,1.337730,601175,27623
1480.02,1.326600,597737,28178
1483.19,1.323857,594479,28202
1486.36,1.334388,591232,27376
1489.52,1.332661,587853,27328
1492.68,1.330396,583875,27285
1496.89,1.330353,578062,27016
1500.03,1.332456,574159,26704
1503.18,1.325823,570285,26932
1506.32,1.328914,565444,26514
1509.45,1.335515,560571,25889
1512.58,1.334664,555821,25720
1515.71,1.331530,550344,25651
1519.87,1.335445,543983,25127
1522.99,1.326873,538764,25382
1526.1,1.327652,533692,25098
1529.21,1.331230,527902,24622
1532.32,1.325266,521886,24678
1535.42,1.330791,515888,24086
1538.51,1.320205,509987,24398
1541.6,1.324650,503936,23863
1545.72,1.334293,494694,22911
1548.8,1.336998,488378,22478
1551.88,1.325380,481832,22778
1554.95,1.318235,474989,22827
1558.02,1.339460,467818,21410
1561.08,1.322408,460730,21930
1564.15,1.329328,454170,21276
1568.22,1.324514,444181,21040
1571.27,1.318789,436947,20972
1574.32,1.321139,429598,20508
1577.36,1.320561,422039,20174
1580.4,1.328050,414375,19469
1583.43,1.326758,406354,19149
1586.46,1.327516,398475,18745
1590.49,1.328952,388982,18238
1593.51,1.318450,380708,18287
1596.53,1.326767,372727,17564
1599.54,1.322965,365060,17354
1602.55,1.310911,357543,17475
1605.55,1.313452,349495,16982
1608.55,1.316811,341154,16449
1612.54,1.317614,330877,15924
1615.53,1.316450,322904,15582
1618.51,1.314745,315116,15266
1621.49,1.308986,307217,15082
1624.47,1.305785,299481,14811
1627.44,1.307096,292112,14403
1630.41,1.318465,284245,13653
1634.36,1.308218,274079,13479
1637.32,1.311764,266916,13020
1640.27,1.302424,259612,12939
1643.22,1.308693,251804,12370
1646.16,1.293852,244348,12421
1649.1,1.315512,236703,11447
1652.04,1.299379,228171,11452
1655.95,1.296035,215408,10895
1658.88,1.280576,204937,10741
1661.8,1.266955,193395,10459
1664.72,1.273613,179728,9572
1667.63,1.250249,163642,9197
1670.54,1.230125,146312,8613
1673.44,1.221852,128451,7707
1677.31,1.171242,105080,7084
1680.21,1.150211,88906,6291
1683.1,1.139733,75033,5439
1685.99,1.130074,63520,4708
1688.87,1.133600,53714,3949
1691.75,1.125062,45653,3423
1694.62,1.161546,39137,2698
1697.49,1.111968,33776,2610
1701.31,1.076584,28175,2362

File: Column 1_078720_20241121_171855.csv
Method:,Column 1,,
Host Date-Time:,21/11/24 @ 17:18:55,,
Header Version:,1,,
System Temp (C):,35.92,,
Detector Temp (C):,34.45,,
Humidity (%):,1.57,,
Lamp PD:,3799,,
Shift Vector Coefficients:,-10.5391,0.0761263,-0.000134223,,
Pixel to Wavelength Coefficients:,1775.68,-0.916766,-0.000235065,,
Serial Number:,5510004,,
Scan Config Name:,Column 1,,
Scan Config Type:,Slew,,
Section 1,,
Start wavelength (nm):,900,,
End wavelength (nm):,1700,,
Pattern Pixel Width (nm):,   7.03,,,,
Exposure (ms):,  0.635,,,,
Digital Resolution:,228,,
Num Repeats:,6,,
PGA Gain:,64,,
Total Measurement Time in sec:,  2.727,,
Wavelength (nm),Absorbance (AU),Reference Signal (unitless),Sample Signal (unitless)
901.51,1.304749,108485,5378
905.376,1.312809,121306,5903
909.237,1.305428,131909,6529
913.095,1.313946,143299,6955
916.948,1.311168,156982,7668
922.079,1.305535,179937,8904
925.923,1.320033,200504,9596
929.762,1.327488,222660,10475
933.597,1.316486,244426,11794
937.427,1.320671,263972,12615
941.254,1.310478,281845,13789
945.076,1.305510,297271,14711
950.165,1.309289,315605,15483
953.978,1.313179,328029,15949
957.786,1.309857,340470,16681
961.59,1.303350,352317,17522
965.389,1.304605,363056,18004
969.185,1.301335,373162,18645
972.976,1.305218,382632,18948
976.763,1.301477,391202,19540
981.806,1.302541,400190,19940
985.583,1.302903,406088,20217
989.355,1.304071,410162,20365
993.124,1.307396,412868,20343
996.888,1.305226,414263,20514
1000.65,1.296927,415476,20971
1004.4,1.300068,415479,20820
1009.41,1.309067,414358,20338
1013.15,1.309015,412923,20270
1016.89,1.305278,411526,20376
1020.63,1.303314,409066,20346
1024.36,1.300515,406777,20363
1028.09,1.303752,404427,20095
1031.82,1.302514,401911,20027
1036.78,1.301783,398410,19886
1040.49,1.301956,396204,19768
1044.2,1.307999,394236,19398
1047.91,1.299594,392042,19667
1051.61,1.312548,389823,18981
1055.31,1.299059,388234,19500
1059,1.308739,387599,19039
1063.92,1.308996,386688,18983
1067.61,1.306841,386598,19073
1071.29,1.307396,387377,19087
1074.96,1.304324,388536,19280
1078.63,1.312012,389855,19006
1082.3,1.305465,391215,19362
1085.96,1.303372,393215,19555
1090.84,1.310033,396270,19407
1094.49,1.314794,398760,19316
1098.14,1.306553,400987,19796
1101.79,1.310010,403477,19761
1105.43,1.305670,406116,20090
1109.06,1.313852,407701,19792
1112.7,1.301941,409859,20450
1117.53,1.316063,412494,19923
1121.15,1.310971,414909,20276
1124.77,1.320213,416559,19928
1128.38,1.312205,418532,20395
1131.99,1.318929,419956,20150
1135.6,1.310169,421946,20658
1139.2,1.306350,423881,20936
1143.99,1.311792,426786,20817
1147.58,1.320952,428617,20470
1151.17,1.304416,431169,21391
1154.75,1.313672,433579,21057
1158.33,1.320414,436264,20861
1161.91,1.312526,439132,21383
1165.48,1.311733,442389,21581
1169.04,1.310360,446101,21831
1173.79,1.310933,451929,22087
1177.34,1.310062,456026,22332
1180.9,1.307810,461306,22708
1184.44,1.308105,467657,23005
1187.99,1.312495,473969,23081
1191.52,1.305831,479856,23729
1195.06,1.323291,487372,23151
1199.76,1.316123,497347,24018
1203.29,1.319116,504311,24187
1206.81,1.313735,511507,24838
1210.33,1.323486,519078,24646
1213.84,1.324700,527163,24960
1217.35,1.316343,534208,25785
1220.85,1.317483,540472,26019
1225.51,1.320847,549929,26270
1229.01,1.315290,556888,26945
1232.5,1.321498,562180,26815
1235.98,1.317324,567975,27353
1239.46,1.312742,574815,27976
1242.94,1.315750,582782,28168
1246.41,1.316788,591476,28520
1251.03,1.320873,604016,28852
1254.5,1.318521,612289,29406
1257.96,1.323136,619125,29420
1261.41,1.321439,624551,29794
1264.86,1.323571,629900,29902
1268.31,1.319252,634345,30414
1271.75,1.329860,638574,29878
1276.33,1.322790,642499,30555
1279.76,1.316683,645905,31152
1283.19,1.325237,648307,30658
1286.61,1.321429,650446,31030
1290.03,1.321743,652132,31088
1293.44,1.326528,653907,30831
1296.85,1.328343,655963,30799
1301.39,1.322390,657349,31290
1304.8,1.322390,657558,31300
1308.19,1.326141,658515,31076
1311.58,1.328517,658804,30920
1314.97,1.325435,659011,31150
1318.36,1.318966,658272,31582
1321.73,1.324490,658022,31171
1326.23,1.329124,657870,30833
1329.6,1.327194,656482,30905
1332.97,1.330230,654926,30617
1336.33,1.326959,653727,30792
1339.69,1.320299,652497,31209
1343.04,1.326652,649913,30634
1346.39,1.328552,647671,30395
1349.73,1.321533,645338,30779
1354.18,1.322705,641175,30498
1357.52,1.321247,638376,30467
1360.85,1.318597,635805,30530
1364.17,1.326524,633413,29865
1367.49,1.319150,631026,30262
1370.81,1.322192,628050,29909
1374.12,1.317034,625034,30121
1378.54,1.321349,620272,29596
1381.84,1.319622,616892,29552
1385.14,1.324763,613613,29049
1388.43,1.326555,611526,28831
1391.72,1.322147,610663,29084
1395.01,1.326027,610634,28824
1398.29,1.321319,611700,29189
1402.66,1.328737,614051,28805
1405.93,1.329338,616268,28869
1409.2,1.320522,617795,29534
1412.46,1.325638,618872,29239
1415.72,1.322794,619795,29475
1418.98,1.331615,620495,28915
1422.23,1.328305,621087,29164
1426.56,1.329685,621375,29085
1429.8,1.334960,621616,28745
1433.04,1.328572,622129,29195
1436.27,1.326918,621526,29278
1439.5,1.328026,621113,29184
1442.72,1.332544,620921,28873
1445.94,1.335017,620270,28679
1450.23,1.327505,618860,29113
1453.44,1.330554,617697,28855
1456.64,1.327698,616264,28978
1459.85,1.327638,614413,28895
1463.04,1.331485,612307,28542
1466.24,1.332141,610032,28393
1469.43,1.331220,607345,28328
1473.67,1.326605,603789,28463
1476.85,1.333350,601175,27903
1480.02,1.330673,597737,27915
1483.19,1.335041,594479,27485
1486.36,1.331826,591232,27538
1489.52,1.334828,587853,27192
1492.68,1.332438,583875,27157
1496.89,1.333807,578062,26802
1500.03,1.326111,574159,27097
1503.18,1.333010,570285,26490
1506.32,1.327998,565444,26570
1509.45,1.330910,560571,26165
1512.58,1.335424,555821,25675
1515.71,1.331124,550344,25675
1519.87,1.327261,543983,25605
1522.99,1.330533,538764,25169
1526.1,1.338231,533692,24494
1529.21,1.332909,527902,24527
1532.32,1.334730,521886,24146
1535.42,1.325059,515888,24406
1538.51,1.332188,509987,23734
1541.6,1.328471,503936,23654
1545.72,1.328044,494694,23243
1548.8,1.334148,488378,22626
1551.88,1.325304,481832,22782
1554.95,1.335071,474989,21959
1558.02,1.329157,467818,21924
1561.08,1.332404,460730,21431
1564.15,1.330965,454170,21196
1568.22,1.327663,444181,20888
1571.27,1.327786,436947,20542
1574.32,1.321372,429598,20497
1577.36,1.330886,422039,19700
1580.4,1.322817,414375,19705
1583.43,1.325083,406354,19223
1586.46,1.329489,398475,18660
1590.49,1.321937,388982,18535
1593.51,1.332913,380708,17688
1596.53,1.321386,372727,17783
1599.54,1.311603,365060,17814
1602.55,1.322292,357543,17023
1605.55,1.316506,349495,16863
1608.55,1.320550,341154,16308
1612.54,1.322883,330877,15732
1615.53,1.322541,322904,15365
1618.51,1.320271,315116,15073
1621.49,1.315339,307217,14863
1624.47,1.305902,299481,14807
1627.44,1.315745,292112,14119
1630.41,1.310334,284245,13911
1634.36,1.316119,274079,13236
1637.32,1.312364,266916,13002
1640.27,1.315923,259612,12543
1643.22,1.297430,251804,12695
1646.16,1.297645,244348,12313
1649.1,1.311246,236703,11560
1652.04,1.304683,228171,11313
1655.95,1.304691,215408,10680
1658.88,1.292463,204937,10451
1661.8,1.268119,193395,10431
1664.72,1.272526,179728,9596
1667.63,1.238555,163642,9448
1670.54,1.227111,146312,8673
1673.44,1.208698,128451,7944
1677.31,1.198372,105080,6655
1680.21,1.194277,88906,5684
1683.1,1.169474,75033,5079
1685.99,1.169341,63520,4301
1688.87,1.200914,53714,3382
1691.75,1.163509,45653,3133
1694.62,1.163320,39137,2687
1697.49,1.155696,33776,2360
1701.31,1.115611,28175,2159

File: Column 1_078721_20241121_171858.csv
Method:,Column 1,,
Host Date-Time:,21/11/24 @ 17:18:58,,
Header Version:,1,,
System Temp (C):,35.96,,
Detector Temp (C):,34.45,,
Humidity (%):,1.57,,
Lamp PD:,3799,,
Shift Vector Coefficients:,-10.5391,0.0761263,-0.000134223,,
Pixel to Wavelength Coefficients:,1775.68,-0.916766,-0.000235065,,
Serial Number:,5510004,,
Scan Config Name:,Column 1,,
Scan Config Type:,Slew,,
Section 1,,
Start wavelength (nm):,900,,
End wavelength (nm):,1700,,
Pattern Pixel Width (nm):,   7.03,,,,
Exposure (ms):,  0.635,,,,
Digital Resolution:,228,,
Num Repeats:,6,,
PGA Gain:,64,,
Total Measurement Time in sec:,  2.730,,
Wavelength (nm),Absorbance (AU),Reference Signal (unitless),Sample Signal (unitless)
901.51,1.311832,108485,5291
905.376,1.331450,121306,5655
909.237,1.341978,131909,6002
913.095,1.309473,143299,7027
916.948,1.330924,156982,7327
922.079,1.335049,179937,8319
925.923,1.334388,200504,9284
929.762,1.327281,222660,10480
933.597,1.319591,244426,11710
937.427,1.313500,263972,12825
941.254,1.316919,281845,13586
945.076,1.310827,297271,14532
950.165,1.318932,315605,15143
953.978,1.309410,328029,16088
957.786,1.316997,340470,16409
961.59,1.312923,352317,17140
965.389,1.311583,363056,17717
969.185,1.307883,373162,18366
972.976,1.310847,382632,18704
976.763,1.310663,391202,19131
981.806,1.311253,400190,19544
985.583,1.309396,406088,19917
989.355,1.310062,410162,20086
993.124,1.311709,412868,20142
996.888,1.308818,414263,20345
1000.65,1.299440,415476,20850
1004.4,1.304324,415479,20617
1009.41,1.301363,414358,20702
1013.15,1.306132,412923,20405
1016.89,1.303577,411526,20456
1020.63,1.309874,409066,20041
1024.36,1.309806,406777,19932
1028.09,1.300780,404427,20233
1031.82,1.305037,401911,19911
1036.78,1.309428,398410,19539
1040.49,1.302396,396204,19748
1044.2,1.307708,394236,19411
1047.91,1.305800,392042,19388
1051.61,1.310175,389823,19085
1055.31,1.312081,388234,18924
1059,1.307782,387599,19081
1063.92,1.304173,386688,19195
1067.61,1.297961,386598,19467
1071.29,1.304968,387377,19194
1074.96,1.314973,388536,18813
1078.63,1.311556,389855,19026
1082.3,1.315311,391215,18928
1085.96,1.310019,393215,19258
1090.84,1.313357,396270,19259
1094.49,1.316213,398760,19253
1098.14,1.313029,400987,19503
1101.79,1.317368,403477,19429
1105.43,1.312599,406116,19772
1109.06,1.307535,407701,20082
1112.7,1.314699,409859,19858
1117.53,1.307003,412494,20343
1121.15,1.310286,414909,20308
1124.77,1.319016,416559,19983
1128.38,1.313164,418532,20350
1131.99,1.318003,419956,20193
1135.6,1.321197,421946,20140
1139.2,1.317295,423881,20415
1143.99,1.313506,426786,20735
1147.58,1.311072,428617,20941
1151.17,1.321054,431169,20587
1154.75,1.317587,433579,20868
1158.33,1.317179,436264,21017
1161.91,1.322969,439132,20875
1165.48,1.321481,442389,21102
1169.04,1.320015,446101,21351
1173.79,1.321381,451929,21562
1177.34,1.313753,456026,22143
1180.9,1.312560,461306,22461
1184.44,1.320689,467657,22348
1187.99,1.311105,473969,23155
1191.52,1.317875,479856,23080
1195.06,1.318404,487372,23413
1199.76,1.316575,497347,23993
1203.29,1.320753,504311,24096
1206.81,1.315434,511507,24741
1210.33,1.324298,519078,24600
1213.84,1.322029,527163,25114
1217.35,1.319301,534208,25610
1220.85,1.321473,540472,25781
1225.51,1.320714,549929,26278
1229.01,1.322260,556888,26516
1232.5,1.318110,562180,27025
1235.98,1.314365,567975,27540
1239.46,1.323000,574815,27323
1242.94,1.324723,582782,27592
1246.41,1.322012,591476,28179
1251.03,1.322018,604016,28776
1254.5,1.325143,612289,28961
1257.96,1.321456,619125,29534
1261.41,1.328004,624551,29347
1264.86,1.324764,629900,29820
1268.31,1.325566,634345,29975
1271.75,1.322081,638574,30418
1276.33,1.325270,642499,30381
1279.76,1.323228,645905,30686
1283.19,1.329050,648307,30390
1286.61,1.325875,650446,30714
1290.03,1.325362,652132,30830
1293.44,1.329497,653907,30621
1296.85,1.323896,655963,31116
1301.39,1.327037,657349,30957
1304.8,1.331475,657558,30652
1308.19,1.327134,658515,31005
1311.58,1.329515,658804,30849
1314.97,1.324182,659011,31240
1318.36,1.332386,658272,30621
1321.73,1.331017,658022,30706
1326.23,1.326176,657870,31043
1329.6,1.331672,656482,30588
1332.97,1.330755,654926,30580
1336.33,1.323895,653727,31010
1339.69,1.326988,652497,30732
1343.04,1.325208,649913,30736
1346.39,1.330084,647671,30288
1349.73,1.328302,645338,30303
1354.18,1.327776,641175,30144
1357.52,1.328665,638376,29951
1360.85,1.318554,635805,30533
1364.17,1.323092,633413,30102
1367.49,1.322723,631026,30014
1370.81,1.324785,628050,29731
1374.12,1.322300,625034,29758
1378.54,1.326620,620272,29239
1381.84,1.324618,616892,29214
1385.14,1.326096,613613,28960
1388.43,1.323448,611526,29038
1391.72,1.325460,610663,28863
1395.01,1.323638,610634,28983
1398.29,1.327101,611700,28803
1402.66,1.324804,614051,29067
1405.93,1.326878,616268,29033
1409.2,1.327624,617795,29055
1412.46,1.327723,618872,29099
1415.72,1.333278,619795,28772
1418.98,1.324568,620495,29388
1422.23,1.328901,621087,29124
1426.56,1.327332,621375,29243
1429.8,1.328407,621616,29182
1433.04,1.322457,622129,29609
1436.27,1.330777,621526,29019
1439.5,1.330593,621113,29012
1442.72,1.333915,620921,28782
1445.94,1.331878,620270,28887
1450.23,1.334422,618860,28653
1453.44,1.332228,617697,28744
1456.64,1.333340,616264,28604
1459.85,1.329777,614413,28753
1463.04,1.327652,612307,28795
1466.24,1.326624,610032,28756
1469.43,1.327981,607345,28540
1473.67,1.332426,603789,28084
1476.85,1.331099,601175,28048
1480.02,1.334297,597737,27683
1483.19,1.334267,594479,27534
1486.36,1.333770,591232,27415
1489.52,1.335947,587853,27122
1492.68,1.329140,583875,27364
1496.89,1.333435,578062,26825
1500.03,1.340317,574159,26225
1503.18,1.327423,570285,26833
1506.32,1.330391,565444,26424
1509.45,1.338258,560571,25726
1512.58,1.342777,555821,25244
1515.71,1.333686,550344,25524
1519.87,1.341046,543983,24805
1522.99,1.333771,538764,24982
1526.1,1.334084,533692,24729
1529.21,1.339978,527902,24131
1532.32,1.329670,521886,24429
1535.42,1.321285,515888,24619
1538.51,1.335273,509987,23566
1541.6,1.334964,503936,23303
1545.72,1.334558,494694,22897
1548.8,1.331698,488378,22754
1551.88,1.338327,481832,22109
1554.95,1.332743,474989,22077
1558.02,1.324115,467818,22180
1561.08,1.333500,460730,21377
1564.15,1.338633,454170,20825
1568.22,1.340556,444181,20277
1571.27,1.328802,436947,20494
1574.32,1.331663,429598,20017
1577.36,1.327789,422039,19841
1580.4,1.324872,414375,19612
1583.43,1.331043,406354,18961
1586.46,1.338045,398475,18296
1590.49,1.336398,388982,17928
1593.51,1.330123,380708,17802
1596.53,1.323933,372727,17679
1599.54,1.325525,365060,17252
1602.55,1.312280,357543,17420
1605.55,1.331813,349495,16279
1608.55,1.324778,341154,16150
1612.54,1.319144,330877,15868
1615.53,1.313672,322904,15682
1618.51,1.331715,315116,14681
1621.49,1.324105,307217,14566
1624.47,1.321185,299481,14295
1627.44,1.320167,292112,13976
1630.41,1.315643,284245,13742
1634.36,1.316217,274079,13233
1637.32,1.308176,266916,13128
1640.27,1.316200,259612,12535
1643.22,1.303701,251804,12513
1646.16,1.309733,244348,11975
1649.1,1.301770,236703,11815
1652.04,1.295867,228171,11545
1655.95,1.293768,215408,10952
1658.88,1.301320,204937,10240
1661.8,1.281007,193395,10126
1664.72,1.268965,179728,9675
1667.63,1.240582,163642,9404
1670.54,1.248879,146312,8249
1673.44,1.210946,128451,7903
1677.31,1.193311,105080,6733
1680.21,1.165099,88906,6079
1683.1,1.187011,75033,4878
1685.99,1.221530,63520,3814
1688.87,1.111203,53714,4158
1691.75,1.152153,45653,3216
1694.62,1.187925,39137,2539
1697.49,1.278676,33776,1778
1701.31,1.196041,28175,1794