Folder: textile_sorting_NIRSCAN_/ML/samples/unknown (part 44)

File: Column 1_078275_20241121_165405.csv
Method:,Column 1,,
Host Date-Time:,21/11/24 @ 16:54:5,,
Header Version:,1,,
System Temp (C):,34.36,,
Detector Temp (C):,32.22,,
Humidity (%):,2.4,,
Lamp PD:,3802,,
Shift Vector Coefficients:,-10.5391,0.0761263,-0.000134223,,
Pixel to Wavelength Coefficients:,1775.68,-0.916766,-0.000235065,,
Serial Number:,5510004,,
Scan Config Name:,Column 1,,
Scan Config Type:,Slew,,
Section 1,,
Start wavelength (nm):,900,,
End wavelength (nm):,1700,,
Pattern Pixel Width (nm):,   7.03,,,,
Exposure (ms):,  0.635,,,,
Digital Resolution:,228,,
Num Repeats:,6,,
PGA Gain:,64,,
Total Measurement Time in sec:,  2.726,,
Wavelength (nm),Absorbance (AU),Reference Signal (unitless),Sample Signal (unitless)
901.51,1.307666,108485,5342
905.376,1.324970,121306,5740
909.237,1.345612,131909,5952
913.095,1.331857,143299,6674
916.948,1.316467,156982,7575
922.079,1.326622,179937,8482
925.923,1.322120,200504,9550
929.762,1.327405,222660,10477
933.597,1.323128,244426,11615
937.427,1.316457,263972,12738
941.254,1.335700,281845,13011
945.076,1.317210,297271,14320
950.165,1.321175,315605,15065
953.978,1.305086,328029,16249
957.786,1.310795,340470,16645
961.59,1.311557,352317,17194
965.389,1.306490,363056,17926
969.185,1.314963,373162,18069
972.976,1.305860,382632,18920
976.763,1.305115,391202,19377
981.806,1.304090,400190,19869
985.583,1.305186,406088,20111
989.355,1.314474,410162,19883
993.124,1.311364,412868,20158
996.888,1.313778,414263,20114
1000.65,1.311221,415476,20292
1004.4,1.321511,415479,19817
1009.41,1.311895,414358,20206
1013.15,1.315274,412923,19980
1016.89,1.305364,411526,20372
1020.63,1.314690,409066,19820
1024.36,1.303296,406777,20233
1028.09,1.308948,404427,19856
1031.82,1.313183,401911,19541
1036.78,1.315651,398410,19261
1040.49,1.307439,396204,19520
1044.2,1.312478,394236,19199
1047.91,1.315448,392042,18962
1051.61,1.307883,389823,19186
1055.31,1.318042,388234,18666
1059,1.313786,387599,18819
1063.92,1.316147,386688,18673
1067.61,1.315976,386598,18676
1071.29,1.325873,387377,18292
1074.96,1.313245,388536,18888
1078.63,1.317647,389855,18761
1082.3,1.323674,391215,18567
1085.96,1.312303,393215,19157
1090.84,1.318210,396270,19045
1094.49,1.309321,398760,19561
1098.14,1.312873,400987,19510
1101.79,1.313629,403477,19597
1105.43,1.318393,406116,19510
1109.06,1.322428,407701,19405
1112.7,1.324833,409859,19400
1117.53,1.319851,412494,19750
1121.15,1.323112,414909,19717
1124.77,1.315229,416559,20158
1128.38,1.320091,418532,20028
1131.99,1.315815,419956,20295
1135.6,1.317419,421946,20316
1139.2,1.320519,423881,20264
1143.99,1.317800,426786,20531
1147.58,1.316204,428617,20695
1151.17,1.322491,431169,20519
1154.75,1.319715,433579,20766
1158.33,1.315426,436264,21102
1161.91,1.330587,439132,20512
1165.48,1.321934,442389,21080
1169.04,1.323918,446101,21160
1173.79,1.319492,451929,21656
1177.34,1.315089,456026,22075
1180.9,1.318380,461306,22162
1184.44,1.318556,467657,22458
1187.99,1.318730,473969,22752
1191.52,1.321313,479856,22898
1195.06,1.318756,487372,23394
1199.76,1.315490,497347,24053
1203.29,1.323574,504311,23940
1206.81,1.319881,511507,24489
1210.33,1.317206,519078,25005
1213.84,1.329107,527163,24708
1217.35,1.323989,534208,25335
1220.85,1.323940,540472,25635
1225.51,1.325300,549929,26002
1229.01,1.325680,556888,26308
1232.5,1.325974,562180,26540
1235.98,1.323674,567975,26956
1239.46,1.325742,574815,27151
1242.94,1.327724,582782,27402
1246.41,1.330965,591476,27604
1251.03,1.325153,604016,28569
1254.5,1.324573,612289,28999
1257.96,1.324274,619125,29343
1261.41,1.331556,624551,29108
1264.86,1.332167,629900,29316
1268.31,1.328168,634345,29796
1271.75,1.332733,638574,29681
1276.33,1.330303,642499,30031
1279.76,1.331126,645905,30133
1283.19,1.324006,648307,30745
1286.61,1.330352,650446,30399
1290.03,1.328415,652132,30614
1293.44,1.335826,653907,30178
1296.85,1.334692,655963,30352
1301.39,1.336396,657349,30297
1304.8,1.331773,657558,30631
1308.19,1.331654,658515,30684
1311.58,1.337500,658804,30287
1314.97,1.335305,659011,30450
1318.36,1.335746,658272,30385
1321.73,1.337558,658022,30247
1326.23,1.330705,657870,30721
1329.6,1.334850,656482,30365
1332.97,1.335108,654926,30275
1336.33,1.333195,653727,30353
1339.69,1.336214,652497,30086
1343.04,1.329311,649913,30447
1346.39,1.335088,647671,29941
1349.73,1.328029,645338,30322
1354.18,1.331131,641175,29912
1357.52,1.332072,638376,29717
1360.85,1.328758,635805,29824
1364.17,1.331629,633413,29516
1367.49,1.335960,631026,29113
1370.81,1.331201,628050,29295
1374.12,1.329807,625034,29248
1378.54,1.333688,620272,28767
1381.84,1.329477,616892,28889
1385.14,1.329619,613613,28726
1388.43,1.328790,611526,28683
1391.72,1.334752,610663,28252
1395.01,1.325741,610634,28843
1398.29,1.328384,611700,28718
1402.66,1.330883,614051,28663
1405.93,1.328902,616268,28898
1409.2,1.328746,617795,28980
1412.46,1.334977,618872,28617
1415.72,1.338563,619795,28424
1418.98,1.334826,620495,28702
1422.23,1.335407,621087,28691
1426.56,1.334791,621375,28745
1429.8,1.337855,621616,28554
1433.04,1.340730,622129,28389
1436.27,1.333058,621526,28867
1439.5,1.335077,621113,28714
1442.72,1.334278,620921,28758
1445.94,1.340488,620270,28320
1450.23,1.338764,618860,28368
1453.44,1.334774,617697,28576
1456.64,1.330193,616264,28812
1459.85,1.335234,614413,28394
1463.04,1.335091,612307,28306
1466.24,1.339857,610032,27893
1469.43,1.339063,607345,27821
1473.67,1.331391,603789,28151
1476.85,1.340000,601175,27479
1480.02,1.335035,597737,27636
1483.19,1.335594,594479,27450
1486.36,1.334674,591232,27358
1489.52,1.340082,587853,26865
1492.68,1.340297,583875,26670
1496.89,1.335854,578062,26676
1500.03,1.335803,574159,26499
1503.18,1.340434,570285,26041
1506.32,1.336582,565444,26050
1509.45,1.341087,560571,25559
1512.58,1.341077,555821,25343
1515.71,1.339044,550344,25211
1519.87,1.341361,543983,24787
1522.99,1.339036,538764,24681
1526.1,1.348457,533692,23924
1529.21,1.336429,527902,24329
1532.32,1.342186,521886,23735
1535.42,1.335523,515888,23825
1538.51,1.330271,509987,23839
1541.6,1.343489,503936,22850
1545.72,1.329786,494694,23150
1548.8,1.335455,488378,22558
1551.88,1.333560,481832,22353
1554.95,1.335784,474989,21923
1558.02,1.336549,467818,21554
1561.08,1.333744,460730,21365
1564.15,1.340347,454170,20743
1568.22,1.336082,444181,20487
1571.27,1.332291,436947,20330
1574.32,1.334362,429598,19893
1577.36,1.342889,422039,19163
1580.4,1.330085,414375,19378
1583.43,1.333754,406354,18843
1586.46,1.328374,398475,18708
1590.49,1.332395,388982,18094
1593.51,1.336736,380708,17533
1596.53,1.335332,372727,17221
1599.54,1.337883,365060,16768
1602.55,1.332201,357543,16639
1605.55,1.321271,349495,16679
1608.55,1.329646,341154,15970
1612.54,1.325652,330877,15632
1615.53,1.331335,322904,15057
1618.51,1.339686,315116,14414
1621.49,1.336781,307217,14147
1624.47,1.317374,299481,14421
1627.44,1.331947,292112,13602
1630.41,1.328374,284245,13345
1634.36,1.328297,274079,12870
1637.32,1.334075,266916,12368
1640.27,1.326260,259612,12248
1643.22,1.307081,251804,12416
1646.16,1.308213,244348,12017
1649.1,1.302359,236703,11799
1652.04,1.309508,228171,11188
1655.95,1.290765,215408,11028
1658.88,1.294921,204937,10392
1661.8,1.302278,193395,9642
1664.72,1.290686,179728,9203
1667.63,1.283404,163642,8521
1670.54,1.272851,146312,7806
1673.44,1.217200,128451,7790
1677.31,1.199417,105080,6639
1680.21,1.251702,88906,4980
1683.1,1.177326,75033,4988
1685.99,1.187066,63520,4129
1688.87,1.260855,53714,2946
1691.75,1.209682,45653,2817
1694.62,1.177781,39137,2599
1697.49,1.188561,33776,2188
1701.31,1.359253,28175,1232

File: Column 1_078276_20241121_165408.csv
Method:,Column 1,,
Host Date-Time:,21/11/24 @ 16:54:8,,
Header Version:,1,,
System Temp (C):,34.38,,
Detector Temp (C):,32.29,,
Humidity (%):,2.3,,
Lamp PD:,3803,,
Shift Vector Coefficients:,-10.5391,0.0761263,-0.000134223,,
Pixel to Wavelength Coefficients:,1775.68,-0.916766,-0.000235065,,
Serial Number:,5510004,,
Scan Config Name:,Column 1,,
Scan Config Type:,Slew,,
Section 1,,
Start wavelength (nm):,900,,
End wavelength (nm):,1700,,
Pattern Pixel Width (nm):,   7.03,,,,
Exposure (ms):,  0.635,,,,
Digital Resolution:,228,,
Num Repeats:,6,,
PGA Gain:,64,,
Total Measurement Time in sec:,  2.715,,
Wavelength (nm),Absorbance (AU),Reference Signal (unitless),Sample Signal (unitless)
901.51,1.319450,108485,5199
905.376,1.318885,121306,5821
909.237,1.306427,131909,6514
913.095,1.319666,143299,6864
916.948,1.318248,156982,7544
922.079,1.325906,179937,8496
925.923,1.313118,200504,9750
929.762,1.320374,222660,10648
933.597,1.329949,244426,11434
937.427,1.325831,263972,12466
941.254,1.319419,281845,13508
945.076,1.329233,297271,13929
950.165,1.320282,315605,15096
953.978,1.312635,328029,15969
957.786,1.310065,340470,16673
961.59,1.316434,352317,17002
965.389,1.309895,363056,17786
969.185,1.316432,373162,18008
972.976,1.308647,382632,18799
976.763,1.305070,391202,19379
981.806,1.301910,400190,19969
985.583,1.302882,406088,20218
989.355,1.307905,410162,20186
993.124,1.304587,412868,20475
996.888,1.302377,414263,20649
1000.65,1.307853,415476,20450
1004.4,1.311953,415479,20258
1009.41,1.307256,414358,20423
1013.15,1.314665,412923,20008
1016.89,1.311547,411526,20084
1020.63,1.316886,409066,19720
1024.36,1.309566,406777,19943
1028.09,1.303601,404427,20102
1031.82,1.304383,401911,19941
1036.78,1.306526,398410,19670
1040.49,1.301956,396204,19768
1044.2,1.310897,394236,19269
1047.91,1.305643,392042,19395
1051.61,1.305175,389823,19306
1055.31,1.315791,388234,18763
1059,1.312818,387599,18861
1063.92,1.310945,386688,18898
1067.61,1.305454,386598,19134
1071.29,1.320024,387377,18540
1074.96,1.313038,388536,18897
1078.63,1.319829,389855,18667
1082.3,1.306588,391215,19312
1085.96,1.313369,393215,19110
1090.84,1.308648,396270,19469
1094.49,1.312283,398760,19428
1098.14,1.311251,400987,19583
1101.79,1.317413,403477,19427
1105.43,1.314228,406116,19698
1109.06,1.318929,407701,19562
1112.7,1.306832,409859,20221
1117.53,1.322829,412494,19615
1121.15,1.317771,414909,19961
1124.77,1.319494,416559,19961
1128.38,1.320048,418532,20030
1131.99,1.315965,419956,20288
1135.6,1.320357,421946,20179
1139.2,1.322194,423881,20186
1143.99,1.316111,426786,20611
1147.58,1.321759,428617,20432
1151.17,1.313505,431169,20948
1154.75,1.319235,433579,20789
1158.33,1.325019,436264,20641
1161.91,1.308463,439132,21584
1165.48,1.314499,442389,21444
1169.04,1.319547,446101,21374
1173.79,1.322329,451929,21515
1177.34,1.310880,456026,22290
1180.9,1.317441,461306,22210
1184.44,1.323516,467657,22203
1187.99,1.319571,473969,22708
1191.52,1.315529,479856,23205
1195.06,1.315335,487372,23579
1199.76,1.317336,497347,23951
1203.29,1.323774,504311,23929
1206.81,1.324211,511507,24246
1210.33,1.318092,519078,24954
1213.84,1.326356,527163,24865
1217.35,1.323527,534208,25362
1220.85,1.330787,540472,25234
1225.51,1.326772,549929,25914
1229.01,1.322719,556888,26488
1232.5,1.325124,562180,26592
1235.98,1.323126,567975,26990
1239.46,1.328148,574815,27001
1242.94,1.330586,582782,27222
1246.41,1.318619,591476,28400
1251.03,1.329953,604016,28255
1254.5,1.323034,612289,29102
1257.96,1.328214,619125,29078
1261.41,1.325672,624551,29505
1264.86,1.327569,629900,29628
1268.31,1.326146,634345,29935
1271.75,1.324974,638574,30216
1276.33,1.331925,642499,29919
1279.76,1.331097,645905,30135
1283.19,1.326357,648307,30579
1286.61,1.326512,650446,30669
1290.03,1.332563,652132,30323
1293.44,1.329213,653907,30641
1296.85,1.328230,655963,30807
1301.39,1.328555,657349,30849
1304.8,1.332838,657558,30556
1308.19,1.335592,658515,30407
1311.58,1.330220,658804,30799
1314.97,1.331726,659011,30702
1318.36,1.334049,658272,30504
1321.73,1.331442,658022,30676
1326.23,1.336970,657870,30281
1329.6,1.330877,656482,30644
1332.97,1.336444,654926,30182
1336.33,1.333424,653727,30337
1339.69,1.333954,652497,30243
1343.04,1.334346,649913,30096
1346.39,1.339784,647671,29619
1349.73,1.330788,645338,30130
1354.18,1.326941,641175,30202
1357.52,1.331648,638376,29746
1360.85,1.327420,635805,29916
1364.17,1.333768,633413,29371
1367.49,1.335096,631026,29171
1370.81,1.334236,628050,29091
1374.12,1.327099,625034,29431
1378.54,1.328704,620272,29099
1381.84,1.321744,616892,29408
1385.14,1.328065,613613,28829
1388.43,1.322895,611526,29075
1391.72,1.327602,610663,28721
1395.01,1.326238,610634,28810
1398.29,1.324036,611700,29007
1402.66,1.329582,614051,28749
1405.93,1.333009,616268,28626
1409.2,1.330518,617795,28862
1412.46,1.330974,618872,28882
1415.72,1.328863,619795,29066
1418.98,1.330820,620495,28968
1422.23,1.338658,621087,28477
1426.56,1.333298,621375,28844
1429.8,1.335958,621616,28679
1433.04,1.332968,622129,28901
1436.27,1.334988,621526,28739
1439.5,1.335168,621113,28708
1442.72,1.333689,620921,28797
1445.94,1.334487,620270,28714
1450.23,1.330544,618860,28910
1453.44,1.337595,617697,28391
1456.64,1.330601,616264,28785
1459.85,1.336183,614413,28332
1463.04,1.331667,612307,28530
1466.24,1.336445,610032,28113
1469.43,1.334528,607345,28113
1473.67,1.335499,603789,27886
1476.85,1.339242,601175,27527
1480.02,1.335239,597737,27623
1483.19,1.334062,594479,27547
1486.36,1.337956,591232,27152
1489.52,1.338742,587853,26948
1492.68,1.329744,583875,27326
1496.89,1.339040,578062,26481
1500.03,1.338466,574159,26337
1503.18,1.334685,570285,26388
1506.32,1.336782,565444,26038
1509.45,1.334410,560571,25955
1512.58,1.338412,555821,25499
1515.71,1.338063,550344,25268
1519.87,1.337854,543983,24988
1522.99,1.331638,538764,25105
1526.1,1.340239,533692,24381
1529.21,1.334772,527902,24422
1532.32,1.333151,521886,24234
1535.42,1.336362,515888,23779
1538.51,1.333508,509987,23662
1541.6,1.332826,503936,23418
1545.72,1.330668,494694,23103
1548.8,1.332367,488378,22719
1551.88,1.334649,481832,22297
1554.95,1.332980,474989,22065
1558.02,1.333637,467818,21699
1561.08,1.334843,460730,21311
1564.15,1.334792,454170,21010
1568.22,1.341221,444181,20246
1571.27,1.330012,436947,20437
1574.32,1.332575,429598,19975
1577.36,1.330622,422039,19712
1580.4,1.334771,414375,19170
1583.43,1.329854,406354,19013
1586.46,1.334334,398475,18453
1590.49,1.325679,388982,18376
1593.51,1.330196,380708,17799
1596.53,1.331391,372727,17378
1599.54,1.323215,365060,17344
1602.55,1.325262,357543,16907
1605.55,1.327433,349495,16444
1608.55,1.315388,341154,16503
1612.54,1.323242,330877,15719
1615.53,1.332028,322904,15033
1618.51,1.313070,315116,15325
1621.49,1.325538,307217,14518
1624.47,1.312165,299481,14595
1627.44,1.322191,292112,13911
1630.41,1.314255,284245,13786
1634.36,1.320372,274079,13107
1637.32,1.323872,266916,12662
1640.27,1.316062,259612,12539
1643.22,1.299797,251804,12626
1646.16,1.324150,244348,11584
1649.1,1.299643,236703,11873
1652.04,1.311921,228171,11126
1655.95,1.316646,215408,10390
1658.88,1.307471,204937,10096
1661.8,1.297040,193395,9759
1664.72,1.270899,179728,9632
1667.63,1.274076,163642,8706
1670.54,1.242658,146312,8368
1673.44,1.245950,128451,7291
1677.31,1.208607,105080,6500
1680.21,1.208884,88906,5496
1683.1,1.183287,75033,4920
1685.99,1.176981,63520,4226
1688.87,1.181452,53714,3537
1691.75,1.177168,45653,3036
1694.62,1.214553,39137,2388
1697.49,1.178360,33776,2240
1701.31,1.186465,28175,1834

File: Column 1_078278_20241121_165413.csv
Method:,Column 1,,
Host Date-Time:,21/11/24 @ 16:54:13,,
Header Version:,1,,
System Temp (C):,34.43,,
Detector Temp (C):,32.35,,
Humidity (%):,2.2,,
Lamp PD:,3802,,
Shift Vector Coefficients:,-10.5391,0.0761263,-0.000134223,,
Pixel to Wavelength Coefficients:,1775.68,-0.916766,-0.000235065,,
Serial Number:,5510004,,
Scan Config Name:,Column 1,,
Scan Config Type:,Slew,,
Section 1,,
Start wavelength (nm):,900,,
End wavelength (nm):,1700,,
Pattern Pixel Width (nm):,   7.03,,,,
Exposure (ms):,  0.635,,,,
Digital Resolution:,228,,
Num Repeats:,6,,
PGA Gain:,64,,
Total Measurement Time in sec:,  2.731,,
Wavelength (nm),Absorbance (AU),Reference Signal (unitless),Sample Signal (unitless)
901.51,1.327629,108485,5102
905.376,1.295785,121306,6139
909.237,1.314366,131909,6396
913.095,1.314821,143299,6941
916.948,1.321774,156982,7483
922.079,1.332032,179937,8377
925.923,1.323304,200504,9524
929.762,1.309340,222660,10922
933.597,1.318849,244426,11730
937.427,1.312689,263972,12849
941.254,1.309817,281845,13810
945.076,1.321629,297271,14175
950.165,1.312188,315605,15380
953.978,1.310140,328029,16061
957.786,1.308609,340470,16729
961.59,1.317713,352317,16952
965.389,1.324849,363056,17184
969.185,1.318366,373162,17928
972.976,1.314437,382632,18550
976.763,1.307677,391202,19263
981.806,1.307403,400190,19718
985.583,1.307851,406088,19988
989.355,1.309673,410162,20104
993.124,1.303190,412868,20541
996.888,1.311624,414263,20214
1000.65,1.307280,415476,20477
1004.4,1.300757,415479,20787
1009.41,1.311595,414358,20220
1013.15,1.305984,412923,20412
1016.89,1.316768,411526,19844
1020.63,1.308792,409066,20091
1024.36,1.313372,406777,19769
1028.09,1.307202,404427,19936
1031.82,1.305168,401911,19905
1036.78,1.306438,398410,19674
1040.49,1.313308,396204,19258
1044.2,1.306056,394236,19485
1047.91,1.313232,392042,19059
1051.61,1.316248,389823,18820
1055.31,1.308106,388234,19098
1059,1.310178,387599,18976
1063.92,1.315751,386688,18690
1067.61,1.305885,386598,19115
1071.29,1.307555,387377,19080
1074.96,1.303222,388536,19329
1078.63,1.315569,389855,18851
1082.3,1.319507,391215,18746
1085.96,1.316723,393215,18963
1090.84,1.316231,396270,19132
1094.49,1.301793,398760,19903
1098.14,1.316674,400987,19340
1101.79,1.312965,403477,19627
1105.43,1.315376,406116,19646
1109.06,1.314115,407701,19780
1112.7,1.315356,409859,19828
1117.53,1.308928,412494,20253
1121.15,1.319034,414909,19903
1124.77,1.318755,416559,19995
1128.38,1.321786,418532,19950
1131.99,1.320743,419956,20066
1135.6,1.319218,421946,20232
1139.2,1.312787,423881,20628
1143.99,1.322372,426786,20316
1147.58,1.309003,428617,21041
1151.17,1.316104,431169,20823
1154.75,1.322801,433579,20619
1158.33,1.320144,436264,20874
1161.91,1.319178,439132,21058
1165.48,1.316915,442389,21325
1169.04,1.310499,446101,21824
1173.79,1.318510,451929,21705
1177.34,1.315975,456026,22030
1180.9,1.317167,461306,22224
1184.44,1.322461,467657,22257
1187.99,1.319820,473969,22695
1191.52,1.320480,479856,22942
1195.06,1.324098,487372,23108
1199.76,1.325647,497347,23497
1203.29,1.319278,504311,24178
1206.81,1.326240,511507,24133
1210.33,1.325500,519078,24532
1213.84,1.322669,527163,25077
1217.35,1.327259,534208,25145
1220.85,1.326778,540472,25468
1225.51,1.327863,549929,25849
1229.01,1.324197,556888,26398
1232.5,1.325255,562180,26584
1235.98,1.321809,567975,27072
1239.46,1.322237,574815,27371
1242.94,1.328882,582782,27329
1246.41,1.321211,591476,28231
1251.03,1.326753,604016,28464
1254.5,1.321707,612289,29191
1257.96,1.324407,619125,29334
1261.41,1.324819,624551,29563
1264.86,1.325872,629900,29744
1268.31,1.326611,634345,29903
1271.75,1.325190,638574,30201
1276.33,1.330332,642499,30029
1279.76,1.330032,645905,30209
1283.19,1.327139,648307,30524
1286.61,1.329981,650446,30425
1290.03,1.334516,652132,30187
1293.44,1.327586,653907,30756
1296.85,1.331172,655963,30599
1301.39,1.332600,657349,30563
1304.8,1.333762,657558,30491
1308.19,1.335150,658515,30438
1311.58,1.330770,658804,30760
1314.97,1.332859,659011,30622
1318.36,1.326526,658272,31037
1321.73,1.334696,658022,30447
1326.23,1.327746,657870,30931
1329.6,1.332325,656482,30542
1332.97,1.331679,654926,30515
1336.33,1.330357,653727,30552
1339.69,1.337399,652497,30004
1343.04,1.328285,649913,30519
1346.39,1.327995,647671,30434
1349.73,1.330716,645338,30135
1354.18,1.328309,641175,30107
1357.52,1.334769,638376,29533
1360.85,1.328802,635805,29821
1364.17,1.328054,633413,29760
1367.49,1.332395,631026,29353
1370.81,1.326570,628050,29609
1374.12,1.327379,625034,29412
1378.54,1.325196,620272,29335
1381.84,1.328471,616892,28956
1385.14,1.324704,613613,29053
1388.43,1.326073,611526,28863
1391.72,1.325250,610663,28877
1395.01,1.329293,610634,28608
1398.29,1.328763,611700,28693
1402.66,1.327547,614051,28884
1405.93,1.329473,616268,28860
1409.2,1.321479,617795,29469
1412.46,1.332782,618872,28762
1415.72,1.334396,619795,28698
1418.98,1.333602,620495,28783
1422.23,1.331339,621087,28961
1426.56,1.333901,621375,28804
1429.8,1.335973,621616,28678
1433.04,1.339417,622129,28475
1436.27,1.332096,621526,28931
1439.5,1.336516,621113,28619
1442.72,1.330938,620921,28980
1445.94,1.336655,620270,28571
1450.23,1.340144,618860,28278
1453.44,1.329397,617697,28932
1456.64,1.332445,616264,28663
1459.85,1.338442,614413,28185
1463.04,1.337784,612307,28131
1466.24,1.334857,610032,28216
1469.43,1.337023,607345,27952
1473.67,1.333991,603789,27983
1476.85,1.335879,601175,27741
1480.02,1.340841,597737,27269
1483.19,1.335262,594479,27471
1486.36,1.344564,591232,26742
1489.52,1.335435,587853,27154
1492.68,1.336422,583875,26909
1496.89,1.338041,578062,26542
1500.03,1.333710,574159,26627
1503.18,1.339868,570285,26075
1506.32,1.338169,565444,25955
1509.45,1.332490,560571,26070
1512.58,1.342811,555821,25242
1515.71,1.340234,550344,25142
1519.87,1.335203,543983,25141
1522.99,1.338842,538764,24692
1526.1,1.334225,533692,24721
1529.21,1.337412,527902,24274
1532.32,1.338361,521886,23945
1535.42,1.338192,515888,23679
1538.51,1.334298,509987,23619
1541.6,1.331363,503936,23497
1545.72,1.330480,494694,23113
1548.8,1.334917,488378,22586
1551.88,1.336152,481832,22220
1554.95,1.338885,474989,21767
1558.02,1.328583,467818,21953
1561.08,1.344445,460730,20845
1564.15,1.337925,454170,20859
1568.22,1.335637,444181,20508
1571.27,1.326625,436947,20597
1574.32,1.340762,429598,19602
1577.36,1.327855,422039,19838
1580.4,1.332647,414375,19264
1583.43,1.337202,406354,18694
1586.46,1.322952,398475,18943
1590.49,1.324192,388982,18439
1593.51,1.330367,380708,17792
1596.53,1.334980,372727,17235
1599.54,1.329063,365060,17112
1602.55,1.330092,357543,16720
1605.55,1.323909,349495,16578
1608.55,1.324402,341154,16164
1612.54,1.326681,330877,15595
1615.53,1.320370,322904,15442
1618.51,1.315087,315116,15254
1621.49,1.335861,307217,14177
1624.47,1.328848,299481,14045
1627.44,1.323348,292112,13874
1630.41,1.315643,284245,13742
1634.36,1.312297,274079,13353
1637.32,1.313803,266916,12959
1640.27,1.319609,259612,12437
1643.22,1.312501,251804,12262
1646.16,1.321832,244348,11646
1649.1,1.315209,236703,11455
1652.04,1.296168,228171,11537
1655.95,1.290804,215408,11027
1658.88,1.279889,204937,10758
1661.8,1.287707,193395,9971
1664.72,1.291773,179728,9180
1667.63,1.267295,163642,8843
1670.54,1.257278,146312,8091
1673.44,1.263019,128451,7010
1677.31,1.202569,105080,6591
1680.21,1.209992,88906,5482
1683.1,1.241582,75033,4302
1685.99,1.211735,63520,3901
1688.87,1.190384,53714,3465
1691.75,1.209066,45653,2821
1694.62,1.269129,39137,2106
1697.49,1.253989,33776,1882
1701.31,1.316325,28175,1360