Folder: textile_sorting_NIRSCAN_/ML/samples/unknown (part 35)

File: Column 1_078225_20241121_165137.csv
Method:,Column 1,,
Host Date-Time:,21/11/24 @ 16:51:37,,
Header Version:,1,,
System Temp (C):,34.1,,
Detector Temp (C):,31.34,,
Humidity (%):,3.52,,
Lamp PD:,3804,,
Shift Vector Coefficients:,-10.5391,0.0761263,-0.000134223,,
Pixel to Wavelength Coefficients:,1775.68,-0.916766,-0.000235065,,
Serial Number:,5510004,,
Scan Config Name:,Column 1,,
Scan Config Type:,Slew,,
Section 1,,
Start wavelength (nm):,900,,
End wavelength (nm):,1700,,
Pattern Pixel Width (nm):,   7.03,,,,
Exposure (ms):,  0.635,,,,
Digital Resolution:,228,,
Num Repeats:,6,,
PGA Gain:,64,,
Total Measurement Time in sec:,  2.709,,
Wavelength (nm),Absorbance (AU),Reference Signal (unitless),Sample Signal (unitless)
901.51,1.317782,108485,5219
905.376,1.360180,121306,5293
909.237,1.332177,131909,6139
913.095,1.344668,143299,6480
916.948,1.317615,156982,7555
922.079,1.314106,179937,8730
925.923,1.330801,200504,9361
929.762,1.326246,222660,10505
933.597,1.335800,244426,11281
937.427,1.321429,263972,12593
941.254,1.319259,281845,13513
945.076,1.312144,297271,14488
950.165,1.320368,315605,15093
953.978,1.323958,328029,15558
957.786,1.310274,340470,16665
961.59,1.311027,352317,17215
965.389,1.318153,363056,17451
969.185,1.308925,373162,18322
972.976,1.315610,382632,18500
976.763,1.310323,391202,19146
981.806,1.314330,400190,19406
985.583,1.310291,406088,19876
989.355,1.308336,410162,20166
993.124,1.309515,412868,20244
996.888,1.308328,414263,20368
1000.65,1.306115,415476,20532
1004.4,1.317584,415479,19997
1009.41,1.306025,414358,20481
1013.15,1.313950,412923,20041
1016.89,1.313367,411526,20000
1020.63,1.314120,409066,19846
1024.36,1.317854,406777,19566
1028.09,1.320047,404427,19355
1031.82,1.310856,401911,19646
1036.78,1.312663,398410,19394
1040.49,1.316545,396204,19115
1044.2,1.316432,394236,19025
1047.91,1.315151,392042,18975
1051.61,1.314176,389823,18910
1055.31,1.311897,388234,18932
1059,1.309332,387599,19013
1063.92,1.308676,386688,18997
1067.61,1.313842,386598,18768
1071.29,1.319111,387377,18579
1074.96,1.319428,388536,18621
1078.63,1.319689,389855,18673
1082.3,1.317911,391215,18815
1085.96,1.324487,393215,18627
1090.84,1.320497,396270,18945
1094.49,1.333376,398760,18507
1098.14,1.322689,400987,19074
1101.79,1.317838,403477,19408
1105.43,1.325643,406116,19187
1109.06,1.319862,407701,19520
1112.7,1.316606,409859,19771
1117.53,1.324471,412494,19541
1121.15,1.327317,414909,19527
1124.77,1.324924,416559,19713
1128.38,1.328167,418532,19659
1131.99,1.316136,419956,20280
1135.6,1.321133,421946,20143
1139.2,1.314010,423881,20570
1143.99,1.328703,426786,20022
1147.58,1.317360,428617,20640
1151.17,1.324124,431169,20442
1154.75,1.318004,433579,20848
1158.33,1.316332,436264,21058
1161.91,1.321266,439132,20957
1165.48,1.317486,442389,21297
1169.04,1.316611,446101,21519
1173.79,1.320958,451929,21583
1177.34,1.322410,456026,21706
1180.9,1.318478,461306,22157
1184.44,1.325005,467657,22127
1187.99,1.316807,473969,22853
1191.52,1.318760,479856,23033
1195.06,1.325435,487372,23037
1199.76,1.323177,497347,23631
1203.29,1.325447,504311,23837
1206.81,1.328586,511507,24003
1210.33,1.325287,519078,24544
1213.84,1.324874,527163,24950
1217.35,1.330188,534208,24976
1220.85,1.325944,540472,25517
1225.51,1.332525,549929,25573
1229.01,1.328412,556888,26143
1232.5,1.325598,562180,26563
1235.98,1.323754,567975,26951
1239.46,1.323461,574815,27294
1242.94,1.320525,582782,27860
1246.41,1.328393,591476,27768
1251.03,1.332157,604016,28112
1254.5,1.329847,612289,28649
1257.96,1.326024,619125,29225
1261.41,1.327516,624551,29380
1264.86,1.327555,629900,29629
1268.31,1.325929,634345,29950
1271.75,1.329831,638574,29880
1276.33,1.323032,642499,30538
1279.76,1.325186,645905,30548
1283.19,1.327652,648307,30488
1286.61,1.333420,650446,30185
1290.03,1.336072,652132,30079
1293.44,1.329866,653907,30595
1296.85,1.324734,655963,31056
1301.39,1.328907,657349,30824
1304.8,1.333179,657558,30532
1308.19,1.333128,658515,30580
1311.58,1.334157,658804,30521
1314.97,1.327167,659011,31026
1318.36,1.330419,658272,30760
1321.73,1.333158,658022,30555
1326.23,1.336525,657870,30312
1329.6,1.335050,656482,30351
1332.97,1.331281,654926,30543
1336.33,1.334499,653727,30262
1339.69,1.336662,652497,30055
1343.04,1.328641,649913,30494
1346.39,1.333611,647671,30043
1349.73,1.332377,645338,30020
1354.18,1.332527,641175,29816
1357.52,1.332964,638376,29656
1360.85,1.329998,635805,29739
1364.17,1.331365,633413,29534
1367.49,1.331021,631026,29446
1370.81,1.328820,628050,29456
1374.12,1.330744,625034,29185
1378.54,1.329003,620272,29079
1381.84,1.329747,616892,28871
1385.14,1.326336,613613,28944
1388.43,1.330231,611526,28588
1391.72,1.331201,610663,28484
1395.01,1.333933,610634,28304
1398.29,1.326182,611700,28864
1402.66,1.330610,614051,28681
1405.93,1.335153,616268,28485
1409.2,1.331618,617795,28789
1412.46,1.329323,618872,28992
1415.72,1.338349,619795,28438
1418.98,1.332577,620495,28851
1422.23,1.337105,621087,28579
1426.56,1.342920,621375,28212
1429.8,1.337506,621616,28577
1433.04,1.333659,622129,28855
1436.27,1.333494,621526,28838
1439.5,1.334623,621113,28744
1442.72,1.335563,620921,28673
1445.94,1.329674,620270,29034
1450.23,1.339024,618860,28351
1453.44,1.338759,617697,28315
1456.64,1.341787,616264,28053
1459.85,1.333753,614413,28491
1463.04,1.337028,612307,28180
1466.24,1.336276,610032,28124
1469.43,1.343645,607345,27529
1473.67,1.339253,603789,27646
1476.85,1.337604,601175,27631
1480.02,1.336341,597737,27553
1483.19,1.337116,594479,27354
1486.36,1.345068,591232,26711
1489.52,1.343930,587853,26628
1492.68,1.337117,583875,26866
1496.89,1.337321,578062,26586
1500.03,1.341760,574159,26138
1503.18,1.341670,570285,25967
1506.32,1.334785,565444,26158
1509.45,1.341954,560571,25508
1512.58,1.337442,555821,25556
1515.71,1.336742,550344,25345
1519.87,1.335964,543983,25097
1522.99,1.337017,538764,24796
1526.1,1.340863,533692,24346
1529.21,1.342704,527902,23980
1532.32,1.339760,521886,23868
1535.42,1.342098,515888,23467
1538.51,1.335587,509987,23549
1541.6,1.338087,503936,23136
1545.72,1.345331,494694,22336
1548.8,1.368610,488378,20900
1551.88,1.343544,481832,21845
1554.95,1.333275,474989,22050
1558.02,1.337921,467818,21486
1561.08,1.338075,460730,21153
1564.15,1.341269,454170,20699
1568.22,1.342230,444181,20199
1571.27,1.334411,436947,20231
1574.32,1.344500,429598,19434
1577.36,1.335786,422039,19479
1580.4,1.339372,414375,18968
1583.43,1.340889,406354,18536
1586.46,1.342818,398475,18096
1590.49,1.344219,388982,17608
1593.51,1.336092,380708,17559
1596.53,1.339183,372727,17069
1599.54,1.329673,365060,17088
1602.55,1.336898,357543,16460
1605.55,1.323228,349495,16604
1608.55,1.322311,341154,16242
1612.54,1.334124,330877,15330
1615.53,1.326231,322904,15235
1618.51,1.325663,315116,14887
1621.49,1.325718,307217,14512
1624.47,1.320608,299481,14314
1627.44,1.326332,292112,13779
1630.41,1.320058,284245,13603
1634.36,1.317006,274079,13209
1637.32,1.322297,266916,12708
1640.27,1.316027,259612,12540
1643.22,1.323440,251804,11957
1646.16,1.321273,244348,11661
1649.1,1.319131,236703,11352
1652.04,1.306838,228171,11257
1655.95,1.316396,215408,10396
1658.88,1.324133,204937,9716
1661.8,1.283114,193395,10077
1664.72,1.289085,179728,9237
1667.63,1.283251,163642,8524
1670.54,1.283553,146312,7616
1673.44,1.233271,128451,7507
1677.31,1.238832,105080,6063
1680.21,1.230014,88906,5235
1683.1,1.189332,75033,4852
1685.99,1.181838,63520,4179
1688.87,1.229988,53714,3163
1691.75,1.205234,45653,2846
1694.62,1.247214,39137,2215
1697.49,1.395389,33776,1359
1701.31,1.355044,28175,1244

File: Column 1_078226_20241121_165140.csv
Method:,Column 1,,
Host Date-Time:,21/11/24 @ 16:51:40,,
Header Version:,1,,
System Temp (C):,34.11,,
Detector Temp (C):,31.37,,
Humidity (%):,3.52,,
Lamp PD:,3803,,
Shift Vector Coefficients:,-10.5391,0.0761263,-0.000134223,,
Pixel to Wavelength Coefficients:,1775.68,-0.916766,-0.000235065,,
Serial Number:,5510004,,
Scan Config Name:,Column 1,,
Scan Config Type:,Slew,,
Section 1,,
Start wavelength (nm):,900,,
End wavelength (nm):,1700,,
Pattern Pixel Width (nm):,   7.03,,,,
Exposure (ms):,  0.635,,,,
Digital Resolution:,228,,
Num Repeats:,6,,
PGA Gain:,64,,
Total Measurement Time in sec:,  2.730,,
Wavelength (nm),Absorbance (AU),Reference Signal (unitless),Sample Signal (unitless)
901.51,1.295402,108485,5495
905.376,1.339355,121306,5553
909.237,1.286809,131909,6815
913.095,1.316200,143299,6919
916.948,1.323169,156982,7459
922.079,1.325140,179937,8511
925.923,1.324034,200504,9508
929.762,1.323608,222660,10569
933.597,1.318146,244426,11749
937.427,1.324717,263972,12498
941.254,1.328221,281845,13237
945.076,1.324303,297271,14088
950.165,1.318875,315605,15145
953.978,1.308925,328029,16106
957.786,1.310013,340470,16675
961.59,1.300238,352317,17648
965.389,1.311559,363056,17718
969.185,1.312327,373162,18179
972.976,1.311102,382632,18693
976.763,1.301832,391202,19524
981.806,1.309479,400190,19624
985.583,1.314396,406088,19689
989.355,1.301286,410162,20496
993.124,1.304651,412868,20472
996.888,1.299735,414263,20775
1000.65,1.310473,415476,20327
1004.4,1.315029,415479,20115
1009.41,1.306852,414358,20442
1013.15,1.305771,412923,20422
1016.89,1.309218,411526,20192
1020.63,1.310829,409066,19997
1024.36,1.305556,406777,20128
1028.09,1.309605,404427,19826
1031.82,1.314207,401911,19495
1036.78,1.303008,398410,19830
1040.49,1.307417,396204,19521
1044.2,1.312274,394236,19208
1047.91,1.312982,392042,19070
1051.61,1.306685,389823,19239
1055.31,1.316556,388234,18730
1059,1.313763,387599,18820
1063.92,1.313642,386688,18781
1067.61,1.311649,386598,18863
1071.29,1.308969,387377,19018
1074.96,1.312901,388536,18903
1078.63,1.319480,389855,18682
1082.3,1.316069,391215,18895
1085.96,1.321397,393215,18760
1090.84,1.312636,396270,19291
1094.49,1.316665,398760,19233
1098.14,1.326370,400987,18913
1101.79,1.316185,403477,19482
1105.43,1.310168,406116,19883
1109.06,1.315787,407701,19704
1112.7,1.313869,409859,19896
1117.53,1.313217,412494,20054
1121.15,1.317292,414909,19983
1124.77,1.319625,416559,19955
1128.38,1.311545,418532,20426
1131.99,1.312489,419956,20451
1135.6,1.314160,421946,20469
1139.2,1.320562,423881,20262
1143.99,1.322714,426786,20300
1147.58,1.322844,428617,20381
1151.17,1.327622,431169,20278
1154.75,1.323623,433579,20580
1158.33,1.316724,436264,21039
1161.91,1.317059,439132,21161
1165.48,1.319468,442389,21200
1169.04,1.314015,446101,21648
1173.79,1.314626,451929,21900
1177.34,1.321011,456026,21776
1180.9,1.315431,461306,22313
1184.44,1.311364,467657,22833
1187.99,1.319724,473969,22700
1191.52,1.315267,479856,23219
1195.06,1.319351,487372,23362
1199.76,1.327462,497347,23399
1203.29,1.326487,504311,23780
1206.81,1.323496,511507,24286
1210.33,1.318110,519078,24953
1213.84,1.328686,527163,24732
1217.35,1.325036,534208,25274
1220.85,1.326795,540472,25467
1225.51,1.324366,549929,26058
1229.01,1.321507,556888,26562
1232.5,1.325255,562180,26584
1235.98,1.317308,567975,27354
1239.46,1.322698,574815,27342
1242.94,1.319218,582782,27944
1246.41,1.323370,591476,28091
1251.03,1.325579,604016,28541
1254.5,1.327323,612289,28816
1257.96,1.323549,619125,29392
1261.41,1.330081,624551,29207
1264.86,1.328083,629900,29593
1268.31,1.329379,634345,29713
1271.75,1.330762,638574,29816
1276.33,1.327722,642499,30210
1279.76,1.334468,645905,29902
1283.19,1.333056,648307,30111
1286.61,1.329496,650446,30459
1290.03,1.327948,652132,30647
1293.44,1.327332,653907,30774
1296.85,1.332238,655963,30524
1301.39,1.329217,657349,30802
1304.8,1.322806,657558,31270
1308.19,1.329564,658515,30832
1311.58,1.330022,658804,30813
1314.97,1.327713,659011,30987
1318.36,1.333949,658272,30511
1321.73,1.331782,658022,30652
1326.23,1.334282,657870,30469
1329.6,1.331416,656482,30606
1332.97,1.329606,654926,30661
1336.33,1.331852,653727,30447
1339.69,1.330022,652497,30518
1343.04,1.325561,649913,30711
1346.39,1.332427,647671,30125
1349.73,1.327228,645338,30378
1354.18,1.330246,641175,29973
1357.52,1.328303,638376,29976
1360.85,1.327914,635805,29882
1364.17,1.327179,633413,29820
1367.49,1.324550,631026,29888
1370.81,1.326614,628050,29606
1374.12,1.330179,625034,29223
1378.54,1.331775,620272,28894
1381.84,1.320858,616892,29468
1385.14,1.325616,613613,28992
1388.43,1.335735,611526,28228
1391.72,1.329891,610663,28570
1395.01,1.331073,610634,28491
1398.29,1.322810,611700,29089
1402.66,1.327081,614051,28915
1405.93,1.320360,616268,29472
1409.2,1.330864,617795,28839
1412.46,1.330703,618872,28900
1415.72,1.328385,619795,29098
1418.98,1.333466,620495,28792
1422.23,1.336422,621087,28624
1426.56,1.322047,621375,29601
1429.8,1.335852,621616,28686
1433.04,1.333088,622129,28893
1436.27,1.332471,621526,28906
1439.5,1.330339,621113,29029
1442.72,1.334368,620921,28752
1445.94,1.334971,620270,28682
1450.23,1.335242,618860,28599
1453.44,1.324575,617697,29255
1456.64,1.338241,616264,28283
1459.85,1.331988,614413,28607
1463.04,1.335306,612307,28292
1466.24,1.336137,610032,28133
1469.43,1.333787,607345,28161
1473.67,1.329882,603789,28249
1476.85,1.335707,601175,27752
1480.02,1.328701,597737,28042
1483.19,1.339999,594479,27173
1486.36,1.339414,591232,27061
1489.52,1.336684,587853,27076
1492.68,1.337991,583875,26812
1496.89,1.340058,578062,26419
1500.03,1.335082,574159,26543
1503.18,1.331635,570285,26574
1506.32,1.338889,565444,25912
1509.45,1.338731,560571,25698
1512.58,1.339230,555821,25451
1515.71,1.337909,550344,25277
1519.87,1.335704,543983,25112
1522.99,1.336772,538764,24810
1526.1,1.339687,533692,24412
1529.21,1.334488,527902,24438
1532.32,1.334353,521886,24167
1535.42,1.339809,515888,23591
1538.51,1.336491,509987,23500
1541.6,1.337224,503936,23182
1545.72,1.335793,494694,22832
1548.8,1.330726,488378,22805
1551.88,1.328230,481832,22629
1554.95,1.335744,474989,21925
1558.02,1.333817,467818,21690
1561.08,1.331898,460730,21456
1564.15,1.336345,454170,20935
1568.22,1.331212,444181,20718
1571.27,1.334390,436947,20232
1574.32,1.336529,429598,19794
1577.36,1.327308,422039,19863
1580.4,1.338800,414375,18993
1583.43,1.328918,406354,19054
1586.46,1.330958,398475,18597
1590.49,1.330957,388982,18154
1593.51,1.332055,380708,17723
1596.53,1.322462,372727,17739
1599.54,1.341341,365060,16635
1602.55,1.331106,357543,16681
1605.55,1.334677,349495,16172
1608.55,1.339075,341154,15627
1612.54,1.331385,330877,15427
1615.53,1.332548,322904,15015
1618.51,1.322785,315116,14986
1621.49,1.331654,307217,14315
1624.47,1.313954,299481,14535
1627.44,1.319980,292112,13982
1630.41,1.325649,284245,13429
1634.36,1.329649,274079,12830
1637.32,1.321649,266916,12727
1640.27,1.312715,259612,12636
1643.22,1.309888,251804,12336
1646.16,1.312206,244348,11907
1649.1,1.305721,236703,11708
1652.04,1.317539,228171,10983
1655.95,1.303351,215408,10713
1658.88,1.296764,204937,10348
1661.8,1.310922,193395,9452
1664.72,1.304543,179728,8914
1667.63,1.271639,163642,8755
1670.54,1.268533,146312,7884
1673.44,1.275527,128451,6811
1677.31,1.235266,105080,6113
1680.21,1.207228,88906,5517
1683.1,1.202416,75033,4708
1685.99,1.215986,63520,3863
1688.87,1.232743,53714,3143
1691.75,1.205692,45653,2843
1694.62,1.228224,39137,2314
1697.49,1.248485,33776,1906
1701.31,1.162510,28175,1938

File: Column 1_078231_20241121_165155.csv
Method:,Column 1,,
Host Date-Time:,21/11/24 @ 16:51:55,,
Header Version:,1,,
System Temp (C):,34.11,,
Detector Temp (C):,31.4,,
Humidity (%):,3.28,,
Lamp PD:,3803,,
Shift Vector Coefficients:,-10.5391,0.0761263,-0.000134223,,
Pixel to Wavelength Coefficients:,1775.68,-0.916766,-0.000235065,,
Serial Number:,5510004,,
Scan Config Name:,Column 1,,
Scan Config Type:,Slew,,
Section 1,,
Start wavelength (nm):,900,,
End wavelength (nm):,1700,,
Pattern Pixel Width (nm):,   7.03,,,,
Exposure (ms):,  0.635,,,,
Digital Resolution:,228,,
Num Repeats:,6,,
PGA Gain:,64,,
Total Measurement Time in sec:,  2.721,,
Wavelength (nm),Absorbance (AU),Reference Signal (unitless),Sample Signal (unitless)
901.51,1.307910,108485,5339
905.376,1.308928,121306,5956
909.237,1.314774,131909,6390
913.095,1.317331,143299,6901
916.948,1.321600,156982,7486
922.079,1.318205,179937,8648
925.923,1.314010,200504,9730
929.762,1.321722,222660,10615
933.597,1.321859,244426,11649
937.427,1.314314,263972,12801
941.254,1.316184,281845,13609
945.076,1.317422,297271,14313
950.165,1.311651,315605,15399
953.978,1.325021,328029,15520
957.786,1.322537,340470,16201
961.59,1.315082,352317,17055
965.389,1.309798,363056,17790
969.185,1.312829,373162,18158
972.976,1.310986,382632,18698
976.763,1.319956,391202,18726
981.806,1.306831,400190,19744
985.583,1.309287,406088,19922
989.355,1.310278,410162,20076
993.124,1.310223,412868,20211
996.888,1.312161,414263,20189
1000.65,1.308660,415476,20412
1004.4,1.308940,415479,20399
1009.41,1.307575,414358,20408
1013.15,1.311422,412923,20158
1016.89,1.308573,411526,20222
1020.63,1.305819,409066,20229
1024.36,1.312713,406777,19799
1028.09,1.303342,404427,20114
1031.82,1.311719,401911,19607
1036.78,1.306283,398410,19681
1040.49,1.311552,396204,19336
1044.2,1.310717,394236,19277
1047.91,1.308857,392042,19252
1051.61,1.315211,389823,18865
1055.31,1.314936,388234,18800
1059,1.316518,387599,18701
1063.92,1.301309,386688,19322
1067.61,1.310178,386598,18927
1071.29,1.312063,387377,18883
1074.96,1.311227,388536,18976
1078.63,1.312721,389855,18975
1082.3,1.306139,391215,19332
1085.96,1.320380,393215,18804
1090.84,1.309027,396270,19452
1094.49,1.307393,398760,19648
1098.14,1.317911,400987,19285
1101.79,1.311176,403477,19708
1105.43,1.320602,406116,19411
1109.06,1.310290,407701,19955
1112.7,1.314065,409859,19887
1117.53,1.309959,412494,20205
1121.15,1.312860,414909,20188
1124.77,1.313573,416559,20235
1128.38,1.319831,418532,20040
1131.99,1.324394,419956,19898
1135.6,1.320099,421946,20191
1139.2,1.311483,423881,20690
1143.99,1.320921,426786,20384
1147.58,1.328053,428617,20138
1151.17,1.326211,431169,20344
1154.75,1.317921,433579,20852
1158.33,1.322941,436264,20740
1161.91,1.318560,439132,21088
1165.48,1.315594,442389,21390
1169.04,1.316813,446101,21509
1173.79,1.308307,451929,22221
1177.34,1.316350,456026,22011
1180.9,1.322871,461306,21934
1184.44,1.315646,467657,22609
1187.99,1.321853,473969,22589
1191.52,1.321541,479856,22886
1195.06,1.326152,487372,22999
1199.76,1.318916,497347,23864
1203.29,1.321222,504311,24070
1206.81,1.329075,511507,23976
1210.33,1.316304,519078,25057
1213.84,1.316428,527163,25440
1217.35,1.320201,534208,25557
1220.85,1.318151,540472,25979
1225.51,1.323982,549929,26081
1229.01,1.319029,556888,26714
1232.5,1.323543,562180,26689
1235.98,1.327607,567975,26713
1239.46,1.323365,574815,27300
1242.94,1.325337,582782,27553
1246.41,1.323849,591476,28060
1251.03,1.321626,604016,28802
1254.5,1.317797,612289,29455
1257.96,1.324081,619125,29356
1261.41,1.328997,624551,29280
1264.86,1.327203,629900,29653
1268.31,1.327483,634345,29843
1271.75,1.330369,638574,29843
1276.33,1.328168,642499,30179
1279.76,1.329558,645905,30242
1283.19,1.327196,648307,30520
1286.61,1.326724,650446,30654
1290.03,1.335437,652132,30123
1293.44,1.333558,653907,30336
1296.85,1.325294,655963,31016
1301.39,1.328161,657349,30877
1304.8,1.331971,657558,30617
1308.19,1.330523,658515,30764
1311.58,1.326205,658804,31085
1314.97,1.334137,659011,30532
1318.36,1.333323,658272,30555
1321.73,1.335110,658022,30418
1326.23,1.331582,657870,30659
1329.6,1.331487,656482,30601
1332.97,1.338160,654926,30063
1336.33,1.331196,653727,30493
1339.69,1.327426,652497,30701
1343.04,1.335112,649913,30043
1346.39,1.333351,647671,30061
1349.73,1.338041,645338,29631
1354.18,1.332076,641175,29847
1357.52,1.329536,638376,29891
1360.85,1.332575,635805,29563
1364.17,1.330131,633413,29618
1367.49,1.324987,631026,29858
1370.81,1.333997,628050,29107
1374.12,1.325199,625034,29560
1378.54,1.328555,620272,29109
1381.84,1.327183,616892,29042
1385.14,1.326276,613613,28948
1388.43,1.321389,611526,29176
1391.72,1.328722,610663,28647
1395.01,1.335424,610634,28207
1398.29,1.329839,611700,28622
1402.66,1.331535,614051,28620
1405.93,1.333738,616268,28578
1409.2,1.334175,617795,28620
1412.46,1.335280,618872,28597
1415.72,1.332208,619795,28843
1418.98,1.328980,620495,29091
1422.23,1.330470,621087,29019
1426.56,1.330911,621375,29003
1429.8,1.333753,621616,28825
1433.04,1.330301,622129,29079
1436.27,1.333630,621526,28829
1439.5,1.337397,621113,28561
1442.72,1.330908,620921,28982
1445.94,1.335471,620270,28649
1450.23,1.330710,618860,28899
1453.44,1.339342,617697,28277
1456.64,1.333826,616264,28572
1459.85,1.331215,614413,28658
1463.04,1.338711,612307,28071
1466.24,1.341511,610032,27787
1469.43,1.341520,607345,27664
1473.67,1.334037,603789,27980
1476.85,1.333957,601175,27864
1480.02,1.335035,597737,27636
1483.19,1.334251,594479,27535
1486.36,1.333405,591232,27438
1489.52,1.338597,587853,26957
1492.68,1.338380,583875,26788
1496.89,1.338876,578062,26491
1500.03,1.334837,574159,26558
1503.18,1.339302,570285,26109
1506.32,1.332021,565444,26325
1509.45,1.338258,560571,25726
1512.58,1.335424,555821,25675
1515.71,1.336622,550344,25352
1519.87,1.341396,543983,24785
1522.99,1.334833,538764,24921
1526.1,1.343942,533692,24174
1529.21,1.345429,527902,23830
1532.32,1.333384,521886,24221
1535.42,1.339993,515888,23581
1538.51,1.337768,509987,23431
1541.6,1.342635,503936,22895
1545.72,1.329279,494694,23177
1548.8,1.330574,488378,22813
1551.88,1.337816,481832,22135
1554.95,1.335249,474989,21950
1558.02,1.333577,467818,21702
1561.08,1.322883,460730,21906
1564.15,1.332504,454170,21121
1568.22,1.333777,444181,20596
1571.27,1.327026,436947,20578
1574.32,1.331837,429598,20009
1577.36,1.345731,422039,19038
1580.4,1.335179,414375,19152
1583.43,1.333593,406354,18850
1586.46,1.338853,398475,18262
1590.49,1.333356,388982,18054
1593.51,1.321524,380708,18158
1596.53,1.331766,372727,17363
1599.54,1.323240,365060,17343
1602.55,1.325596,357543,16894
1605.55,1.325037,349495,16535
1608.55,1.323865,341154,16184
1612.54,1.315302,330877,16009
1615.53,1.331479,322904,15052
1618.51,1.336324,315116,14526
1621.49,1.323628,307217,14582
1624.47,1.326658,299481,14116
1627.44,1.322753,292112,13893
1630.41,1.318338,284245,13657
1634.36,1.318125,274079,13175
1637.32,1.331170,266916,12451
1640.27,1.321499,259612,12383
1643.22,1.313459,251804,12235
1646.16,1.310968,244348,11941
1649.1,1.311810,236703,11545
1652.04,1.304568,228171,11316
1655.95,1.302662,215408,10730
1658.88,1.303404,204937,10191
1661.8,1.302548,193395,9636
1664.72,1.287068,179728,9280
1667.63,1.292000,163642,8354
1670.54,1.265241,146312,7944
1673.44,1.229699,128451,7569
1677.31,1.244238,105080,5988
1680.21,1.220902,88906,5346
1683.1,1.219250,75033,4529
1685.99,1.223699,63520,3795
1688.87,1.249506,53714,3024
1691.75,1.253099,45653,2549
1694.62,1.232942,39137,2289
1697.49,1.201863,33776,2122
1701.31,1.205339,28175,1756