Folder: textile_sorting_NIRSCAN_/ML/samples/unknown (part 13)

File: Column 1_078080_20241121_164429.csv
Method:,Column 1,,
Host Date-Time:,21/11/24 @ 16:44:29,,
Header Version:,1,,
System Temp (C):,31.75,,
Detector Temp (C):,26.63,,
Humidity (%):,4.88,,
Lamp PD:,3808,,
Shift Vector Coefficients:,-10.5391,0.0761263,-0.000134223,,
Pixel to Wavelength Coefficients:,1775.68,-0.916766,-0.000235065,,
Serial Number:,5510004,,
Scan Config Name:,Column 1,,
Scan Config Type:,Slew,,
Section 1,,
Start wavelength (nm):,900,,
End wavelength (nm):,1700,,
Pattern Pixel Width (nm):,   7.03,,,,
Exposure (ms):,  0.635,,,,
Digital Resolution:,228,,
Num Repeats:,6,,
PGA Gain:,64,,
Total Measurement Time in sec:,  2.726,,
Wavelength (nm),Absorbance (AU),Reference Signal (unitless),Sample Signal (unitless)
901.51,1.307097,108485,5349
905.376,1.307690,121306,5973
909.237,1.344518,131909,5967
913.095,1.316639,143299,6912
916.948,1.298883,156982,7888
922.079,1.301941,179937,8978
925.923,1.312673,200504,9760
929.762,1.306210,222660,11001
933.597,1.317334,244426,11771
937.427,1.311271,263972,12891
941.254,1.317623,281845,13564
945.076,1.313465,297271,14444
950.165,1.307721,315605,15539
953.978,1.311358,328029,16016
957.786,1.303473,340470,16928
961.59,1.319870,352317,16868
965.389,1.313524,363056,17638
969.185,1.321990,373162,17779
972.976,1.308185,382632,18819
976.763,1.306102,391202,19333
981.806,1.307888,400190,19696
985.583,1.317229,406088,19561
989.355,1.313644,410162,19921
993.124,1.314673,412868,20005
996.888,1.308861,414263,20343
1000.65,1.318625,415476,19949
1004.4,1.304134,415479,20626
1009.41,1.316954,414358,19972
1013.15,1.303819,412923,20514
1016.89,1.315304,411526,19911
1020.63,1.310590,409066,20008
1024.36,1.304478,406777,20178
1028.09,1.319755,404427,19368
1031.82,1.307794,401911,19785
1036.78,1.310518,398410,19490
1040.49,1.312924,396204,19275
1044.2,1.306837,394236,19450
1047.91,1.316917,392042,18898
1051.61,1.312137,389823,18999
1055.31,1.307310,388234,19133
1059,1.313117,387599,18848
1063.92,1.311520,386688,18873
1067.61,1.314699,386598,18731
1071.29,1.318504,387377,18605
1074.96,1.321134,388536,18548
1078.63,1.313156,389855,18956
1082.3,1.320040,391215,18723
1085.96,1.320057,393215,18818
1090.84,1.316526,396270,19119
1094.49,1.324089,398760,18907
1098.14,1.323167,400987,19053
1101.79,1.321817,403477,19231
1105.43,1.321453,406116,19373
1109.06,1.317466,407701,19628
1112.7,1.326807,409859,19312
1117.53,1.310884,412494,20162
1121.15,1.316164,414909,20035
1124.77,1.324021,416559,19754
1128.38,1.319398,418532,20060
1131.99,1.323435,419956,19942
1135.6,1.320896,421946,20154
1139.2,1.322753,423881,20160
1143.99,1.313339,426786,20743
1147.58,1.323121,428617,20368
1151.17,1.322280,431169,20529
1154.75,1.320553,433579,20726
1158.33,1.324157,436264,20682
1161.91,1.321390,439132,20951
1165.48,1.321110,442389,21120
1169.04,1.315080,446101,21595
1173.79,1.322450,451929,21509
1177.34,1.307986,456026,22439
1180.9,1.319793,461306,22090
1184.44,1.321253,467657,22319
1187.99,1.324302,473969,22462
1191.52,1.316147,479856,23172
1195.06,1.323854,487372,23121
1199.76,1.330068,497347,23259
1203.29,1.320826,504311,24092
1206.81,1.329764,511507,23938
1210.33,1.331274,519078,24208
1213.84,1.323831,527163,25010
1217.35,1.327881,534208,25109
1220.85,1.321541,540472,25777
1225.51,1.330086,549929,25717
1229.01,1.320952,556888,26596
1232.5,1.322633,562180,26745
1235.98,1.324690,567975,26893
1239.46,1.328148,574815,27001
1242.94,1.330905,582782,27202
1246.41,1.329693,591476,27685
1251.03,1.325868,604016,28522
1254.5,1.327730,612289,28789
1257.96,1.330715,619125,28911
1261.41,1.329442,624551,29250
1264.86,1.331989,629900,29328
1268.31,1.330960,634345,29605
1271.75,1.330427,638574,29839
1276.33,1.325471,642499,30367
1279.76,1.328239,645905,30334
1283.19,1.329694,648307,30345
1286.61,1.332515,650446,30248
1290.03,1.329979,652132,30504
1293.44,1.329894,653907,30593
1296.85,1.339454,655963,30021
1301.39,1.336554,657349,30286
1304.8,1.332042,657558,30612
1308.19,1.331144,658515,30720
1311.58,1.332397,658804,30645
1314.97,1.331754,659011,30700
1318.36,1.336447,658272,30336
1321.73,1.336125,658022,30347
1326.23,1.331228,657870,30684
1329.6,1.328602,656482,30805
1332.97,1.337582,654926,30103
1336.33,1.329931,653727,30582
1339.69,1.334342,652497,30216
1343.04,1.331212,649913,30314
1346.39,1.331678,647671,30177
1349.73,1.331495,645338,30081
1354.18,1.334527,641175,29679
1357.52,1.330875,638376,29799
1360.85,1.333428,635805,29505
1364.17,1.328010,633413,29763
1367.49,1.331670,631026,29402
1370.81,1.336346,628050,28950
1374.12,1.334856,625034,28910
1378.54,1.326961,620272,29216
1381.84,1.328636,616892,28945
1385.14,1.335081,613613,28367
1388.43,1.328972,611526,28671
1391.72,1.324438,610663,28931
1395.01,1.328869,610634,28636
1398.29,1.329550,611700,28641
1402.66,1.329763,614051,28737
1405.93,1.330106,616268,28818
1409.2,1.335360,617795,28542
1412.46,1.336421,618872,28522
1415.72,1.336733,619795,28544
1418.98,1.333165,620495,28812
1422.23,1.333911,621087,28790
1426.56,1.337003,621375,28599
1429.8,1.325737,621616,29362
1433.04,1.333825,622129,28844
1436.27,1.335275,621526,28720
1439.5,1.339562,621113,28419
1442.72,1.335518,620921,28676
1445.94,1.338117,620270,28475
1450.23,1.337922,618860,28423
1453.44,1.332621,617697,28718
1456.64,1.336770,616264,28379
1459.85,1.338150,614413,28204
1463.04,1.335597,612307,28273
1466.24,1.339297,610032,27929
1469.43,1.336433,607345,27990
1473.67,1.335717,603789,27872
1476.85,1.337935,601175,27610
1480.02,1.336483,597737,27544
1483.19,1.335990,594479,27425
1486.36,1.340314,591232,27005
1489.52,1.336364,587853,27096
1492.68,1.338396,583875,26787
1496.89,1.338630,578062,26506
1500.03,1.340980,574159,26185
1503.18,1.339019,570285,26126
1506.32,1.336432,565444,26059
1509.45,1.339442,560571,25656
1512.58,1.340683,555821,25366
1515.71,1.340909,550344,25103
1519.87,1.341379,543983,24786
1522.99,1.339124,538764,24676
1526.1,1.346067,533692,24056
1529.21,1.338523,527902,24212
1532.32,1.340725,521886,23815
1535.42,1.344362,515888,23345
1538.51,1.357718,509987,22379
1541.6,1.339780,503936,23046
1545.72,1.342251,494694,22495
1548.8,1.340919,488378,22276
1551.88,1.336054,481832,22225
1554.95,1.336974,474989,21863
1558.02,1.333217,467818,21720
1561.08,1.343633,460730,20884
1564.15,1.349530,454170,20309
1568.22,1.335594,444181,20510
1571.27,1.340421,436947,19953
1574.32,1.336178,429598,19810
1577.36,1.350502,422039,18830
1580.4,1.333076,414375,19245
1583.43,1.340350,406354,18559
1586.46,1.335229,398475,18415
1590.49,1.330742,388982,18163
1593.51,1.336463,380708,17544
1596.53,1.325631,372727,17610
1599.54,1.329597,365060,17091
1602.55,1.332332,357543,16634
1605.55,1.327354,349495,16447
1608.55,1.332346,341154,15871
1612.54,1.341525,330877,15071
1615.53,1.325462,322904,15262
1618.51,1.325868,315116,14880
1621.49,1.320246,307217,14696
1624.47,1.325214,299481,14163
1627.44,1.329940,292112,13665
1630.41,1.327659,284245,13367
1634.36,1.321534,274079,13072
1637.32,1.329604,266916,12496
1640.27,1.321429,259612,12385
1643.22,1.314774,251804,12198
1646.16,1.323738,244348,11595
1649.1,1.322781,236703,11257
1652.04,1.328674,228171,10705
1655.95,1.326582,215408,10155
1658.88,1.308375,204937,10075
1661.8,1.332686,193395,8990
1664.72,1.320067,179728,8601
1667.63,1.323530,163642,7769
1670.54,1.304224,146312,7262
1673.44,1.315856,128451,6207
1677.31,1.302852,105080,5232
1680.21,1.330883,88906,4150
1683.1,1.292621,75033,3825
1685.99,1.298440,63520,3195
1688.87,1.276616,53714,2841
1691.75,1.304977,45653,2262
1694.62,1.381467,39137,1626
1697.49,1.237906,33776,1953
1701.31,1.287897,28175,1452

File: Column 1_078083_20241121_164438.csv
Method:,Column 1,,
Host Date-Time:,21/11/24 @ 16:44:38,,
Header Version:,1,,
System Temp (C):,31.88,,
Detector Temp (C):,26.81,,
Humidity (%):,4.79,,
Lamp PD:,3808,,
Shift Vector Coefficients:,-10.5391,0.0761263,-0.000134223,,
Pixel to Wavelength Coefficients:,1775.68,-0.916766,-0.000235065,,
Serial Number:,5510004,,
Scan Config Name:,Column 1,,
Scan Config Type:,Slew,,
Section 1,,
Start wavelength (nm):,900,,
End wavelength (nm):,1700,,
Pattern Pixel Width (nm):,   7.03,,,,
Exposure (ms):,  0.635,,,,
Digital Resolution:,228,,
Num Repeats:,6,,
PGA Gain:,64,,
Total Measurement Time in sec:,  2.729,,
Wavelength (nm),Absorbance (AU),Reference Signal (unitless),Sample Signal (unitless)
901.51,1.330962,108485,5063
905.376,1.323008,121306,5766
909.237,1.340750,131909,6019
913.095,1.310711,143299,7007
916.948,1.325856,156982,7413
922.079,1.318556,179937,8641
925.923,1.324537,200504,9497
929.762,1.323485,222660,10572
933.597,1.318368,244426,11743
937.427,1.299047,263972,13259
941.254,1.311518,281845,13756
945.076,1.314820,297271,14399
950.165,1.309205,315605,15486
953.978,1.320649,328029,15677
957.786,1.315517,340470,16465
961.59,1.314955,352317,17060
965.389,1.297879,363056,18285
969.185,1.314243,373162,18099
972.976,1.314320,382632,18555
976.763,1.310981,391202,19117
981.806,1.313972,400190,19422
985.583,1.312943,406088,19755
989.355,1.303112,410162,20410
993.124,1.316369,412868,19927
996.888,1.309844,414263,20297
1000.65,1.315825,415476,20078
1004.4,1.304450,415479,20611
1009.41,1.306258,414358,20470
1013.15,1.312133,412923,20125
1016.89,1.314063,411526,19968
1020.63,1.315413,409066,19787
1024.36,1.311224,406777,19867
1028.09,1.305658,404427,20007
1031.82,1.312894,401911,19554
1036.78,1.314368,398410,19318
1040.49,1.313015,396204,19271
1044.2,1.308761,394236,19364
1047.91,1.314145,392042,19019
1051.61,1.309175,389823,19129
1055.31,1.313759,388234,18851
1059,1.319571,387599,18570
1063.92,1.306532,386688,19091
1067.61,1.313587,386598,18779
1071.29,1.311167,387377,18922
1074.96,1.307240,388536,19151
1078.63,1.321600,389855,18591
1082.3,1.309318,391215,19191
1085.96,1.318260,393215,18896
1090.84,1.323787,396270,18802
1094.49,1.318656,398760,19145
1098.14,1.310077,400987,19636
1101.79,1.318398,403477,19383
1105.43,1.313721,406116,19721
1109.06,1.319929,407701,19517
1112.7,1.323693,409859,19451
1117.53,1.320004,412494,19743
1121.15,1.326384,414909,19569
1124.77,1.322025,416559,19845
1128.38,1.320677,418532,20001
1131.99,1.319144,419956,20140
1135.6,1.322688,421946,20071
1139.2,1.318146,423881,20375
1143.99,1.328442,426786,20034
1147.58,1.322290,428617,20407
1151.17,1.314003,431169,20924
1154.75,1.329915,433579,20284
1158.33,1.319894,436264,20886
1161.91,1.322573,439132,20894
1165.48,1.318957,442389,21225
1169.04,1.317581,446101,21471
1173.79,1.316434,451929,21809
1177.34,1.316488,456026,22004
1180.9,1.320384,461306,22060
1184.44,1.326224,467657,22065
1187.99,1.315706,473969,22911
1191.52,1.317837,479856,23082
1195.06,1.320449,487372,23303
1199.76,1.327017,497347,23423
1203.29,1.329216,504311,23631
1206.81,1.322460,511507,24344
1210.33,1.331866,519078,24175
1213.84,1.318773,527163,25303
1217.35,1.323321,534208,25374
1220.85,1.327000,540472,25455
1225.51,1.347557,549929,24703
1229.01,1.324460,556888,26382
1232.5,1.327745,562180,26432
1235.98,1.317562,567975,27338
1239.46,1.327168,574815,27062
1242.94,1.328009,582782,27384
1246.41,1.322937,591476,28119
1251.03,1.330091,604016,28246
1254.5,1.326570,612289,28866
1257.96,1.335640,619125,28585
1261.41,1.327339,624551,29392
1264.86,1.331412,629900,29367
1268.31,1.328415,634345,29779
1271.75,1.328351,638574,29982
1276.33,1.329393,642499,30094
1279.76,1.326795,645905,30435
1283.19,1.327282,648307,30514
1286.61,1.335193,650446,30062
1290.03,1.327565,652132,30674
1293.44,1.336301,653907,30145
1296.85,1.330690,655963,30633
1301.39,1.328217,657349,30873
1304.8,1.328229,657558,30882
1308.19,1.333896,658515,30526
1311.58,1.338735,658804,30201
1314.97,1.332151,659011,30672
1318.36,1.332244,658272,30631
1321.73,1.333357,658022,30541
1326.23,1.334524,657870,30452
1329.6,1.333464,656482,30462
1332.97,1.338001,654926,30074
1336.33,1.325860,653727,30870
1339.69,1.330749,652497,30467
1343.04,1.328798,649913,30483
1346.39,1.328752,647671,30381
1349.73,1.330903,645338,30122
1354.18,1.328093,641175,30122
1357.52,1.331648,638376,29746
1360.85,1.331460,635805,29639
1364.17,1.337898,633413,29093
1367.49,1.331493,631026,29414
1370.81,1.332894,628050,29181
1374.12,1.330521,625034,29200
1378.54,1.331729,620272,28897
1381.84,1.334010,616892,28589
1385.14,1.332836,613613,28514
1388.43,1.321136,611526,29193
1391.72,1.332560,610663,28395
1395.01,1.328005,610634,28693
1398.29,1.325581,611700,28904
1402.66,1.330398,614051,28695
1405.93,1.331510,616268,28725
1409.2,1.333523,617795,28663
1412.46,1.326545,618872,29178
1415.72,1.333112,619795,28783
1418.98,1.331931,620495,28894
1422.23,1.335392,621087,28692
1426.56,1.334973,621375,28733
1429.8,1.332114,621616,28934
1433.04,1.334895,622129,28773
1436.27,1.332862,621526,28880
1439.5,1.335894,621113,28660
1442.72,1.338283,620921,28494
1445.94,1.335229,620270,28665
1450.23,1.342021,618860,28156
1453.44,1.331972,617697,28761
1456.64,1.334648,616264,28518
1459.85,1.341194,614413,28007
1463.04,1.334830,612307,28323
1466.24,1.333106,610032,28330
1469.43,1.340658,607345,27719
1473.67,1.337403,603789,27764
1476.85,1.337007,601175,27669
1480.02,1.342037,597737,27194
1483.19,1.343384,594479,26962
1486.36,1.334229,591232,27386
1489.52,1.339953,587853,26873
1492.68,1.335262,583875,26981
1496.89,1.341342,578062,26341
1500.03,1.337083,574159,26421
1503.18,1.344186,570285,25817
1506.32,1.339207,565444,25893
1509.45,1.343182,560571,25436
1512.58,1.344190,555821,25162
1515.71,1.340079,550344,25151
1519.87,1.338584,543983,24946
1522.99,1.342463,538764,24487
1526.1,1.345184,533692,24105
1529.21,1.335377,527902,24388
1532.32,1.334335,521886,24168
1535.42,1.338834,515888,23644
1538.51,1.337564,509987,23442
1541.6,1.338613,503936,23108
1545.72,1.341980,494694,22509
1548.8,1.340841,488378,22280
1551.88,1.333443,481832,22359
1554.95,1.340264,474989,21698
1558.02,1.343762,467818,21199
1561.08,1.335577,460730,21275
1564.15,1.337446,454170,20882
1568.22,1.336930,444181,20447
1571.27,1.342078,436947,19877
1574.32,1.339479,429598,19660
1577.36,1.340020,422039,19290
1580.4,1.338115,414375,19023
1583.43,1.339929,406354,18577
1586.46,1.337191,398475,18332
1590.49,1.335478,388982,17966
1593.51,1.333897,380708,17648
1596.53,1.336747,372727,17165
1599.54,1.338090,365060,16760
1602.55,1.339253,357543,16371
1605.55,1.330827,349495,16316
1608.55,1.329048,341154,15992
1612.54,1.338023,330877,15193
1615.53,1.332664,322904,15011
1618.51,1.333315,315116,14627
1621.49,1.328390,307217,14423
1624.47,1.328230,299481,14065
1627.44,1.339808,292112,13358
1630.41,1.330037,284245,13294
1634.36,1.328736,274079,12857
1637.32,1.317505,266916,12849
1640.27,1.330428,259612,12131
1643.22,1.326392,251804,11876
1646.16,1.329165,244348,11451
1649.1,1.326384,236703,11164
1652.04,1.333323,228171,10591
1655.95,1.311081,215408,10524
1658.88,1.313623,204937,9954
1661.8,1.312948,193395,9408
1664.72,1.318957,179728,8623
1667.63,1.314512,163642,7932
1670.54,1.323608,146312,6945
1673.44,1.300054,128451,6437
1677.31,1.314632,105080,5092
1680.21,1.341583,88906,4049
1683.1,1.284745,75033,3895
1685.99,1.281119,63520,3325
1688.87,1.354424,53714,2375
1691.75,1.365224,45653,1969
1694.62,1.368573,39137,1675
1697.49,1.201454,33776,2124
1701.31,1.318887,28175,1352

File: Column 1_078086_20241121_164447.csv
Method:,Column 1,,
Host Date-Time:,21/11/24 @ 16:44:47,,
Header Version:,1,,
System Temp (C):,31.95,,
Detector Temp (C):,26.85,,
Humidity (%):,4.54,,
Lamp PD:,3808,,
Shift Vector Coefficients:,-10.5391,0.0761263,-0.000134223,,
Pixel to Wavelength Coefficients:,1775.68,-0.916766,-0.000235065,,
Serial Number:,5510004,,
Scan Config Name:,Column 1,,
Scan Config Type:,Slew,,
Section 1,,
Start wavelength (nm):,900,,
End wavelength (nm):,1700,,
Pattern Pixel Width (nm):,   7.03,,,,
Exposure (ms):,  0.635,,,,
Digital Resolution:,228,,
Num Repeats:,6,,
PGA Gain:,64,,
Total Measurement Time in sec:,  2.708,,
Wavelength (nm),Absorbance (AU),Reference Signal (unitless),Sample Signal (unitless)
901.51,1.301050,108485,5424
905.376,1.306673,121306,5987
909.237,1.315454,131909,6380
913.095,1.300906,143299,7167
916.948,1.316295,156982,7578
922.079,1.310194,179937,8809
925.923,1.303907,200504,9959
929.762,1.318177,222660,10702
933.597,1.299515,244426,12264
937.427,1.322914,263972,12550
941.254,1.322161,281845,13423
945.076,1.316664,297271,14338
950.165,1.304408,315605,15658
953.978,1.302687,328029,16339
957.786,1.302116,340470,16981
961.59,1.322737,352317,16757
965.389,1.301576,363056,18130
969.185,1.307198,373162,18395
972.976,1.313572,382632,18587
976.763,1.307091,391202,19289
981.806,1.314420,400190,19402
985.583,1.317007,406088,19571
989.355,1.314146,410162,19898
993.124,1.309215,412868,20258
996.888,1.303957,414263,20574
1000.65,1.305734,415476,20550
1004.4,1.310625,415479,20320
1009.41,1.299438,414358,20794
1013.15,1.309337,412923,20255
1016.89,1.314585,411526,19944
1020.63,1.305733,409066,20233
1024.36,1.305772,406777,20118
1028.09,1.300051,404427,20267
1031.82,1.316418,401911,19396
1036.78,1.306791,398410,19658
1040.49,1.307840,396204,19502
1044.2,1.312138,394236,19214
1047.91,1.310869,392042,19163
1051.61,1.312000,389823,19005
1055.31,1.315768,388234,18764
1059,1.310201,387599,18975
1063.92,1.313110,386688,18804
1067.61,1.315348,386598,18703
1071.29,1.305059,387377,19190
1074.96,1.310838,388536,18993
1078.63,1.318110,389855,18741
1082.3,1.323019,391215,18595
1085.96,1.320888,393215,18782
1090.84,1.316367,396270,19126
1094.49,1.313784,398760,19361
1098.14,1.309127,400987,19679
1101.79,1.308387,403477,19835
1105.43,1.317326,406116,19558
1109.06,1.316228,407701,19684
1112.7,1.316298,409859,19785
1117.53,1.321680,412494,19667
1121.15,1.322034,414909,19766
1124.77,1.320845,416559,19899
1128.38,1.313527,418532,20333
1131.99,1.312723,419956,20440
1135.6,1.313143,421946,20517
1139.2,1.317720,423881,20395
1143.99,1.320261,426786,20415
1147.58,1.316792,428617,20667
1151.17,1.315854,431169,20835
1154.75,1.321896,433579,20662
1158.33,1.313987,436264,21172
1161.91,1.315441,439132,21240
1165.48,1.320761,442389,21137
1169.04,1.317278,446101,21486
1173.79,1.317012,451929,21780
1177.34,1.323492,456026,21652
1180.9,1.317284,461306,22218
1184.44,1.320339,467657,22366
1187.99,1.313531,473969,23026
1191.52,1.319157,479856,23012
1195.06,1.316904,487372,23494
1199.76,1.318189,497347,23904
1203.29,1.323974,504311,23918
1206.81,1.321925,511507,24374
1210.33,1.325570,519078,24528
1213.84,1.323814,527163,25011
1217.35,1.314243,534208,25910
1220.85,1.327786,540472,25409
1225.51,1.321956,549929,26203
1229.01,1.317860,556888,26786
1232.5,1.322016,562180,26783
1235.98,1.318660,567975,27269
1239.46,1.322761,574815,27338
1242.94,1.321790,582782,27779
1246.41,1.320857,591476,28254
1251.03,1.321189,604016,28831
1254.5,1.326510,612289,28870
1257.96,1.323815,619125,29374
1261.41,1.325260,624551,29533
1264.86,1.328288,629900,29579
1268.31,1.332386,634345,29508
1271.75,1.327208,638574,30061
1276.33,1.329652,642499,30076
1279.76,1.328855,645905,30291
1283.19,1.329236,648307,30377
1286.61,1.326342,650446,30681
1290.03,1.330150,652132,30492
1293.44,1.329454,653907,30624
1296.85,1.331059,655963,30607
1301.39,1.331819,657349,30618
1304.8,1.330753,657558,30703
1308.19,1.328467,658515,30910
1311.58,1.327871,658804,30966
1314.97,1.335462,659011,30439
1318.36,1.332258,658272,30630
1321.73,1.332491,658022,30602
1326.23,1.335338,657870,30395
1329.6,1.329646,656482,30731
1332.97,1.330003,654926,30633
1336.33,1.323027,653727,31072
1339.69,1.326395,652497,30774
1343.04,1.326085,649913,30674
1346.39,1.335291,647671,29927
1349.73,1.332261,645338,30028
1354.18,1.331712,641175,29872
1357.52,1.333682,638376,29607
1360.85,1.324671,635805,30106
1364.17,1.330527,633413,29591
1367.49,1.327320,631026,29698
1370.81,1.328968,628050,29446
1374.12,1.323894,625034,29649
1378.54,1.332376,620272,28854
1381.84,1.326854,616892,29064
1385.14,1.328562,613613,28796
1388.43,1.333372,611526,28382
1391.72,1.328647,610663,28652
1395.01,1.324703,610634,28912
1398.29,1.327282,611700,28791
1402.66,1.331110,614051,28648
1405.93,1.334620,616268,28520
1409.2,1.327713,617795,29049
1412.46,1.335508,618872,28582
1415.72,1.332162,619795,28846
1418.98,1.329562,620495,29052
1422.23,1.331849,621087,28927
1426.56,1.333780,621375,28812
1429.8,1.330541,621616,29039
1433.04,1.333238,622129,28883
1436.27,1.331256,621526,28987
1439.5,1.327922,621113,29191
1442.72,1.332169,620921,28898
1445.94,1.337782,620270,28497
1450.23,1.337251,618860,28467
1453.44,1.329863,617697,28901
1456.64,1.335578,616264,28457
1459.85,1.331018,614413,28671
1463.04,1.335782,612307,28261
1466.24,1.333290,610032,28318
1469.43,1.336169,607345,28007
1473.67,1.339284,603789,27644
1476.85,1.334800,601175,27810
1480.02,1.330517,597737,27925
1483.19,1.331516,594479,27709
1486.36,1.336822,591232,27223
1489.52,1.327165,587853,27676
1492.68,1.332630,583875,27145
1496.89,1.335642,578062,26689
1500.03,1.337543,574159,26393
1503.18,1.338471,570285,26159
1506.32,1.337333,565444,26005
1509.45,1.341206,560571,25552
1512.58,1.338173,555821,25513
1515.71,1.342069,550344,25036
1519.87,1.335341,543983,25133
1522.99,1.342658,538764,24476
1526.1,1.345039,533692,24113
1529.21,1.335751,527902,24367
1532.32,1.339141,521886,23902
1535.42,1.343544,515888,23389
1538.51,1.336584,509987,23495
1541.6,1.341725,503936,22943
1545.72,1.341075,494694,22556
1548.8,1.325313,488378,23091
1551.88,1.337895,481832,22131
1554.95,1.333413,474989,22043
1558.02,1.338002,467818,21482
1561.08,1.336803,460730,21215
1564.15,1.329206,454170,21282
1568.22,1.341135,444181,20250
1571.27,1.339898,436947,19977
1574.32,1.338949,429598,19684
1577.36,1.335296,422039,19501
1580.4,1.333211,414375,19239
1583.43,1.337830,406354,18667
1586.46,1.336528,398475,18360
1590.49,1.324310,388982,18434
1593.51,1.327593,380708,17906
1596.53,1.326520,372727,17574
1599.54,1.333451,365060,16940
1602.55,1.329002,357543,16762
1605.55,1.330987,349495,16310
1608.55,1.324294,341154,16168
1612.54,1.319829,330877,15843
1615.53,1.317930,322904,15529
1618.51,1.334177,315116,14598
1621.49,1.325479,307217,14520
1624.47,1.337467,299481,13769
1627.44,1.330385,292112,13651
1630.41,1.324874,284245,13453
1634.36,1.325539,274079,12952
1637.32,1.324971,266916,12630
1640.27,1.315128,259612,12566
1643.22,1.320905,251804,12027
1646.16,1.316790,244348,11782
1649.1,1.325607,236703,11184
1652.04,1.314662,228171,11056
1655.95,1.313689,215408,10461
1658.88,1.305197,204937,10149
1661.8,1.317076,193395,9319
1664.72,1.301291,179728,8981
1667.63,1.305839,163642,8092
1670.54,1.303089,146312,7281
1673.44,1.314180,128451,6231
1677.31,1.311064,105080,5134
1680.21,1.335195,88906,4109
1683.1,1.299718,75033,3763
1685.99,1.342313,63520,2888
1688.87,1.349153,53714,2404
1691.75,1.325217,45653,2159
1694.62,1.340949,39137,1785
1697.49,1.268537,33776,1820
1701.31,1.149051,28175,1999