Folder: textile_sorting_NIRSCAN_/ML/samples/unknown (part 129)

File: Column 1_078953_20241121_173009.csv
Method:,Column 1,,
Host Date-Time:,21/11/24 @ 17:30:9,,
Header Version:,1,,
System Temp (C):,37.89,,
Detector Temp (C):,36.76,,
Humidity (%):,0.54,,
Lamp PD:,3795,,
Shift Vector Coefficients:,-10.5391,0.0761263,-0.000134223,,
Pixel to Wavelength Coefficients:,1775.68,-0.916766,-0.000235065,,
Serial Number:,5510004,,
Scan Config Name:,Column 1,,
Scan Config Type:,Slew,,
Section 1,,
Start wavelength (nm):,900,,
End wavelength (nm):,1700,,
Pattern Pixel Width (nm):,   7.03,,,,
Exposure (ms):,  0.635,,,,
Digital Resolution:,228,,
Num Repeats:,6,,
PGA Gain:,64,,
Total Measurement Time in sec:,  2.727,,
Wavelength (nm),Absorbance (AU),Reference Signal (unitless),Sample Signal (unitless)
901.51,1.305881,108485,5364
905.376,1.301123,121306,6064
909.237,1.313078,131909,6415
913.095,1.323607,143299,6802
916.948,1.321426,156982,7489
922.079,1.323053,179937,8552
925.923,1.315575,200504,9695
929.762,1.312132,222660,10852
933.597,1.314466,244426,11849
937.427,1.317310,263972,12713
941.254,1.319998,281845,13490
945.076,1.308502,297271,14610
950.165,1.300597,315605,15796
953.978,1.311765,328029,16001
957.786,1.312468,340470,16581
961.59,1.307859,352317,17341
965.389,1.308116,363056,17859
969.185,1.312089,373162,18189
972.976,1.305883,382632,18919
976.763,1.308083,391202,19245
981.806,1.302868,400190,19925
985.583,1.310663,406088,19859
989.355,1.306659,410162,20244
993.124,1.299233,412868,20729
996.888,1.306987,414263,20431
1000.65,1.307280,415476,20477
1004.4,1.306456,415479,20516
1009.41,1.305283,414358,20516
1013.15,1.302403,412923,20581
1016.89,1.306153,411526,20335
1020.63,1.309527,409066,20057
1024.36,1.300707,406777,20354
1028.09,1.309561,404427,19828
1031.82,1.318393,401911,19308
1036.78,1.296120,398410,20147
1040.49,1.305508,396204,19607
1044.2,1.298806,394236,19813
1047.91,1.300766,392042,19614
1051.61,1.306256,389823,19258
1055.31,1.312448,388234,18908
1059,1.302331,387599,19322
1063.92,1.302704,386688,19260
1067.61,1.316301,386598,18662
1071.29,1.302667,387377,19296
1074.96,1.302324,388536,19369
1078.63,1.316584,389855,18807
1082.3,1.317727,391215,18823
1085.96,1.315808,393215,19003
1090.84,1.316731,396270,19110
1094.49,1.309298,398760,19562
1098.14,1.307014,400987,19775
1101.79,1.315028,403477,19534
1105.43,1.316904,406116,19577
1109.06,1.310138,407701,19962
1112.7,1.319781,409859,19627
1117.53,1.315823,412494,19934
1121.15,1.316207,414909,20033
1124.77,1.314798,416559,20178
1128.38,1.309911,418532,20503
1131.99,1.311747,419956,20486
1135.6,1.308720,421946,20727
1139.2,1.323206,423881,20139
1143.99,1.308198,426786,20990
1147.58,1.311632,428617,20914
1151.17,1.315042,431169,20874
1154.75,1.319068,433579,20797
1158.33,1.312452,436264,21247
1161.91,1.309531,439132,21531
1165.48,1.316773,442389,21332
1169.04,1.320727,446101,21316
1173.79,1.313102,451929,21977
1177.34,1.309984,456026,22336
1180.9,1.313760,461306,22399
1184.44,1.321895,467657,22286
1187.99,1.315820,473969,22905
1191.52,1.312917,479856,23345
1195.06,1.312032,487372,23759
1199.76,1.324337,497347,23568
1203.29,1.316806,504311,24316
1206.81,1.316014,511507,24708
1210.33,1.322606,519078,24696
1213.84,1.318241,527163,25334
1217.35,1.321289,534208,25493
1220.85,1.320918,540472,25814
1225.51,1.314186,549929,26676
1229.01,1.321033,556888,26591
1232.5,1.319978,562180,26909
1235.98,1.318469,567975,27281
1239.46,1.320290,574815,27494
1242.94,1.321399,582782,27804
1246.41,1.315267,591476,28620
1251.03,1.318965,604016,28979
1254.5,1.324154,612289,29027
1257.96,1.327289,619125,29140
1261.41,1.320464,624551,29861
1264.86,1.324618,629900,29830
1268.31,1.327090,634345,29870
1271.75,1.327063,638574,30071
1276.33,1.323587,642499,30499
1279.76,1.321336,645905,30820
1283.19,1.323075,648307,30811
1286.61,1.323168,650446,30906
1290.03,1.327877,652132,30652
1293.44,1.326740,653907,30816
1296.85,1.325294,655963,31016
1301.39,1.327177,657349,30947
1304.8,1.328524,657558,30861
1308.19,1.323882,658515,31238
1311.58,1.317081,658804,31745
1314.97,1.322212,659011,31382
1318.36,1.329643,658272,30815
1321.73,1.330749,658022,30725
1326.23,1.328800,657870,30856
1329.6,1.324169,656482,31121
1332.97,1.329224,654926,30688
1336.33,1.323363,653727,31048
1339.69,1.332563,652497,30340
1343.04,1.329140,649913,30459
1346.39,1.322578,647671,30816
1349.73,1.328703,645338,30275
1354.18,1.331000,641175,29921
1357.52,1.325789,638376,30150
1360.85,1.327566,635805,29906
1364.17,1.321579,633413,30207
1367.49,1.325365,631026,29832
1370.81,1.326981,628050,29581
1374.12,1.329036,625034,29300
1378.54,1.324279,620272,29397
1381.84,1.318917,616892,29600
1385.14,1.322527,613613,29199
1388.43,1.315255,611526,29591
1391.72,1.321819,610663,29106
1395.01,1.328005,610634,28693
1398.29,1.327418,611700,28782
1402.66,1.324073,614051,29116
1405.93,1.330483,616268,28793
1409.2,1.326698,617795,29117
1412.46,1.325891,618872,29222
1415.72,1.331591,619795,28884
1418.98,1.329906,620495,29029
1422.23,1.334968,621087,28720
1426.56,1.324106,621375,29461
1429.8,1.330122,621616,29067
1433.04,1.331782,622129,28980
1436.27,1.327586,621526,29233
1439.5,1.332092,621113,28912
1442.72,1.326184,620921,29299
1445.94,1.324086,620270,29410
1450.23,1.327550,618860,29110
1453.44,1.327360,617697,29068
1456.64,1.332233,616264,28677
1459.85,1.332717,614413,28559
1463.04,1.330072,612307,28635
1466.24,1.333750,610032,28288
1469.43,1.337567,607345,27917
1473.67,1.331592,603789,28138
1476.85,1.329600,601175,28145
1480.02,1.328237,597737,28072
1483.19,1.331406,594479,27716
1486.36,1.331762,591232,27542
1489.52,1.333154,587853,27297
1492.68,1.336681,583875,26893
1496.89,1.328013,578062,27162
1500.03,1.333465,574159,26642
1503.18,1.336946,570285,26251
1506.32,1.330983,565444,26388
1509.45,1.330827,560571,26170
1512.58,1.333618,555821,25782
1515.71,1.331073,550344,25678
1519.87,1.332740,543983,25284
1522.99,1.331275,538764,25126
1526.1,1.331022,533692,24904
1529.21,1.331283,527902,24619
1532.32,1.326870,521886,24587
1535.42,1.325540,515888,24379
1538.51,1.325488,509987,24103
1541.6,1.332066,503936,23459
1545.72,1.332817,494694,22989
1548.8,1.332501,488378,22712
1551.88,1.337502,481832,22151
1554.95,1.332527,474989,22088
1558.02,1.331999,467818,21781
1561.08,1.330665,460730,21517
1564.15,1.331929,454170,21149
1568.22,1.328933,444181,20827
1571.27,1.330479,436947,20415
1574.32,1.332315,429598,19987
1577.36,1.326783,422039,19887
1580.4,1.322046,414375,19740
1583.43,1.331616,406354,18936
1586.46,1.325505,398475,18832
1590.49,1.323674,388982,18461
1593.51,1.334857,380708,17609
1596.53,1.329471,372727,17455
1599.54,1.323340,365060,17339
1602.55,1.327425,357543,16823
1605.55,1.314887,349495,16926
1608.55,1.318875,341154,16371
1612.54,1.323656,330877,15704
1615.53,1.317511,322904,15544
1618.51,1.331301,315116,14695
1621.49,1.313589,307217,14923
1624.47,1.322554,299481,14250
1627.44,1.314977,292112,14144
1630.41,1.314633,284245,13774
1634.36,1.315299,274079,13261
1637.32,1.302099,266916,13313
1640.27,1.316131,259612,12537
1643.22,1.304361,251804,12494
1646.16,1.317491,244348,11763
1649.1,1.300412,236703,11852
1652.04,1.292980,228171,11622
1655.95,1.295596,215408,10906
1658.88,1.281709,204937,10713
1661.8,1.287097,193395,9985
1664.72,1.256793,179728,9950
1667.63,1.244805,163642,9313
1670.54,1.217552,146312,8866
1673.44,1.207170,128451,7972
1677.31,1.175307,105080,7018
1680.21,1.142209,88906,6408
1683.1,1.118236,75033,5715
1685.99,1.135177,63520,4653
1688.87,1.113717,53714,4134
1691.75,1.135593,45653,3341
1694.62,1.122324,39137,2953
1697.49,1.102748,33776,2666
1701.31,1.113004,28175,2172

File: Column 1_078958_20241121_173023.csv
Method:,Column 1,,
Host Date-Time:,21/11/24 @ 17:30:23,,
Header Version:,1,,
System Temp (C):,37.5,,
Detector Temp (C):,36.77,,
Humidity (%):,0.39,,
Lamp PD:,3796,,
Shift Vector Coefficients:,-10.5391,0.0761263,-0.000134223,,
Pixel to Wavelength Coefficients:,1775.68,-0.916766,-0.000235065,,
Serial Number:,5510004,,
Scan Config Name:,Column 1,,
Scan Config Type:,Slew,,
Section 1,,
Start wavelength (nm):,900,,
End wavelength (nm):,1700,,
Pattern Pixel Width (nm):,   7.03,,,,
Exposure (ms):,  0.635,,,,
Digital Resolution:,228,,
Num Repeats:,6,,
PGA Gain:,64,,
Total Measurement Time in sec:,  2.724,,
Wavelength (nm),Absorbance (AU),Reference Signal (unitless),Sample Signal (unitless)
901.51,1.310030,108485,5313
905.376,1.328236,121306,5697
909.237,1.317774,131909,6346
913.095,1.329197,143299,6715
916.948,1.321542,156982,7487
922.079,1.340090,179937,8223
925.923,1.325681,200504,9472
929.762,1.324760,222660,10541
933.597,1.325453,244426,11553
937.427,1.325517,263972,12475
941.254,1.321902,281845,13431
945.076,1.319094,297271,14258
950.165,1.309205,315605,15486
953.978,1.303458,328029,16310
957.786,1.315333,340470,16472
961.59,1.314344,352317,17084
965.389,1.310115,363056,17777
969.185,1.317349,373162,17970
972.976,1.317822,382632,18406
976.763,1.305698,391202,19351
981.806,1.299935,400190,20060
985.583,1.298884,406088,20405
989.355,1.307626,410162,20199
993.124,1.306479,412868,20386
996.888,1.308797,414263,20346
1000.65,1.307174,415476,20482
1004.4,1.305695,415479,20552
1009.41,1.308406,414358,20369
1013.15,1.303522,412923,20528
1016.89,1.313411,411526,19998
1020.63,1.299828,409066,20510
1024.36,1.298854,406777,20441
1028.09,1.306071,404427,19988
1031.82,1.309399,401911,19712
1036.78,1.303862,398410,19791
1040.49,1.312542,396204,19292
1044.2,1.312297,394236,19207
1047.91,1.303142,392042,19507
1051.61,1.306595,389823,19243
1055.31,1.313759,388234,18851
1059,1.310292,387599,18971
1063.92,1.304082,386688,19199
1067.61,1.307251,386598,19055
1071.29,1.311396,387377,18912
1074.96,1.314789,388536,18821
1078.63,1.314855,389855,18882
1082.3,1.320110,391215,18720
1085.96,1.305086,393215,19478
1090.84,1.308268,396270,19486
1094.49,1.319315,398760,19116
1098.14,1.316921,400987,19329
1101.79,1.312235,403477,19660
1105.43,1.318059,406116,19525
1109.06,1.319062,407701,19556
1112.7,1.316167,409859,19791
1117.53,1.326855,412494,19434
1121.15,1.313937,414909,20138
1124.77,1.316870,416559,20082
1128.38,1.319138,418532,20072
1131.99,1.316007,419956,20286
1135.6,1.309140,421946,20707
1139.2,1.312219,423881,20655
1143.99,1.313255,426786,20747
1147.58,1.325344,428617,20264
1151.17,1.312325,431169,21005
1154.75,1.307670,433579,21350
1158.33,1.314644,436264,21140
1161.91,1.313625,439132,21329
1165.48,1.320556,442389,21147
1169.04,1.317015,446101,21499
1173.79,1.313477,451929,21958
1177.34,1.311113,456026,22278
1180.9,1.311845,461306,22498
1184.44,1.313596,467657,22716
1187.99,1.316085,473969,22891
1191.52,1.318289,479856,23058
1195.06,1.320281,487372,23312
1199.76,1.314156,497347,24127
1203.29,1.321619,504311,24048
1206.81,1.317599,511507,24618
1210.33,1.320588,519078,24811
1213.84,1.320493,527163,25203
1217.35,1.321784,534208,25464
1220.85,1.317516,540472,26017
1225.51,1.319625,549929,26344
1229.01,1.325004,556888,26349
1232.5,1.318126,562180,27024
1235.98,1.317849,567975,27320
1239.46,1.326687,574815,27092
1242.94,1.324220,582782,27624
1246.41,1.319200,591476,28362
1251.03,1.322940,604016,28715
1254.5,1.325413,612289,28943
1257.96,1.325089,619125,29288
1261.41,1.321541,624551,29787
1264.86,1.325945,629900,29739
1268.31,1.322017,634345,30221
1271.75,1.325636,638574,30170
1276.33,1.324571,642499,30430
1279.76,1.323837,645905,30643
1283.19,1.323188,648307,30803
1286.61,1.331267,650446,30335
1290.03,1.327622,652132,30670
1293.44,1.329809,653907,30599
1296.85,1.327118,655963,30886
1301.39,1.329048,657349,30814
1304.8,1.332326,657558,30592
1308.19,1.324216,658515,31214
1311.58,1.332553,658804,30634
1314.97,1.328344,659011,30942
1318.36,1.326596,658272,31032
1321.73,1.324866,658022,31144
1326.23,1.339227,657870,30124
1329.6,1.327602,656482,30876
1332.97,1.332519,654926,30456
1336.33,1.328966,653727,30650
1339.69,1.329326,652497,30567
1343.04,1.332704,649913,30210
1346.39,1.323072,647671,30781
1349.73,1.322776,645338,30691
1354.18,1.325792,641175,30282
1357.52,1.327854,638376,30007
1360.85,1.327261,635805,29927
1364.17,1.325015,633413,29969
1367.49,1.319911,631026,30209
1370.81,1.333236,628050,29158
1374.12,1.327217,625034,29423
1378.54,1.324087,620272,29410
1381.84,1.321153,616892,29448
1385.14,1.325916,613613,28972
1388.43,1.323463,611526,29037
1391.72,1.327043,610663,28758
1395.01,1.323188,610634,29013
1398.29,1.331130,611700,28537
1402.66,1.325238,614051,29038
1405.93,1.330981,616268,28760
1409.2,1.326206,617795,29150
1412.46,1.334597,618872,28642
1415.72,1.329895,619795,28997
1418.98,1.330565,620495,28985
1422.23,1.325308,621087,29366
1426.56,1.333193,621375,28851
1429.8,1.331709,621616,28961
1433.04,1.329093,622129,29160
1436.27,1.329268,621526,29120
1439.5,1.324971,621113,29390
1442.72,1.328472,620921,29145
1445.94,1.330527,620270,28977
1450.23,1.329269,618860,28995
1453.44,1.334774,617697,28576
1456.64,1.336601,616264,28390
1459.85,1.335999,614413,28344
1463.04,1.339439,612307,28024
1466.24,1.332432,610032,28374
1469.43,1.329781,607345,28422
1473.67,1.331299,603789,28157
1476.85,1.327491,601175,28282
1480.02,1.332497,597737,27798
1483.19,1.336370,594479,27401
1486.36,1.332899,591232,27470
1489.52,1.332200,587853,27357
1492.68,1.335037,583875,26995
1496.89,1.339417,578062,26458
1500.03,1.339176,574159,26294
1503.18,1.330965,570285,26615
1506.32,1.337082,565444,26020
1509.45,1.341716,560571,25522
1512.58,1.338071,555821,25519
1515.71,1.336211,550344,25376
1519.87,1.339735,543983,24880
1522.99,1.329791,538764,25212
1526.1,1.336567,533692,24588
1529.21,1.338559,527902,24210
1532.32,1.334191,521886,24176
1535.42,1.339128,515888,23628
1538.51,1.334500,509987,23608
1541.6,1.332807,503936,23419
1545.72,1.331063,494694,23082
1548.8,1.329927,488378,22847
1551.88,1.320621,481832,23029
1554.95,1.333472,474989,22040
1558.02,1.326314,467818,22068
1561.08,1.330524,460730,21524
1564.15,1.336553,454170,20925
1568.22,1.336336,444181,20475
1571.27,1.340246,436947,19961
1574.32,1.337165,429598,19765
1577.36,1.340967,422039,19248
1580.4,1.335247,414375,19149
1583.43,1.326736,406354,19150
1586.46,1.335725,398475,18394
1590.49,1.332419,388982,18093
1593.51,1.325996,380708,17972
1596.53,1.329073,372727,17471
1599.54,1.320320,365060,17460
1602.55,1.332149,357543,16641
1605.55,1.326879,349495,16465
1608.55,1.321670,341154,16266
1612.54,1.316443,330877,15967
1615.53,1.318434,322904,15511
1618.51,1.322032,315116,15012
1621.49,1.311007,307217,15012
1624.47,1.309022,299481,14701
1627.44,1.313292,292112,14199
1630.41,1.320314,284245,13595
1634.36,1.317170,274079,13204
1637.32,1.313602,266916,12965
1640.27,1.307930,259612,12776
1643.22,1.306417,251804,12435
1646.16,1.317306,244348,11768
1649.1,1.297745,236703,11925
1652.04,1.303494,228171,11344
1655.95,1.304122,215408,10694
1658.88,1.294211,204937,10409
1661.8,1.274325,193395,10283
1664.72,1.264321,179728,9779
1667.63,1.242062,163642,9372
1670.54,1.215012,146312,8918
1673.44,1.193760,128451,8222
1677.31,1.183427,105080,6888
1680.21,1.163815,88906,6097
1683.1,1.141975,75033,5411
1685.99,1.159853,63520,4396
1688.87,1.114874,53714,4123
1691.75,1.122532,45653,3443
1694.62,1.139881,39137,2836
1697.49,1.104871,33776,2653
1701.31,1.202382,28175,1768

File: Column 1_078960_20241121_173029.csv
Method:,Column 1,,
Host Date-Time:,21/11/24 @ 17:30:29,,
Header Version:,1,,
System Temp (C):,37.64,,
Detector Temp (C):,36.81,,
Humidity (%):,0.43,,
Lamp PD:,3795,,
Shift Vector Coefficients:,-10.5391,0.0761263,-0.000134223,,
Pixel to Wavelength Coefficients:,1775.68,-0.916766,-0.000235065,,
Serial Number:,5510004,,
Scan Config Name:,Column 1,,
Scan Config Type:,Slew,,
Section 1,,
Start wavelength (nm):,900,,
End wavelength (nm):,1700,,
Pattern Pixel Width (nm):,   7.03,,,,
Exposure (ms):,  0.635,,,,
Digital Resolution:,228,,
Num Repeats:,6,,
PGA Gain:,64,,
Total Measurement Time in sec:,  2.727,,
Wavelength (nm),Absorbance (AU),Reference Signal (unitless),Sample Signal (unitless)
901.51,1.298257,108485,5459
905.376,1.300122,121306,6078
909.237,1.346854,131909,5935
913.095,1.339008,143299,6565
916.948,1.314009,156982,7618
922.079,1.324732,179937,8519
925.923,1.314814,200504,9712
929.762,1.330233,222660,10409
933.597,1.317925,244426,11755
937.427,1.342992,263972,11983
941.254,1.320224,281845,13483
945.076,1.318090,297271,14291
950.165,1.307246,315605,15556
953.978,1.309275,328029,16093
957.786,1.318614,340470,16348
961.59,1.317661,352317,16954
965.389,1.306127,363056,17941
969.185,1.311587,373162,18210
972.976,1.308970,382632,18785
976.763,1.301032,391202,19560
981.806,1.307998,400190,19691
985.583,1.304000,406088,20166
989.355,1.294662,410162,20811
993.124,1.309601,412868,20240
996.888,1.310658,414263,20259
1000.65,1.315112,415476,20111
1004.4,1.307156,415479,20483
1009.41,1.310565,414358,20268
1013.15,1.296388,412923,20868
1016.89,1.302305,411526,20516
1020.63,1.311220,409066,19979
1024.36,1.309806,406777,19932
1028.09,1.307638,404427,19916
1031.82,1.312317,401911,19580
1036.78,1.304060,398410,19782
1040.49,1.304048,396204,19673
1044.2,1.301533,394236,19689
1047.91,1.307146,392042,19328
1051.61,1.302194,389823,19439
1055.31,1.304257,388234,19268
1059,1.306736,387599,19127
1063.92,1.303449,386688,19227
1067.61,1.308003,386598,19022
1071.29,1.306010,387377,19148
1074.96,1.302728,388536,19351
1078.63,1.301805,389855,19458
1082.3,1.314051,391215,18983
1085.96,1.305577,393215,19456
1090.84,1.316276,396270,19130
1094.49,1.315019,398760,19306
1098.14,1.321256,400987,19137
1101.79,1.312147,403477,19664
1105.43,1.313061,406116,19751
1109.06,1.314731,407701,19752
1112.7,1.317882,409859,19713
1117.53,1.309443,412494,20229
1121.15,1.312924,414909,20185
1124.77,1.311262,416559,20343
1128.38,1.313314,418532,20343
1131.99,1.313574,419956,20400
1135.6,1.313439,421946,20503
1139.2,1.320005,423881,20288
1143.99,1.323656,426786,20256
1147.58,1.310036,428617,20991
1151.17,1.317734,431169,20745
1154.75,1.311060,433579,21184
1158.33,1.321561,436264,20806
1161.91,1.311208,439132,21448
1165.48,1.320576,442389,21146
1169.04,1.311515,446101,21773
1173.79,1.309226,451929,22174
1177.34,1.309168,456026,22378
1180.9,1.316444,461306,22261
1184.44,1.321778,467657,22292
1187.99,1.316028,473969,22894
1191.52,1.312898,479856,23346
1195.06,1.310937,487372,23819
1199.76,1.317590,497347,23937
1203.29,1.324646,504311,23881
1206.81,1.313298,511507,24863
1210.33,1.319557,519078,24870
1213.84,1.312756,527163,25656
1217.35,1.321545,534208,25478
1220.85,1.323533,540472,25659
1225.51,1.320813,549929,26272
1229.01,1.315177,556888,26952
1232.5,1.319188,562180,26958
1235.98,1.316579,567975,27400
1239.46,1.317252,574815,27687
1242.94,1.317357,582782,28064
1246.41,1.320535,591476,28275
1251.03,1.316991,604016,29111
1254.5,1.318535,612289,29405
1257.96,1.323579,619125,29390
1261.41,1.327457,624551,29384
1264.86,1.320532,629900,30112
1268.31,1.322750,634345,30170
1271.75,1.322295,638574,30403
1276.33,1.324086,642499,30464
1279.76,1.326325,645905,30468
1283.19,1.327111,648307,30526
1286.61,1.326002,650446,30705
1290.03,1.326236,652132,30768
1293.44,1.323287,653907,31062
1296.85,1.325140,655963,31027
1301.39,1.328020,657349,30887
1304.8,1.325523,657558,31075
1308.19,1.328045,658515,30940
1311.58,1.334001,658804,30532
1314.97,1.326440,659011,31078
1318.36,1.327618,658272,30959
1321.73,1.326361,658022,31037
1326.23,1.330775,657870,30716
1329.6,1.324155,656482,31122
1332.97,1.327867,654926,30784
1336.33,1.330926,653727,30512
1339.69,1.326677,652497,30754
1343.04,1.329168,649913,30457
1346.39,1.330170,647671,30282
1349.73,1.327629,645338,30350
1354.18,1.323732,641175,30426
1357.52,1.321789,638376,30429
1360.85,1.325812,635805,30027
1364.17,1.325290,633413,29950
1367.49,1.330343,631026,29492
1370.81,1.319500,628050,30095
1374.12,1.328444,625034,29340
1378.54,1.320733,620272,29638
1381.84,1.325407,616892,29161
1385.14,1.325332,613613,29011
1388.43,1.326992,611526,28802
1391.72,1.319423,610663,29267
1395.01,1.327340,610634,28737
1398.29,1.324500,611700,28976
1402.66,1.322019,614051,29254
1405.93,1.326310,616268,29071
1409.2,1.326459,617795,29133
1412.46,1.328784,618872,29028
1415.72,1.335912,619795,28598
1418.98,1.333965,620495,28759
1422.23,1.336058,621087,28648
1426.56,1.334112,621375,28790
1429.8,1.330511,621616,29041
1433.04,1.327517,622129,29266
1436.27,1.326725,621526,29291
1439.5,1.326926,621113,29258
1442.72,1.329786,620921,29057
1445.94,1.323805,620270,29429
1450.23,1.332547,618860,28777
1453.44,1.336297,617697,28476
1456.64,1.331446,616264,28729
1459.85,1.332201,614413,28593
1463.04,1.331333,612307,28552
1466.24,1.330584,610032,28495
1469.43,1.329292,607345,28454
1473.67,1.335016,603789,27917
1476.85,1.329677,601175,28140
1480.02,1.330984,597737,27895
1483.19,1.333527,594479,27581
1486.36,1.337908,591232,27155
1489.52,1.331201,587853,27420
1492.68,1.326798,583875,27512
1496.89,1.329582,578062,27064
1500.03,1.335229,574159,26534
1503.18,1.333650,570285,26451
1506.32,1.337016,565444,26024
1509.45,1.330943,560571,26163
1512.58,1.337085,555821,25577
1515.71,1.347199,550344,24742
1519.87,1.333651,543983,25231
1522.99,1.325506,538764,25462
1526.1,1.332611,533692,24813
1529.21,1.335110,527902,24403
1532.32,1.329297,521886,24450
1535.42,1.331025,515888,24073
1538.51,1.337046,509987,23470
1541.6,1.334647,503936,23320
1545.72,1.336726,494694,22783
1548.8,1.332099,488378,22733
1551.88,1.332338,481832,22416
1554.95,1.328457,474989,22296
1558.02,1.328326,467818,21966
1561.08,1.332100,460730,21446
1564.15,1.329614,454170,21262
1568.22,1.327497,444181,20896
1571.27,1.331012,436947,20390
1574.32,1.338287,429598,19714
1577.36,1.328951,422039,19788
1580.4,1.328362,414375,19455
1583.43,1.329238,406354,19040
1586.46,1.330561,398475,18614
1590.49,1.329500,388982,18215
1593.51,1.326891,380708,17935
1596.53,1.317230,372727,17954
1599.54,1.323140,365060,17347
1602.55,1.330170,357543,16717
1605.55,1.325799,349495,16506
1608.55,1.323811,341154,16186
1612.54,1.314869,330877,16025
1615.53,1.323701,322904,15324
1618.51,1.321598,315116,15027
1621.49,1.316890,307217,14810
1624.47,1.320639,299481,14313
1627.44,1.315653,292112,14122
1630.41,1.296871,284245,14349
1634.36,1.314089,274079,13298
1637.32,1.322161,266916,12712
1640.27,1.310350,259612,12705
1643.22,1.299041,251804,12648
1646.16,1.322018,244348,11641
1649.1,1.298037,236703,11917
1652.04,1.302385,228171,11373
1655.95,1.287665,215408,11107
1658.88,1.285251,204937,10626
1661.8,1.280707,193395,10133
1664.72,1.254225,179728,10009
1667.63,1.242526,163642,9362
1670.54,1.228465,146312,8646
1673.44,1.202510,128451,8058
1677.31,1.172162,105080,7069
1680.21,1.149591,88906,6300
1683.1,1.120904,75033,5680
1685.99,1.108744,63520,4945
1688.87,1.115190,53714,4120
1691.75,1.117142,45653,3486
1694.62,1.186388,39137,2548
1697.49,1.064715,33776,2910
1701.31,1.175244,28175,1882