Folder: textile_sorting_NIRSCAN_/ML/samples/unknown (part 7)

File: Column 1_078038_20241121_164226.csv
Method:,Column 1,,
Host Date-Time:,21/11/24 @ 16:42:26,,
Header Version:,1,,
System Temp (C):,30.46,,
Detector Temp (C):,25.28,,
Humidity (%):,5.85,,
Lamp PD:,3811,,
Shift Vector Coefficients:,-10.5391,0.0761263,-0.000134223,,
Pixel to Wavelength Coefficients:,1775.68,-0.916766,-0.000235065,,
Serial Number:,5510004,,
Scan Config Name:,Column 1,,
Scan Config Type:,Slew,,
Section 1,,
Start wavelength (nm):,900,,
End wavelength (nm):,1700,,
Pattern Pixel Width (nm):,   7.03,,,,
Exposure (ms):,  0.635,,,,
Digital Resolution:,228,,
Num Repeats:,6,,
PGA Gain:,64,,
Total Measurement Time in sec:,  2.706,,
Wavelength (nm),Absorbance (AU),Reference Signal (unitless),Sample Signal (unitless)
901.51,1.315956,108485,5241
905.376,1.330529,121306,5667
909.237,1.329637,131909,6175
913.095,1.316451,143299,6915
916.948,1.310149,156982,7686
922.079,1.310490,179937,8803
925.923,1.306971,200504,9889
929.762,1.320986,222660,10633
933.597,1.322120,244426,11642
937.427,1.303293,263972,13130
941.254,1.307027,281845,13899
945.076,1.311515,297271,14509
950.165,1.310919,315605,15425
953.978,1.302182,328029,16358
957.786,1.306744,340470,16801
961.59,1.309868,352317,17261
965.389,1.321651,363056,17311
969.185,1.312256,373162,18182
972.976,1.296729,382632,19322
976.763,1.310981,391202,19117
981.806,1.309833,400190,19608
985.583,1.309483,406088,19913
989.355,1.303794,410162,20378
993.124,1.309172,412868,20260
996.888,1.311388,414263,20225
1000.65,1.316020,415476,20069
1004.4,1.309111,415479,20391
1009.41,1.312993,414358,20155
1013.15,1.310840,412923,20185
1016.89,1.306580,411526,20315
1020.63,1.307583,409066,20147
1024.36,1.315155,406777,19688
1028.09,1.305550,404427,20012
1031.82,1.313561,401911,19524
1036.78,1.320732,398410,19037
1040.49,1.305176,396204,19622
1044.2,1.308649,394236,19369
1047.91,1.313985,392042,19026
1051.61,1.309062,389823,19134
1055.31,1.319627,388234,18598
1059,1.312588,387599,18871
1063.92,1.309431,386688,18964
1067.61,1.317770,386598,18599
1071.29,1.308604,387377,19034
1074.96,1.325985,388536,18342
1078.63,1.320364,389855,18644
1082.3,1.303831,391215,19435
1085.96,1.316815,393215,18959
1090.84,1.320909,396270,18927
1094.49,1.318883,398760,19135
1098.14,1.318880,400987,19242
1101.79,1.302493,403477,20106
1105.43,1.320490,406116,19416
1109.06,1.320307,407701,19500
1112.7,1.321710,409859,19540
1117.53,1.319016,412494,19788
1121.15,1.317575,414909,19970
1124.77,1.315315,416559,20154
1128.38,1.317303,418532,20157
1131.99,1.320289,419956,20087
1135.6,1.315797,421946,20392
1139.2,1.327780,423881,19928
1143.99,1.323335,426786,20271
1147.58,1.320761,428617,20479
1151.17,1.331020,431169,20120
1154.75,1.315491,433579,20969
1158.33,1.322501,436264,20761
1161.91,1.327906,439132,20639
1165.48,1.324227,442389,20969
1169.04,1.324123,446101,21150
1173.79,1.314329,451929,21915
1177.34,1.320772,456026,21788
1180.9,1.319558,461306,22102
1184.44,1.316762,467657,22551
1187.99,1.315668,473969,22913
1191.52,1.321029,479856,22913
1195.06,1.323798,487372,23124
1199.76,1.328131,497347,23363
1203.29,1.315113,504311,24411
1206.81,1.329238,511507,23967
1210.33,1.321921,519078,24735
1213.84,1.324979,527163,24944
1217.35,1.326775,534208,25173
1220.85,1.325535,540472,25541
1225.51,1.332457,549929,25577
1229.01,1.326821,556888,26239
1232.5,1.323250,562180,26707
1235.98,1.327688,567975,26708
1239.46,1.324241,574815,27245
1242.94,1.318798,582782,27971
1246.41,1.327736,591476,27810
1251.03,1.325777,604016,28528
1254.5,1.324184,612289,29025
1257.96,1.327274,619125,29141
1261.41,1.328730,624551,29298
1264.86,1.330437,629900,29433
1268.31,1.327934,634345,29812
1271.75,1.327309,638574,30054
1276.33,1.331229,642499,29967
1279.76,1.328568,645905,30311
1283.19,1.331084,648307,30248
1286.61,1.331181,650446,30341
1290.03,1.330221,652132,30487
1293.44,1.331416,653907,30486
1296.85,1.330406,655963,30653
1301.39,1.337085,657349,30249
1304.8,1.332198,657558,30601
1308.19,1.331640,658515,30685
1311.58,1.337758,658804,30269
1314.97,1.336605,659011,30359
1318.36,1.333224,658272,30562
1321.73,1.331767,658022,30653
1326.23,1.340672,657870,30024
1329.6,1.332084,656482,30559
1332.97,1.334535,654926,30315
1336.33,1.334269,653727,30278
1339.69,1.332348,652497,30355
1343.04,1.328570,649913,30499
1346.39,1.330471,647671,30261
1349.73,1.335236,645338,29823
1354.18,1.329580,641175,30019
1357.52,1.331327,638376,29768
1360.85,1.331504,635805,29636
1364.17,1.336364,633413,29196
1367.49,1.330873,631026,29456
1370.81,1.331305,628050,29288
1374.12,1.335984,625034,28835
1378.54,1.328450,620272,29116
1381.84,1.333661,616892,28612
1385.14,1.328442,613613,28804
1388.43,1.327973,611526,28737
1391.72,1.327980,610663,28696
1395.01,1.327808,610634,28706
1398.29,1.332197,611700,28467
1402.66,1.328390,614051,28828
1405.93,1.332660,616268,28649
1409.2,1.334478,617795,28600
1412.46,1.329008,618872,29013
1415.72,1.336414,619795,28565
1418.98,1.330745,620495,28973
1422.23,1.331204,621087,28970
1426.56,1.335366,621375,28707
1429.8,1.332549,621616,28905
1433.04,1.333178,622129,28887
1436.27,1.339713,621526,28428
1439.5,1.327862,621113,29195
1442.72,1.336200,620921,28631
1445.94,1.335305,620270,28660
1450.23,1.336489,618860,28517
1453.44,1.329412,617697,28931
1456.64,1.338933,616264,28238
1459.85,1.337119,614413,28271
1463.04,1.336089,612307,28241
1466.24,1.340403,610032,27858
1469.43,1.331051,607345,28339
1473.67,1.341331,603789,27514
1476.85,1.338942,601175,27546
1480.02,1.340650,597737,27281
1483.19,1.338770,594479,27250
1486.36,1.341844,591232,26910
1489.52,1.341215,587853,26795
1492.68,1.341667,583875,26586
1496.89,1.336408,578062,26642
1500.03,1.342908,574159,26069
1503.18,1.340902,570285,26013
1506.32,1.342237,565444,25713
1509.45,1.339560,560571,25649
1512.58,1.335678,555821,25660
1515.71,1.338717,550344,25230
1519.87,1.341134,543983,24800
1522.99,1.333354,538764,25006
1526.1,1.342131,533692,24275
1529.21,1.344828,527902,23863
1532.32,1.339832,521886,23864
1535.42,1.337093,515888,23739
1538.51,1.341080,509987,23253
1541.6,1.343736,503936,22837
1545.72,1.332496,494694,23006
1548.8,1.340782,488378,22283
1551.88,1.341164,481832,21965
1554.95,1.335685,474989,21928
1558.02,1.335643,467818,21599
1561.08,1.337295,460730,21191
1564.15,1.338738,454170,20820
1568.22,1.334220,444181,20575
1571.27,1.335680,436947,20172
1574.32,1.338376,429598,19710
1577.36,1.331460,422039,19674
1580.4,1.339006,414375,18984
1583.43,1.336970,406354,18704
1586.46,1.330375,398475,18622
1590.49,1.346495,388982,17516
1593.51,1.330563,380708,17784
1596.53,1.335560,372727,17212
1599.54,1.349006,365060,16344
1602.55,1.322445,357543,17017
1605.55,1.321141,349495,16684
1608.55,1.332155,341154,15878
1612.54,1.328943,330877,15514
1615.53,1.337025,322904,14861
1618.51,1.318804,315116,15124
1621.49,1.332291,307217,14294
1624.47,1.336648,299481,13795
1627.44,1.326647,292112,13769
1630.41,1.326167,284245,13413
1634.36,1.327252,274079,12901
1637.32,1.327108,266916,12568
1640.27,1.328464,259612,12186
1643.22,1.319283,251804,12072
1646.16,1.317897,244348,11752
1649.1,1.337176,236703,10890
1652.04,1.318212,228171,10966
1655.95,1.314229,215408,10448
1658.88,1.314190,204937,9941
1661.8,1.316284,193395,9336
1664.72,1.330595,179728,8395
1667.63,1.346486,163642,7369
1670.54,1.331050,146312,6827
1673.44,1.334805,128451,5942
1677.31,1.363604,105080,4549
1680.21,1.381082,88906,3697
1683.1,1.340085,75033,3429
1685.99,1.310989,63520,3104
1688.87,1.300497,53714,2689
1691.75,1.315470,45653,2208
1694.62,1.339977,39137,1789
1697.49,1.323675,33776,1603
1701.31,1.507360,28175,876

File: Column 1_078043_20241121_164241.csv
Method:,Column 1,,
Host Date-Time:,21/11/24 @ 16:42:41,,
Header Version:,1,,
System Temp (C):,30.64,,
Detector Temp (C):,25.45,,
Humidity (%):,5.6,,
Lamp PD:,3810,,
Shift Vector Coefficients:,-10.5391,0.0761263,-0.000134223,,
Pixel to Wavelength Coefficients:,1775.68,-0.916766,-0.000235065,,
Serial Number:,5510004,,
Scan Config Name:,Column 1,,
Scan Config Type:,Slew,,
Section 1,,
Start wavelength (nm):,900,,
End wavelength (nm):,1700,,
Pattern Pixel Width (nm):,   7.03,,,,
Exposure (ms):,  0.635,,,,
Digital Resolution:,228,,
Num Repeats:,6,,
PGA Gain:,64,,
Total Measurement Time in sec:,  2.732,,
Wavelength (nm),Absorbance (AU),Reference Signal (unitless),Sample Signal (unitless)
901.51,1.317034,108485,5228
905.376,1.296280,121306,6132
909.237,1.319970,131909,6314
913.095,1.302545,143299,7140
916.948,1.307895,156982,7726
922.079,1.299914,179937,9020
925.923,1.315128,200504,9705
929.762,1.304988,222660,11032
933.597,1.313880,244426,11865
937.427,1.305183,263972,13073
941.254,1.306746,281845,13908
945.076,1.314278,297271,14417
950.165,1.309120,315605,15489
953.978,1.310221,328029,16058
957.786,1.313832,340470,16529
961.59,1.305636,352317,17430
965.389,1.315622,363056,17553
969.185,1.309423,373162,18301
972.976,1.310220,382632,18731
976.763,1.311891,391202,19077
981.806,1.310165,400190,19593
985.583,1.310925,406088,19847
989.355,1.312860,410162,19957
993.124,1.294524,412868,20955
996.888,1.300321,414263,20747
1000.65,1.305819,415476,20546
1004.4,1.313284,415479,20196
1009.41,1.300420,414358,20747
1013.15,1.309444,412923,20250
1016.89,1.305897,411526,20347
1020.63,1.309831,409066,20043
1024.36,1.313328,406777,19771
1028.09,1.308927,404427,19857
1031.82,1.311077,401911,19636
1036.78,1.307543,398410,19624
1040.49,1.305331,396204,19615
1044.2,1.310379,394236,19292
1047.91,1.308744,392042,19257
1051.61,1.319281,389823,18689
1055.31,1.317717,388234,18680
1059,1.315011,387599,18766
1063.92,1.319978,386688,18509
1067.61,1.321593,386598,18436
1071.29,1.304426,387377,19218
1074.96,1.311021,388536,18985
1078.63,1.319294,389855,18690
1082.3,1.325361,391215,18495
1085.96,1.312235,393215,19160
1090.84,1.310906,396270,19368
1094.49,1.312708,398760,19409
1098.14,1.312095,400987,19545
1101.79,1.304528,403477,20012
1105.43,1.317326,406116,19558
1109.06,1.307232,407701,20096
1112.7,1.328362,409859,19243
1117.53,1.318709,412494,19802
1121.15,1.324303,414909,19663
1124.77,1.322069,416559,19843
1128.38,1.321285,418532,19973
1131.99,1.317552,419956,20214
1135.6,1.314118,421946,20471
1139.2,1.322883,423881,20154
1143.99,1.324386,426786,20222
1147.58,1.321759,428617,20432
1151.17,1.314397,431169,20905
1154.75,1.316673,433579,20912
1158.33,1.317220,436264,21015
1161.91,1.317387,439132,21145
1165.48,1.323213,442389,21018
1169.04,1.318715,446101,21415
1173.79,1.311366,451929,22065
1177.34,1.318922,456026,21881
1180.9,1.319990,461306,22080
1184.44,1.322695,467657,22245
1187.99,1.314192,473969,22991
1191.52,1.323062,479856,22806
1195.06,1.320803,487372,23284
1199.76,1.323472,497347,23615
1203.29,1.331520,504311,23506
1206.81,1.321248,511507,24412
1210.33,1.325093,519078,24555
1213.84,1.323935,527163,25004
1217.35,1.325432,534208,25251
1220.85,1.323940,540472,25635
1225.51,1.330340,549929,25702
1229.01,1.318964,556888,26718
1232.5,1.325059,562180,26596
1235.98,1.321889,567975,27067
1239.46,1.326591,574815,27098
1242.94,1.322901,582782,27708
1246.41,1.327330,591476,27836
1251.03,1.324865,604016,28588
1254.5,1.324648,612289,28994
1257.96,1.327199,619125,29146
1261.41,1.328300,624551,29327
1264.86,1.323325,629900,29919
1268.31,1.328912,634345,29745
1271.75,1.323511,638574,30318
1276.33,1.325185,642499,30387
1279.76,1.327867,645905,30360
1283.19,1.330367,648307,30298
1286.61,1.333276,650446,30195
1290.03,1.332048,652132,30359
1293.44,1.333429,653907,30345
1296.85,1.333877,655963,30409
1301.39,1.336138,657349,30315
1304.8,1.334889,657558,30412
1308.19,1.335150,658515,30438
1311.58,1.330079,658804,30809
1314.97,1.328344,659011,30942
1318.36,1.334576,658272,30467
1321.73,1.333386,658022,30539
1326.23,1.332319,657870,30607
1329.6,1.336225,656482,30269
1332.97,1.335008,654926,30282
1336.33,1.328329,653727,30695
1339.69,1.330963,652497,30452
1343.04,1.328271,649913,30520
1346.39,1.333973,647671,30018
1349.73,1.330054,645338,30181
1354.18,1.332673,641175,29806
1357.52,1.324667,638376,30228
1360.85,1.332899,635805,29541
1364.17,1.329033,633413,29693
1367.49,1.331154,631026,29437
1370.81,1.333371,628050,29149
1374.12,1.328310,625034,29349
1378.54,1.323777,620272,29431
1381.84,1.332115,616892,28714
1385.14,1.329106,613613,28760
1388.43,1.330079,611526,28598
1391.72,1.329694,610663,28583
1395.01,1.329947,610634,28565
1398.29,1.323138,611700,29067
1402.66,1.334917,614051,28398
1405.93,1.332827,616268,28638
1409.2,1.333765,617795,28647
1412.46,1.334113,618872,28674
1415.72,1.332147,619795,28847
1418.98,1.332532,620495,28854
1422.23,1.331444,621087,28954
1426.56,1.331600,621375,28957
1429.8,1.337962,621616,28547
1433.04,1.334262,622129,28815
1436.27,1.331481,621526,28972
1439.5,1.330578,621113,29013
1442.72,1.332590,620921,28870
1445.94,1.332074,620270,28874
1450.23,1.335895,618860,28556
1453.44,1.331564,617697,28788
1456.64,1.339626,616264,28193
1459.85,1.341970,614413,27957
1463.04,1.337630,612307,28141
1466.24,1.335181,610032,28195
1469.43,1.336262,607345,28001
1473.67,1.336825,603789,27801
1476.85,1.332200,601175,27977
1480.02,1.340157,597737,27312
1483.19,1.329062,594479,27866
1486.36,1.330079,591232,27649
1489.52,1.343637,587853,26646
1492.68,1.334426,583875,27033
1496.89,1.342465,578062,26273
1500.03,1.340416,574159,26219
1503.18,1.339801,570285,26079
1506.32,1.343641,565444,25630
1509.45,1.338968,560571,25684
1512.58,1.335408,555821,25676
1515.71,1.343477,550344,24955
1519.87,1.341081,543983,24803
1522.99,1.342357,538764,24493
1526.1,1.334506,533692,24705
1529.21,1.342831,527902,23973
1532.32,1.341455,521886,23775
1535.42,1.340306,515888,23564
1538.51,1.339607,509987,23332
1541.6,1.334870,503936,23308
1545.72,1.343740,494694,22418
1548.8,1.330840,488378,22799
1551.88,1.341244,481832,21961
1554.95,1.337988,474989,21812
1558.02,1.344336,467818,21171
1561.08,1.336231,460730,21243
1564.15,1.338467,454170,20833
1568.22,1.343695,444181,20131
1571.27,1.329969,436947,20439
1574.32,1.342049,429598,19544
1577.36,1.330666,422039,19710
1580.4,1.332557,414375,19268
1583.43,1.347261,406354,18266
1586.46,1.332854,398475,18516
1590.49,1.331532,388982,18130
1593.51,1.332840,380708,17691
1596.53,1.342837,372727,16926
1599.54,1.337624,365060,16778
1602.55,1.325159,357543,16911
1605.55,1.340816,349495,15945
1608.55,1.323355,341154,16203
1612.54,1.328579,330877,15527
1615.53,1.324013,322904,15313
1618.51,1.316684,315116,15198
1621.49,1.337949,307217,14109
1624.47,1.326504,299481,14121
1627.44,1.315653,292112,14122
1630.41,1.335825,284245,13118
1634.36,1.318356,274079,13168
1637.32,1.315549,266916,12907
1640.27,1.310145,259612,12711
1643.22,1.327564,251804,11844
1646.16,1.319637,244348,11705
1649.1,1.321048,236703,11302
1652.04,1.323512,228171,10833
1655.95,1.313730,215408,10460
1658.88,1.322438,204937,9754
1661.8,1.323366,193395,9185
1664.72,1.319310,179728,8616
1667.63,1.337331,163642,7526
1670.54,1.335205,146312,6762
1673.44,1.328708,128451,6026
1677.31,1.319866,105080,5031
1680.21,1.341583,88906,4049
1683.1,1.380124,75033,3127
1685.99,1.266984,63520,3435
1688.87,1.322867,53714,2554
1691.75,1.316258,45653,2204
1694.62,1.274107,39137,2082
1697.49,1.304853,33776,1674
1701.31,1.344354,28175,1275

File: Column 1_078045_20241121_164247.csv
Method:,Column 1,,
Host Date-Time:,21/11/24 @ 16:42:47,,
Header Version:,1,,
System Temp (C):,30.63,,
Detector Temp (C):,25.41,,
Humidity (%):,5.41,,
Lamp PD:,3810,,
Shift Vector Coefficients:,-10.5391,0.0761263,-0.000134223,,
Pixel to Wavelength Coefficients:,1775.68,-0.916766,-0.000235065,,
Serial Number:,5510004,,
Scan Config Name:,Column 1,,
Scan Config Type:,Slew,,
Section 1,,
Start wavelength (nm):,900,,
End wavelength (nm):,1700,,
Pattern Pixel Width (nm):,   7.03,,,,
Exposure (ms):,  0.635,,,,
Digital Resolution:,228,,
Num Repeats:,6,,
PGA Gain:,64,,
Total Measurement Time in sec:,  2.677,,
Wavelength (nm),Absorbance (AU),Reference Signal (unitless),Sample Signal (unitless)
901.51,1.312900,108485,5278
905.376,1.308272,121306,5965
909.237,1.304896,131909,6537
913.095,1.309597,143299,7025
916.948,1.324744,156982,7432
922.079,1.320016,179937,8612
925.923,1.309260,200504,9837
929.762,1.311213,222660,10875
933.597,1.307846,244426,12031
937.427,1.320223,263972,12628
941.254,1.310100,281845,13801
945.076,1.308681,297271,14604
950.165,1.312159,315605,15381
953.978,1.313206,328029,15948
957.786,1.317367,340470,16395
961.59,1.311102,352317,17212
965.389,1.312418,363056,17683
969.185,1.311135,373162,18229
972.976,1.309572,382632,18759
976.763,1.309122,391202,19199
981.806,1.309368,400190,19629
985.583,1.308721,406088,19948
989.355,1.315939,410162,19816
993.124,1.323644,412868,19596
996.888,1.311624,414263,20214
1000.65,1.310879,415476,20308
1004.4,1.309345,415479,20380
1009.41,1.320075,414358,19829
1013.15,1.315600,412923,19965
1016.89,1.303216,411526,20473
1020.63,1.307432,409066,20154
1024.36,1.315685,406777,19664
1028.09,1.308380,404427,19882
1031.82,1.321916,401911,19152
1036.78,1.308296,398410,19590
1040.49,1.306395,396204,19567
1044.2,1.322848,394236,18746
1047.91,1.319776,392042,18774
1051.61,1.310175,389823,19085
1055.31,1.309176,388234,19051
1059,1.313648,387599,18825
1063.92,1.314336,386688,18751
1067.61,1.318237,386598,18579
1071.29,1.309883,387377,18978
1074.96,1.315112,388536,18807
1078.63,1.308553,389855,19158
1082.3,1.314211,391215,18976
1085.96,1.319042,393215,18862
1090.84,1.321782,396270,18889
1094.49,1.322690,398760,18968
1098.14,1.314099,400987,19455
1101.79,1.320306,403477,19298
1105.43,1.313743,406116,19720
1109.06,1.322898,407701,19384
1112.7,1.318609,409859,19680
1117.53,1.326855,412494,19434
1121.15,1.317423,414909,19977
1124.77,1.331785,416559,19404
1128.38,1.321264,418532,19974
1131.99,1.322500,419956,19985
1135.6,1.316991,421946,20336
1139.2,1.322280,423881,20182
1143.99,1.317335,426786,20553
1147.58,1.321249,428617,20456
1151.17,1.333639,431169,19999
1154.75,1.324531,433579,20537
1158.33,1.323297,436264,20723
1161.91,1.312344,439132,21392
1165.48,1.319612,442389,21193
1169.04,1.321156,446101,21295
1173.79,1.311898,451929,22038
1177.34,1.323652,456026,21644
1180.9,1.316288,461306,22269
1184.44,1.324064,467657,22175
1187.99,1.325308,473969,22410
1191.52,1.315380,479856,23213
1195.06,1.322747,487372,23180
1199.76,1.320630,497347,23770
1203.29,1.329731,504311,23603
1206.81,1.321604,511507,24392
1210.33,1.326616,519078,24469
1213.84,1.328493,527163,24743
1217.35,1.325931,534208,25222
1220.85,1.326437,540472,25488
1225.51,1.327661,549929,25861
1229.01,1.326142,556888,26280
1232.5,1.329210,562180,26343
1235.98,1.323175,567975,26987
1239.46,1.324816,574815,27209
1242.94,1.324251,582782,27622
1246.41,1.324066,591476,28046
1251.03,1.322607,604016,28737
1254.5,1.329983,612289,28640
1257.96,1.328976,619125,29027
1261.41,1.328137,624551,29338
1264.86,1.331530,629900,29359
1268.31,1.325407,634345,29986
1271.75,1.323898,638574,30291
1276.33,1.328081,642499,30185
1279.76,1.328783,645905,30296
1283.19,1.332580,648307,30144
1286.61,1.325762,650446,30722
1290.03,1.334962,652132,30156
1293.44,1.333043,653907,30372
1296.85,1.332608,655963,30498
1301.39,1.334980,657349,30396
1304.8,1.335632,657558,30360
1308.19,1.336135,658515,30369
1311.58,1.339310,658804,30161
1314.97,1.335149,659011,30461
1318.36,1.331423,658272,30689
1321.73,1.337817,658022,30229
1326.23,1.333556,657870,30520
1329.6,1.340478,656482,29974
1332.97,1.334492,654926,30318
1336.33,1.329405,653727,30619
1339.69,1.335954,652497,30104
1343.04,1.327049,649913,30606
1346.39,1.330730,647671,30243
1349.73,1.330860,645338,30125
1354.18,1.329580,641175,30019
1357.52,1.327970,638376,29999
1360.85,1.332076,635805,29597
1364.17,1.327558,633413,29794
1367.49,1.325642,631026,29813
1370.81,1.328865,628050,29453
1374.12,1.351406,625034,27829
1378.54,1.333009,620272,28812
1381.84,1.325854,616892,29131
1385.14,1.332897,613613,28510
1388.43,1.331204,611526,28524
1391.72,1.329147,610663,28619
1395.01,1.327793,610634,28707
1398.29,1.333465,611700,28384
1402.66,1.327517,614051,28886
1405.93,1.336146,616268,28420
1409.2,1.330970,617795,28832
1412.46,1.334097,618872,28675
1415.72,1.338486,619795,28429
1418.98,1.332939,620495,28827
1422.23,1.338536,621087,28485
1426.56,1.337079,621375,28594
1429.8,1.329898,621616,29082
1433.04,1.331587,622129,28993
1436.27,1.337124,621526,28598
1439.5,1.337823,621113,28533
1442.72,1.334459,620921,28746
1445.94,1.332902,620270,28819
1450.23,1.339591,618860,28314
1453.44,1.340881,617697,28177
1456.64,1.334831,616264,28506
1459.85,1.339183,614413,28137
1463.04,1.342737,612307,27812
1466.24,1.336214,610032,28128
1469.43,1.338298,607345,27870
1473.67,1.339441,603789,27634
1476.85,1.335425,601175,27770
1480.02,1.340300,597737,27303
1483.19,1.340047,594479,27170
1486.36,1.332963,591232,27466
1489.52,1.345073,587853,26558
1492.68,1.342763,583875,26519
1496.89,1.341854,578062,26310
1500.03,1.337395,574159,26402
1503.18,1.338936,570285,26131
1506.32,1.339341,565444,25885
1509.45,1.343865,560571,25396
1512.58,1.342725,555821,25247
1515.71,1.343042,550344,24980
1519.87,1.341765,543983,24764
1522.99,1.342623,538764,24478
1526.1,1.343260,533692,24212
1529.21,1.340536,527902,24100
1532.32,1.338706,521886,23926
1535.42,1.338265,515888,23675
1538.51,1.340856,509987,23265
1541.6,1.334107,503936,23349
1545.72,1.340921,494694,22564
1548.8,1.340763,488378,22284
1551.88,1.336386,481832,22208
1554.95,1.338506,474989,21786
1558.02,1.337033,467818,21530
1561.08,1.341869,460730,20969
1564.15,1.343372,454170,20599
1568.22,1.336824,444181,20452
1571.27,1.331800,436947,20353
1574.32,1.335367,429598,19847
1577.36,1.332964,422039,19606
1580.4,1.343790,414375,18776
1583.43,1.337946,406354,18662
1586.46,1.335394,398475,18408
1590.49,1.335623,388982,17960
1593.51,1.337182,380708,17515
1596.53,1.328775,372727,17483
1599.54,1.330538,365060,17054
1602.55,1.327115,357543,16835
1605.55,1.334140,349495,16192
1608.55,1.341164,341154,15552
1612.54,1.332456,330877,15389
1615.53,1.326488,322904,15226
1618.51,1.339505,315116,14420
1621.49,1.322409,307217,14623
1624.47,1.331359,299481,13964
1627.44,1.321848,292112,13922
1630.41,1.328472,284245,13342
1634.36,1.322465,274079,13044
1637.32,1.314507,266916,12938
1640.27,1.301519,259612,12966
1643.22,1.335969,251804,11617
1646.16,1.341046,244348,11142
1649.1,1.308661,236703,11629
1652.04,1.309198,228171,11196
1655.95,1.307383,215408,10614
1658.88,1.320660,204937,9794
1661.8,1.329797,193395,9050
1664.72,1.326169,179728,8481
1667.63,1.334914,163642,7568
1670.54,1.326305,146312,6902
1673.44,1.297699,128451,6472
1677.31,1.345559,105080,4742
1680.21,1.351236,88906,3960
1683.1,1.335925,75033,3462
1685.99,1.311269,63520,3102
1688.87,1.308319,53714,2641
1691.75,1.293046,45653,2325
1694.62,1.326356,39137,1846
1697.49,1.337716,33776,1552
1701.31,1.380196,28175,1174