Folder: textile_sorting_NIRSCAN_/ML/samples/unknown (part 120)

File: Column 1_078892_20241121_172713.csv
Method:,Column 1,,
Host Date-Time:,21/11/24 @ 17:27:13,,
Header Version:,1,,
System Temp (C):,37.12,,
Detector Temp (C):,36.28,,
Humidity (%):,0.39,,
Lamp PD:,3796,,
Shift Vector Coefficients:,-10.5391,0.0761263,-0.000134223,,
Pixel to Wavelength Coefficients:,1775.68,-0.916766,-0.000235065,,
Serial Number:,5510004,,
Scan Config Name:,Column 1,,
Scan Config Type:,Slew,,
Section 1,,
Start wavelength (nm):,900,,
End wavelength (nm):,1700,,
Pattern Pixel Width (nm):,   7.03,,,,
Exposure (ms):,  0.635,,,,
Digital Resolution:,228,,
Num Repeats:,6,,
PGA Gain:,64,,
Total Measurement Time in sec:,  2.724,,
Wavelength (nm),Absorbance (AU),Reference Signal (unitless),Sample Signal (unitless)
901.51,1.303700,108485,5391
905.376,1.361660,121306,5275
909.237,1.342630,131909,5993
913.095,1.328939,143299,6719
916.948,1.335153,156982,7256
922.079,1.333278,179937,8353
925.923,1.317956,200504,9642
929.762,1.320537,222660,10644
933.597,1.327110,244426,11509
937.427,1.315367,263972,12770
941.254,1.308278,281845,13859
945.076,1.320895,297271,14199
950.165,1.322474,315605,15020
953.978,1.309950,328029,16068
957.786,1.314621,340470,16499
961.59,1.312239,352317,17167
965.389,1.314140,363056,17613
969.185,1.305501,373162,18467
972.976,1.308046,382632,18825
976.763,1.298795,391202,19661
981.806,1.313347,400190,19450
985.583,1.309462,406088,19914
989.355,1.303943,410162,20371
993.124,1.311881,412868,20134
996.888,1.311388,414263,20225
1000.65,1.303226,415476,20669
1004.4,1.303503,415479,20656
1009.41,1.309922,414358,20298
1013.15,1.311831,412923,20139
1016.89,1.312933,411526,20020
1020.63,1.302248,409066,20396
1024.36,1.310940,406777,19880
1028.09,1.315094,404427,19577
1031.82,1.318280,401911,19313
1036.78,1.305555,398410,19714
1040.49,1.315523,396204,19160
1044.2,1.309345,394236,19338
1047.91,1.305285,392042,19411
1051.61,1.311315,389823,19035
1055.31,1.308310,388234,19089
1059,1.306350,387599,19144
1063.92,1.312049,386688,18850
1067.61,1.315674,386598,18689
1071.29,1.323292,387377,18401
1074.96,1.300333,388536,19458
1078.63,1.308100,389855,19178
1082.3,1.309567,391215,19180
1085.96,1.307344,393215,19377
1090.84,1.306356,396270,19572
1094.49,1.314300,398760,19338
1098.14,1.318046,400987,19279
1101.79,1.308693,403477,19821
1105.43,1.314162,406116,19701
1109.06,1.317576,407701,19623
1112.7,1.309503,409859,20097
1117.53,1.311854,412494,20117
1121.15,1.317771,414909,19961
1124.77,1.315552,416559,20143
1128.38,1.312141,418532,20398
1131.99,1.311196,419956,20512
1135.6,1.324183,421946,20002
1139.2,1.320647,423881,20258
1143.99,1.315143,426786,20657
1147.58,1.317233,428617,20646
1151.17,1.307309,431169,21249
1154.75,1.317837,433579,20856
1158.33,1.301612,436264,21784
1161.91,1.316587,439132,21184
1165.48,1.314782,442389,21430
1169.04,1.311734,446101,21762
1173.79,1.310619,451929,22103
1177.34,1.314735,456026,22093
1180.9,1.319715,461306,22094
1184.44,1.314802,467657,22653
1187.99,1.319093,473969,22733
1191.52,1.316222,479856,23168
1195.06,1.316442,487372,23519
1199.76,1.318062,497347,23911
1203.29,1.317039,504311,24303
1206.81,1.321569,511507,24394
1210.33,1.322377,519078,24709
1213.84,1.319684,527163,25250
1217.35,1.313406,534208,25960
1220.85,1.318351,540472,25967
1225.51,1.323683,549929,26099
1229.01,1.321115,556888,26586
1232.5,1.320220,562180,26894
1235.98,1.323287,567975,26980
1239.46,1.316610,574815,27728
1242.94,1.324125,582782,27630
1246.41,1.320212,591476,28296
1251.03,1.319640,604016,28934
1254.5,1.319881,612289,29314
1257.96,1.325979,619125,29228
1261.41,1.323558,624551,29649
1264.86,1.330467,629900,29431
1268.31,1.322160,634345,30211
1271.75,1.325564,638574,30175
1276.33,1.320975,642499,30683
1279.76,1.324305,645905,30610
1283.19,1.323583,648307,30775
1286.61,1.331296,650446,30333
1290.03,1.329637,652132,30528
1293.44,1.325361,653907,30914
1296.85,1.323129,655963,31171
1301.39,1.329104,657349,30810
1304.8,1.327231,657558,30953
1308.19,1.328959,658515,30875
1311.58,1.328559,658804,30917
1314.97,1.331076,659011,30748
1318.36,1.333536,658272,30540
1321.73,1.327945,658022,30924
1326.23,1.326989,657870,30985
1329.6,1.327728,656482,30867
1332.97,1.330201,654926,30619
1336.33,1.333495,653727,30332
1339.69,1.334457,652497,30208
1343.04,1.329011,649913,30468
1346.39,1.327325,647671,30481
1349.73,1.333956,645338,29911
1354.18,1.326725,641175,30217
1357.52,1.325948,638376,30139
1360.85,1.322182,635805,30279
1364.17,1.328112,633413,29756
1367.49,1.326809,631026,29733
1370.81,1.326453,628050,29617
1374.12,1.326023,625034,29504
1378.54,1.326753,620272,29230
1381.84,1.322616,616892,29349
1385.14,1.322452,613613,29204
1388.43,1.324496,611526,28968
1391.72,1.322655,610663,29050
1395.01,1.324778,610634,28907
1398.29,1.328445,611700,28714
1402.66,1.324073,614051,29116
1405.93,1.327372,616268,29000
1409.2,1.327235,617795,29081
1412.46,1.328410,618872,29053
1415.72,1.324270,619795,29375
1418.98,1.328189,620495,29144
1422.23,1.329633,621087,29075
1426.56,1.328611,621375,29157
1429.8,1.330212,621616,29061
1433.04,1.330241,622129,29083
1436.27,1.331016,621526,29003
1439.5,1.330503,621113,29018
1442.72,1.332966,620921,28845
1445.94,1.329779,620270,29027
1450.23,1.333196,618860,28734
1453.44,1.332757,617697,28709
1456.64,1.331159,616264,28748
1459.85,1.328149,614413,28861
1463.04,1.334554,612307,28341
1466.24,1.335442,610032,28178
1469.43,1.332248,607345,28261
1473.67,1.331268,603789,28159
1476.85,1.332743,601175,27942
1480.02,1.327866,597737,28096
1483.19,1.337942,594479,27302
1486.36,1.329890,591232,27661
1489.52,1.332026,587853,27368
1492.68,1.341569,583875,26592
1496.89,1.335756,578062,26682
1500.03,1.333253,574159,26655
1503.18,1.337940,570285,26191
1506.32,1.334835,565444,26155
1509.45,1.333657,560571,26000
1512.58,1.334765,555821,25714
1515.71,1.334452,550344,25479
1519.87,1.333720,543983,25227
1522.99,1.335286,538764,24895
1526.1,1.339687,533692,24412
1529.21,1.335609,527902,24375
1532.32,1.330631,521886,24375
1535.42,1.331368,515888,24054
1538.51,1.334702,509987,23597
1541.6,1.338388,503936,23120
1545.72,1.345312,494694,22337
1548.8,1.336342,488378,22512
1551.88,1.327655,481832,22659
1554.95,1.329822,474989,22226
1558.02,1.340415,467818,21363
1561.08,1.332931,460730,21405
1564.15,1.330821,454170,21203
1568.22,1.336612,444181,20462
1571.27,1.331630,436947,20361
1574.32,1.329046,429598,20138
1577.36,1.334450,422039,19539
1580.4,1.327025,414375,19515
1583.43,1.336042,406354,18744
1586.46,1.320347,398475,19057
1590.49,1.324121,388982,18442
1593.51,1.324620,380708,18029
1596.53,1.328601,372727,17490
1599.54,1.323516,365060,17332
1602.55,1.325930,357543,16881
1605.55,1.325904,349495,16502
1608.55,1.326152,341154,16099
1612.54,1.326960,330877,15585
1615.53,1.317427,322904,15547
1618.51,1.326306,315116,14865
1621.49,1.322171,307217,14631
1624.47,1.317796,299481,14407
1627.44,1.317194,292112,14072
1630.41,1.313499,284245,13810
1634.36,1.306610,274079,13529
1637.32,1.308673,266916,13113
1640.27,1.323855,259612,12316
1643.22,1.312608,251804,12259
1646.16,1.303826,244348,12139
1649.1,1.326034,236703,11173
1652.04,1.310013,228171,11175
1655.95,1.296593,215408,10881
1658.88,1.289233,204937,10529
1661.8,1.277675,193395,10204
1664.72,1.277212,179728,9493
1667.63,1.245272,163642,9303
1670.54,1.230479,146312,8606
1673.44,1.216031,128451,7811
1677.31,1.167153,105080,7151
1680.21,1.149315,88906,6304
1683.1,1.107429,75033,5859
1685.99,1.137142,63520,4632
1688.87,1.153631,53714,3771
1691.75,1.087295,45653,3734
1694.62,1.144190,39137,2808
1697.49,1.157171,33776,2352
1701.31,1.160052,28175,1949

File: Column 1_078893_20241121_172716.csv
Method:,Column 1,,
Host Date-Time:,21/11/24 @ 17:27:16,,
Header Version:,1,,
System Temp (C):,37.2,,
Detector Temp (C):,36.29,,
Humidity (%):,0.43,,
Lamp PD:,3796,,
Shift Vector Coefficients:,-10.5391,0.0761263,-0.000134223,,
Pixel to Wavelength Coefficients:,1775.68,-0.916766,-0.000235065,,
Serial Number:,5510004,,
Scan Config Name:,Column 1,,
Scan Config Type:,Slew,,
Section 1,,
Start wavelength (nm):,900,,
End wavelength (nm):,1700,,
Pattern Pixel Width (nm):,   7.03,,,,
Exposure (ms):,  0.635,,,,
Digital Resolution:,228,,
Num Repeats:,6,,
PGA Gain:,64,,
Total Measurement Time in sec:,  2.730,,
Wavelength (nm),Absorbance (AU),Reference Signal (unitless),Sample Signal (unitless)
901.51,1.314384,108485,5260
905.376,1.343994,121306,5494
909.237,1.333523,131909,6120
913.095,1.320362,143299,6853
916.948,1.306604,156982,7749
922.079,1.323510,179937,8543
925.923,1.303602,200504,9966
929.762,1.319234,222660,10676
933.597,1.335530,244426,11288
937.427,1.307882,263972,12992
941.254,1.317143,281845,13579
945.076,1.316482,297271,14344
950.165,1.324735,315605,14942
953.978,1.310979,328029,16030
957.786,1.316230,340470,16438
961.59,1.308336,352317,17322
965.389,1.308092,363056,17860
969.185,1.309826,373162,18284
972.976,1.310359,382632,18725
976.763,1.306934,391202,19296
981.806,1.313793,400190,19430
985.583,1.306441,406088,20053
989.355,1.303623,410162,20386
993.124,1.306586,412868,20381
996.888,1.309695,414263,20304
1000.65,1.310195,415476,20340
1004.4,1.301657,415479,20744
1009.41,1.304522,414358,20552
1013.15,1.304348,412923,20489
1016.89,1.309153,411526,20195
1020.63,1.302121,409066,20402
1024.36,1.311815,406777,19840
1028.09,1.298852,404427,20323
1031.82,1.311033,401911,19638
1036.78,1.318388,398410,19140
1040.49,1.306306,396204,19571
1044.2,1.304787,394236,19542
1047.91,1.304837,392042,19431
1051.61,1.307566,389823,19200
1055.31,1.303356,388234,19308
1059,1.307645,387599,19087
1063.92,1.312188,386688,18844
1067.61,1.312087,386598,18844
1071.29,1.314901,387377,18760
1074.96,1.304324,388536,19280
1078.63,1.306337,389855,19256
1082.3,1.305488,391215,19361
1085.96,1.311193,393215,19206
1090.84,1.306534,396270,19564
1094.49,1.310967,398760,19487
1098.14,1.311584,400987,19568
1101.79,1.320802,403477,19276
1105.43,1.317592,406116,19546
1109.06,1.314775,407701,19750
1112.7,1.315158,409859,19837
1117.53,1.304979,412494,20438
1121.15,1.318206,414909,19941
1124.77,1.316027,416559,20121
1128.38,1.317152,418532,20164
1131.99,1.310603,419956,20540
1135.6,1.315052,421946,20427
1139.2,1.308596,423881,20828
1143.99,1.313758,426786,20723
1147.58,1.314884,428617,20758
1151.17,1.311478,431169,21046
1154.75,1.318233,433579,20837
1158.33,1.316642,436264,21043
1161.91,1.321681,439132,20937
1165.48,1.324662,442389,20948
1169.04,1.319263,446101,21388
1173.79,1.320114,451929,21625
1177.34,1.313675,456026,22147
1180.9,1.313664,461306,22404
1184.44,1.317166,467657,22530
1187.99,1.320260,473969,22672
1191.52,1.322187,479856,22852
1195.06,1.309954,487372,23873
1199.76,1.320850,497347,23758
1203.29,1.317611,504311,24271
1206.81,1.317352,511507,24632
1210.33,1.322219,519078,24718
1213.84,1.320682,527163,25192
1217.35,1.319470,534208,25600
1220.85,1.342757,540472,24548
1225.51,1.325667,549929,25980
1229.01,1.320919,556888,26598
1232.5,1.333168,562180,26104
1235.98,1.323094,567975,26992
1239.46,1.320353,574815,27490
1242.94,1.324361,582782,27615
1246.41,1.319216,591476,28361
1251.03,1.319940,604016,28914
1254.5,1.326826,612289,28849
1257.96,1.328064,619125,29088
1261.41,1.327324,624551,29393
1264.86,1.322904,629900,29948
1268.31,1.325291,634345,29994
1271.75,1.324242,638574,30267
1276.33,1.320338,642499,30728
1279.76,1.324022,645905,30630
1283.19,1.325223,648307,30659
1286.61,1.320856,650446,31071
1290.03,1.326349,652132,30760
1293.44,1.327855,653907,30737
1296.85,1.326794,655963,30909
1301.39,1.326701,657349,30981
1304.8,1.328848,657558,30838
1308.19,1.329959,658515,30804
1311.58,1.329628,658804,30841
1314.97,1.325518,659011,31144
1318.36,1.324864,658272,31156
1321.73,1.330183,658022,30765
1326.23,1.333769,657870,30505
1329.6,1.327686,656482,30870
1332.97,1.330244,654926,30616
1336.33,1.327184,653727,30776
1339.69,1.327893,652497,30668
1343.04,1.324657,649913,30775
1346.39,1.329196,647671,30350
1349.73,1.326357,645338,30439
1354.18,1.327660,641175,30152
1357.52,1.322746,638376,30362
1360.85,1.327333,635805,29922
1364.17,1.327966,633413,29766
1367.49,1.323999,631026,29926
1370.81,1.319370,628050,30104
1374.12,1.326082,625034,29500
1378.54,1.326635,620272,29238
1381.84,1.326928,616892,29059
1385.14,1.328050,613613,28830
1388.43,1.324332,611526,28979
1391.72,1.326319,610663,28806
1395.01,1.319195,610634,29281
1398.29,1.320353,611700,29254
1402.66,1.319636,614051,29415
1405.93,1.329067,616268,28887
1409.2,1.336198,617795,28487
1412.46,1.324615,618872,29308
1415.72,1.333187,619795,28778
1418.98,1.327534,620495,29188
1422.23,1.333971,621087,28786
1426.56,1.332621,621375,28889
1429.8,1.328288,621616,29190
1433.04,1.328468,622129,29202
1436.27,1.329671,621526,29093
1439.5,1.330758,621113,29001
1442.72,1.333991,620921,28777
1445.94,1.332495,620270,28846
1450.23,1.329779,618860,28961
1453.44,1.328932,617697,28963
1456.64,1.333507,616264,28593
1459.85,1.332550,614413,28570
1463.04,1.332429,612307,28480
1466.24,1.332019,610032,28401
1469.43,1.332402,607345,28251
1473.67,1.339096,603789,27656
1476.85,1.330094,601175,28113
1480.02,1.335381,597737,27614
1483.19,1.334835,594479,27498
1486.36,1.332599,591232,27489
1489.52,1.332931,587853,27311
1492.68,1.336681,583875,26893
1496.89,1.333888,578062,26797
1500.03,1.334837,574159,26558
1503.18,1.337857,570285,26196
1506.32,1.334287,565444,26188
1509.45,1.339357,560571,25661
1512.58,1.337510,555821,25552
1515.71,1.334861,550344,25455
1519.87,1.333444,543983,25243
1522.99,1.329826,538764,25210
1526.1,1.334822,533692,24687
1529.21,1.331795,527902,24590
1532.32,1.335577,521886,24099
1535.42,1.329764,515888,24143
1538.51,1.329452,509987,23884
1541.6,1.334088,503936,23350
1545.72,1.330123,494694,23132
1548.8,1.335455,488378,22558
1551.88,1.330771,481832,22497
1554.95,1.333373,474989,22045
1558.02,1.333137,467818,21724
1561.08,1.323161,460730,21892
1564.15,1.327922,454170,21345
1568.22,1.333587,444181,20605
1571.27,1.323662,436947,20738
1574.32,1.337056,429598,19770
1577.36,1.331283,422039,19682
1580.4,1.331566,414375,19312
1583.43,1.330769,406354,18973
1586.46,1.328304,398475,18711
1590.49,1.326980,388982,18321
1593.51,1.334907,380708,17607
1596.53,1.327064,372727,17552
1599.54,1.318657,365060,17527
1602.55,1.323058,357543,16993
1605.55,1.321219,349495,16681
1608.55,1.323221,341154,16208
1612.54,1.308920,330877,16246
1615.53,1.321976,322904,15385
1618.51,1.317199,315116,15180
1621.49,1.315719,307217,14850
1624.47,1.326073,299481,14135
1627.44,1.328290,292112,13717
1630.41,1.321113,284245,13570
1634.36,1.311744,274079,13370
1637.32,1.310831,266916,13048
1640.27,1.315059,259612,12568
1643.22,1.315701,251804,12172
1646.16,1.300795,244348,12224
1649.1,1.314224,236703,11481
1652.04,1.289704,228171,11710
1655.95,1.299436,215408,10810
1658.88,1.287628,204937,10568
1661.8,1.294422,193395,9818
1664.72,1.267039,179728,9718
1667.63,1.253139,163642,9136
1670.54,1.233517,146312,8546
1673.44,1.206408,128451,7986
1677.31,1.174194,105080,7036
1680.21,1.152982,88906,6251
1683.1,1.147305,75033,5345
1685.99,1.087074,63520,5198
1688.87,1.171379,53714,3620
1691.75,1.161849,45653,3145
1694.62,1.053763,39137,3458
1697.49,1.184806,33776,2207
1701.31,1.186938,28175,1832

File: Column 1_078896_20241121_172725.csv
Method:,Column 1,,
Host Date-Time:,21/11/24 @ 17:27:25,,
Header Version:,1,,
System Temp (C):,37.18,,
Detector Temp (C):,36.31,,
Humidity (%):,0.43,,
Lamp PD:,3796,,
Shift Vector Coefficients:,-10.5391,0.0761263,-0.000134223,,
Pixel to Wavelength Coefficients:,1775.68,-0.916766,-0.000235065,,
Serial Number:,5510004,,
Scan Config Name:,Column 1,,
Scan Config Type:,Slew,,
Section 1,,
Start wavelength (nm):,900,,
End wavelength (nm):,1700,,
Pattern Pixel Width (nm):,   7.03,,,,
Exposure (ms):,  0.635,,,,
Digital Resolution:,228,,
Num Repeats:,6,,
PGA Gain:,64,,
Total Measurement Time in sec:,  2.665,,
Wavelength (nm),Absorbance (AU),Reference Signal (unitless),Sample Signal (unitless)
901.51,1.347039,108485,4879
905.376,1.324819,121306,5742
909.237,1.337372,131909,6066
913.095,1.346549,143299,6452
916.948,1.313895,156982,7620
922.079,1.327032,179937,8474
925.923,1.334107,200504,9290
929.762,1.346774,222660,10020
933.597,1.346676,244426,11002
937.427,1.333493,263972,12248
941.254,1.316919,281845,13586
945.076,1.323749,297271,14106
950.165,1.337566,315605,14507
953.978,1.324489,328029,15539
957.786,1.306150,340470,16824
961.59,1.314141,352317,17092
965.389,1.311681,363056,17713
969.185,1.304820,373162,18496
972.976,1.318270,382632,18387
976.763,1.313670,391202,18999
981.806,1.313682,400190,19435
985.583,1.307113,406088,20022
989.355,1.312230,410162,19986
993.124,1.302725,412868,20563
996.888,1.301999,414263,20667
1000.65,1.306898,415476,20495
1004.4,1.310925,415479,20306
1009.41,1.310822,414358,20256
1013.15,1.310797,412923,20187
1016.89,1.315588,411526,19898
1020.63,1.306679,409066,20189
1024.36,1.305772,406777,20118
1028.09,1.305376,404427,20020
1031.82,1.300006,401911,20143
1036.78,1.315471,398410,19269
1040.49,1.307172,396204,19532
1044.2,1.309277,394236,19341
1047.91,1.309195,392042,19237
1051.61,1.305963,389823,19271
1055.31,1.321523,388234,18517
1059,1.317029,387599,18679
1063.92,1.303110,386688,19242
1067.61,1.321569,386598,18437
1071.29,1.315828,387377,18720
1074.96,1.309582,388536,19048
1078.63,1.317925,389855,18749
1082.3,1.316943,391215,18857
1085.96,1.313710,393215,19095
1090.84,1.318644,396270,19026
1094.49,1.315267,398760,19295
1098.14,1.314367,400987,19443
1101.79,1.311022,403477,19715
1105.43,1.325326,406116,19201
1109.06,1.314841,407701,19747
1112.7,1.317397,409859,19735
1117.53,1.311962,412494,20112
1121.15,1.326984,414909,19542
1124.77,1.315186,416559,20160
1128.38,1.316829,418532,20179
1131.99,1.320938,419956,20057
1135.6,1.310295,421946,20652
1139.2,1.320583,423881,20261
1143.99,1.324128,426786,20234
1147.58,1.320104,428617,20510
1151.17,1.319875,431169,20643
1154.75,1.319423,433579,20780
1158.33,1.316085,436264,21070
1161.91,1.321453,439132,20948
1165.48,1.310126,442389,21661
1169.04,1.310161,446101,21841
1173.79,1.314170,451929,21923
1177.34,1.315719,456026,22043
1180.9,1.316210,461306,22273
1184.44,1.316858,467657,22546
1187.99,1.319552,473969,22709
1191.52,1.324894,479856,22710
1195.06,1.325567,487372,23030
1199.76,1.322259,497347,23681
1203.29,1.323502,504311,23944
1206.81,1.326600,511507,24113
1210.33,1.319906,519078,24850
1213.84,1.319494,527163,25261
1217.35,1.320285,534208,25552
1220.85,1.313082,540472,26284
1225.51,1.331490,549929,25634
1229.01,1.321017,556888,26592
1232.5,1.346772,562180,25299
1235.98,1.319696,567975,27204
1239.46,1.323095,574815,27317
1242.94,1.325164,582782,27564
1246.41,1.323432,591476,28087
1251.03,1.327317,604016,28427
1254.5,1.324484,612289,29005
1257.96,1.323357,619125,29405
1261.41,1.324452,624551,29588
1264.86,1.328905,629900,29537
1268.31,1.324510,634345,30048
1271.75,1.325607,638574,30172
1276.33,1.323188,642499,30527
1279.76,1.321717,645905,30793
1283.19,1.327068,648307,30529
1286.61,1.330409,650446,30395
1290.03,1.330620,652132,30459
1293.44,1.329043,653907,30653
1296.85,1.326457,655963,30933
1301.39,1.328639,657349,30843
1304.8,1.329637,657558,30782
1308.19,1.328706,658515,30893
1311.58,1.327941,658804,30961
1314.97,1.324599,659011,31210
1318.36,1.329235,658272,30844
1321.73,1.330085,658022,30772
1326.23,1.325156,657870,31116
1329.6,1.328137,656482,30838
1332.97,1.331010,654926,30562
1336.33,1.334355,653727,30272
1339.69,1.334672,652497,30193
1343.04,1.332058,649913,30255
1346.39,1.328867,647671,30373
1349.73,1.329550,645338,30216
1354.18,1.329291,641175,30039
1357.52,1.333374,638376,29628
1360.85,1.330436,635805,29709
1364.17,1.330366,633413,29602
1367.49,1.325452,631026,29826
1370.81,1.326864,628050,29589
1374.12,1.324172,625034,29630
1378.54,1.328540,620272,29110
1381.84,1.325913,616892,29127
1385.14,1.330179,613613,28689
1388.43,1.329669,611526,28625
1391.72,1.333157,610663,28356
1395.01,1.325921,610634,28831
1398.29,1.327780,611700,28758
1402.66,1.324326,614051,29099
1405.93,1.331449,616268,28729
1409.2,1.333296,617795,28678
1412.46,1.335858,618872,28559
1415.72,1.334881,619795,28666
1418.98,1.333436,620495,28794
1422.23,1.335074,621087,28713
1426.56,1.331990,621375,28931
1429.8,1.329898,621616,29082
1433.04,1.336816,622129,28646
1436.27,1.332351,621526,28914
1439.5,1.332739,621113,28869
1442.72,1.338542,620921,28477
1445.94,1.333837,620270,28757
1450.23,1.336093,618860,28543
1453.44,1.335352,617697,28538
1456.64,1.341803,616264,28052
1459.85,1.336935,614413,28283
1463.04,1.338371,612307,28093
1466.24,1.339826,610032,27895
1469.43,1.331634,607345,28301
1473.67,1.337669,603789,27747
1476.85,1.330310,601175,28099
1480.02,1.335664,597737,27596
1483.19,1.333007,594479,27614
1486.36,1.338901,591232,27093
1489.52,1.340244,587853,26855
1492.68,1.338477,583875,26782
1496.89,1.338139,578062,26536
1500.03,1.338416,574159,26340
1503.18,1.332928,570285,26495
1506.32,1.339459,565444,25878
1509.45,1.332840,560571,26049
1512.58,1.335831,555821,25651
1515.71,1.339354,550344,25193
1519.87,1.344986,543983,24581
1522.99,1.343155,538764,24448
1526.1,1.332069,533692,24844
1529.21,1.334861,527902,24417
1532.32,1.329794,521886,24422
1535.42,1.340288,515888,23565
1538.51,1.338139,509987,23411
1541.6,1.333847,503936,23363
1545.72,1.333327,494694,22962
1548.8,1.333496,488378,22660
1551.88,1.331254,481832,22472
1554.95,1.335764,474989,21924
1558.02,1.331620,467818,21800
1561.08,1.334680,460730,21319
1564.15,1.338300,454170,20841
1568.22,1.328641,444181,20841
1571.27,1.338401,436947,20046
1574.32,1.326637,429598,20250
1577.36,1.325301,422039,19955
1580.4,1.334228,414375,19194
1583.43,1.321573,406354,19379
1586.46,1.327307,398475,18754
1590.49,1.334295,388982,18015
1593.51,1.334512,380708,17623
1596.53,1.334879,372727,17239
1599.54,1.333784,365060,16927
1602.55,1.316791,357543,17240
1605.55,1.325536,349495,16516
1608.55,1.322846,341154,16222
1612.54,1.317342,330877,15934
1615.53,1.324609,322904,15292
1618.51,1.318144,315116,15147
1621.49,1.327607,307217,14449
1624.47,1.322493,299481,14252
1627.44,1.314088,292112,14173
1630.41,1.314507,284245,13778
1634.36,1.319611,274079,13130
1637.32,1.324284,266916,12650
1640.27,1.318423,259612,12471
1643.22,1.309255,251804,12354
1646.16,1.321907,244348,11644
1649.1,1.318214,236703,11376
1652.04,1.321432,228171,10885
1655.95,1.296354,215408,10887
1658.88,1.287669,204937,10567
1661.8,1.301468,193395,9660
1664.72,1.282830,179728,9371
1667.63,1.253614,163642,9126
1670.54,1.241208,146312,8396
1673.44,1.205430,128451,8004
1677.31,1.173762,105080,7043
1680.21,1.182147,88906,5845
1683.1,1.116946,75033,5732
1685.99,1.098846,63520,5059
1688.87,1.157216,53714,3740
1691.75,1.137808,45653,3324
1694.62,1.191187,39137,2520
1697.49,1.137497,33776,2461
1701.31,1.261498,28175,1543