Folder: textile_sorting_NIRSCAN_/ML/samples/unknown (part 14)

File: Column 1_078092_20241121_164505.csv
Method:,Column 1,,
Host Date-Time:,21/11/24 @ 16:45:5,,
Header Version:,1,,
System Temp (C):,32.1,,
Detector Temp (C):,27.13,,
Humidity (%):,4.4,,
Lamp PD:,3807,,
Shift Vector Coefficients:,-10.5391,0.0761263,-0.000134223,,
Pixel to Wavelength Coefficients:,1775.68,-0.916766,-0.000235065,,
Serial Number:,5510004,,
Scan Config Name:,Column 1,,
Scan Config Type:,Slew,,
Section 1,,
Start wavelength (nm):,900,,
End wavelength (nm):,1700,,
Pattern Pixel Width (nm):,   7.03,,,,
Exposure (ms):,  0.635,,,,
Digital Resolution:,228,,
Num Repeats:,6,,
PGA Gain:,64,,
Total Measurement Time in sec:,  2.707,,
Wavelength (nm),Absorbance (AU),Reference Signal (unitless),Sample Signal (unitless)
901.51,1.312900,108485,5278
905.376,1.312074,121306,5913
909.237,1.315522,131909,6379
913.095,1.310092,143299,7017
916.948,1.317788,156982,7552
922.079,1.302861,179937,8959
925.923,1.313921,200504,9732
929.762,1.307871,222660,10959
933.597,1.317740,244426,11760
937.427,1.308183,263972,12983
941.254,1.303231,281845,14021
945.076,1.307256,297271,14652
950.165,1.309120,315605,15489
953.978,1.309410,328029,16088
957.786,1.310899,340470,16641
961.59,1.312264,352317,17166
965.389,1.308165,363056,17857
969.185,1.311421,373162,18217
972.976,1.308647,382632,18799
976.763,1.308738,391202,19216
981.806,1.306655,400190,19752
985.583,1.305705,406088,20087
989.355,1.309500,410162,20112
993.124,1.303253,412868,20538
996.888,1.307518,414263,20406
1000.65,1.310708,415476,20316
1004.4,1.310625,415479,20320
1009.41,1.310286,414358,20281
1013.15,1.304900,412923,20463
1016.89,1.308852,411526,20209
1020.63,1.311785,409066,19953
1024.36,1.308957,406777,19971
1028.09,1.307965,404427,19901
1031.82,1.307377,401911,19804
1036.78,1.313627,398410,19351
1040.49,1.313263,396204,19260
1044.2,1.319432,394236,18894
1047.91,1.312299,392042,19100
1051.61,1.311703,389823,19018
1055.31,1.302749,388234,19335
1059,1.302420,387599,19318
1063.92,1.312234,386688,18842
1067.61,1.314768,386598,18728
1071.29,1.303974,387377,19238
1074.96,1.316337,388536,18754
1078.63,1.311761,389855,19017
1082.3,1.309386,391215,19188
1085.96,1.308129,393215,19342
1090.84,1.306933,396270,19546
1094.49,1.308123,398760,19615
1098.14,1.316046,400987,19368
1101.79,1.312545,403477,19646
1105.43,1.316837,406116,19580
1109.06,1.317068,407701,19646
1112.7,1.315794,409859,19808
1117.53,1.312697,412494,20078
1121.15,1.313096,414909,20177
1124.77,1.319081,416559,19980
1128.38,1.316635,418532,20188
1131.99,1.313169,419956,20419
1135.6,1.317269,421946,20323
1139.2,1.322301,423881,20181
1143.99,1.316280,426786,20603
1147.58,1.312922,428617,20852
1151.17,1.318153,431169,20725
1154.75,1.321350,433579,20688
1158.33,1.310474,436264,21344
1161.91,1.312202,439132,21399
1165.48,1.323172,442389,21020
1169.04,1.317925,446101,21454
1173.79,1.311445,451929,22061
1177.34,1.325280,456026,21563
1180.9,1.313508,461306,22412
1184.44,1.313385,467657,22727
1187.99,1.315460,473969,22924
1191.52,1.317255,479856,23113
1195.06,1.313259,487372,23692
1199.76,1.321160,497347,23741
1203.29,1.322379,504311,24006
1206.81,1.323049,511507,24311
1210.33,1.326279,519078,24488
1213.84,1.324127,527163,24993
1217.35,1.322518,534208,25421
1220.85,1.324381,540472,25609
1225.51,1.319526,549929,26350
1229.01,1.319159,556888,26706
1232.5,1.327056,562180,26474
1235.98,1.323480,567975,26968
1239.46,1.319139,574815,27567
1242.94,1.326094,582782,27505
1246.41,1.325431,591476,27958
1251.03,1.325960,604016,28516
1254.5,1.321588,612289,29199
1257.96,1.328557,619125,29055
1261.41,1.327354,624551,29391
1264.86,1.322773,629900,29957
1268.31,1.320582,634345,30321
1271.75,1.328684,638574,29959
1276.33,1.328096,642499,30184
1279.76,1.323710,645905,30652
1283.19,1.330109,648307,30316
1286.61,1.336380,650446,29980
1290.03,1.324532,652132,30889
1293.44,1.329369,653907,30630
1296.85,1.330931,655963,30616
1301.39,1.330516,657349,30710
1304.8,1.330442,657558,30725
1308.19,1.332022,658515,30658
1311.58,1.328938,658804,30890
1314.97,1.323390,659011,31297
1318.36,1.331621,658272,30675
1321.73,1.332746,658022,30584
1326.23,1.336411,657870,30320
1329.6,1.335766,656482,30301
1332.97,1.333062,654926,30418
1336.33,1.326029,653727,30858
1339.69,1.331063,652497,30445
1343.04,1.328271,649913,30520
1346.39,1.333105,647671,30078
1349.73,1.328660,645338,30278
1354.18,1.332556,641175,29814
1357.52,1.329638,638376,29884
1360.85,1.329939,635805,29743
1364.17,1.332145,633413,29481
1367.49,1.326137,631026,29779
1370.81,1.329558,628050,29406
1374.12,1.329362,625034,29278
1378.54,1.320704,620272,29640
1381.84,1.329597,616892,28881
1385.14,1.329196,613613,28754
1388.43,1.327098,611526,28795
1391.72,1.325370,610663,28869
1395.01,1.330327,610634,28540
1398.29,1.328702,611700,28697
1402.66,1.328797,614051,28801
1405.93,1.321866,616268,29370
1409.2,1.324629,617795,29256
1412.46,1.331109,618872,28873
1415.72,1.331110,619795,28916
1418.98,1.330505,620495,28989
1422.23,1.328573,621087,29146
1426.56,1.335260,621375,28714
1429.8,1.335187,621616,28730
1433.04,1.338411,622129,28541
1436.27,1.335048,621526,28735
1439.5,1.331882,621113,28926
1442.72,1.330249,620921,29026
1445.94,1.328553,620270,29109
1450.23,1.334786,618860,28629
1453.44,1.332652,617697,28716
1456.64,1.331915,616264,28698
1459.85,1.332079,614413,28601
1463.04,1.333177,612307,28431
1466.24,1.334457,610032,28242
1469.43,1.336914,607345,27959
1473.67,1.330036,603789,28239
1476.85,1.336709,601175,27688
1480.02,1.336247,597737,27559
1483.19,1.334820,594479,27499
1486.36,1.337189,591232,27200
1489.52,1.340050,587853,26867
1492.68,1.336745,583875,26889
1496.89,1.340321,578062,26403
1500.03,1.340698,574159,26202
1503.18,1.340018,570285,26066
1506.32,1.341090,565444,25781
1509.45,1.335331,560571,25900
1512.58,1.338497,555821,25494
1515.71,1.333634,550344,25527
1519.87,1.341554,543983,24776
1522.99,1.333198,538764,25015
1526.1,1.331597,533692,24871
1529.21,1.336108,527902,24347
1532.32,1.335414,521886,24108
1535.42,1.336015,515888,23798
1538.51,1.336991,509987,23473
1541.6,1.339441,503936,23064
1545.72,1.332118,494694,23026
1548.8,1.342168,488378,22212
1551.88,1.329845,481832,22545
1554.95,1.343297,474989,21547
1558.02,1.338245,467818,21470
1561.08,1.337726,460730,21170
1564.15,1.331826,454170,21154
1568.22,1.329309,444181,20809
1571.27,1.337319,436947,20096
1574.32,1.334821,429598,19872
1577.36,1.332034,422039,19648
1580.4,1.329502,414375,19404
1583.43,1.332765,406354,18886
1586.46,1.332385,398475,18536
1590.49,1.342570,388982,17675
1593.51,1.331247,380708,17756
1596.53,1.325212,372727,17627
1599.54,1.327189,365060,17186
1602.55,1.319470,357543,17134
1605.55,1.337317,349495,16074
1608.55,1.331854,341154,15889
1612.54,1.320872,330877,15805
1615.53,1.320145,322904,15450
1618.51,1.337582,315116,14484
1621.49,1.323777,307217,14577
1624.47,1.320457,299481,14319
1627.44,1.313720,292112,14185
1630.41,1.316275,284245,13722
1634.36,1.312557,274079,13345
1637.32,1.312832,266916,12988
1640.27,1.314782,259612,12576
1643.22,1.313139,251804,12244
1646.16,1.333319,244348,11342
1649.1,1.310045,236703,11592
1652.04,1.319005,228171,10946
1655.95,1.303310,215408,10714
1658.88,1.317171,204937,9873
1661.8,1.297708,193395,9744
1664.72,1.294430,179728,9124
1667.63,1.307614,163642,8059
1670.54,1.294350,146312,7429
1673.44,1.298303,128451,6463
1677.31,1.297326,105080,5299
1680.21,1.283913,88906,4624
1683.1,1.277228,75033,3963
1685.99,1.298576,63520,3194
1688.87,1.284017,53714,2793
1691.75,1.271190,45653,2445
1694.62,1.320746,39137,1870
1697.49,1.332709,33776,1570
1701.31,1.353649,28175,1248

File: Column 1_078097_20241121_164519.csv
Method:,Column 1,,
Host Date-Time:,21/11/24 @ 16:45:19,,
Header Version:,1,,
System Temp (C):,32.26,,
Detector Temp (C):,27.36,,
Humidity (%):,4.3,,
Lamp PD:,3807,,
Shift Vector Coefficients:,-10.5391,0.0761263,-0.000134223,,
Pixel to Wavelength Coefficients:,1775.68,-0.916766,-0.000235065,,
Serial Number:,5510004,,
Scan Config Name:,Column 1,,
Scan Config Type:,Slew,,
Section 1,,
Start wavelength (nm):,900,,
End wavelength (nm):,1700,,
Pattern Pixel Width (nm):,   7.03,,,,
Exposure (ms):,  0.635,,,,
Digital Resolution:,228,,
Num Repeats:,6,,
PGA Gain:,64,,
Total Measurement Time in sec:,  2.722,,
Wavelength (nm),Absorbance (AU),Reference Signal (unitless),Sample Signal (unitless)
901.51,1.299611,108485,5442
905.376,1.311047,121306,5927
909.237,1.304697,131909,6540
913.095,1.295785,143299,7252
916.948,1.307951,156982,7725
922.079,1.305340,179937,8908
925.923,1.306751,200504,9894
929.762,1.312974,222660,10831
933.597,1.304645,244426,12120
937.427,1.316286,263972,12743
941.254,1.313543,281845,13692
945.076,1.304743,297271,14737
950.165,1.310356,315605,15445
953.978,1.310383,328029,16052
957.786,1.307960,340470,16754
961.59,1.302632,352317,17551
965.389,1.306442,363056,17928
969.185,1.307221,373162,18394
972.976,1.313642,382632,18584
976.763,1.303348,391202,19456
981.806,1.307139,400190,19730
985.583,1.311232,406088,19833
989.355,1.310495,410162,20066
993.124,1.305670,412868,20424
996.888,1.307923,414263,20387
1000.65,1.305459,415476,20563
1004.4,1.312832,415479,20217
1009.41,1.299877,414358,20773
1013.15,1.310948,412923,20180
1016.89,1.310597,411526,20128
1020.63,1.299151,409066,20542
1024.36,1.311508,406777,19854
1028.09,1.301661,404427,20192
1031.82,1.304013,401911,19958
1036.78,1.321120,398410,19020
1040.49,1.310184,396204,19397
1044.2,1.308582,394236,19372
1047.91,1.305755,392042,19390
1051.61,1.303850,389823,19365
1055.31,1.306834,388234,19154
1059,1.309858,387599,18990
1063.92,1.313619,386688,18782
1067.61,1.310086,386598,18931
1071.29,1.313422,387377,18824
1074.96,1.314835,388536,18819
1078.63,1.317439,389855,18770
1082.3,1.319021,391215,18767
1085.96,1.313824,393215,19090
1090.84,1.315505,396270,19164
1094.49,1.312977,398760,19397
1098.14,1.315418,400987,19396
1101.79,1.311132,403477,19710
1105.43,1.313061,406116,19751
1109.06,1.317576,407701,19623
1112.7,1.314699,409859,19858
1117.53,1.314040,412494,20016
1121.15,1.322122,414909,19762
1124.77,1.317497,416559,20053
1128.38,1.318576,418532,20098
1131.99,1.316736,419956,20252
1135.6,1.311369,421946,20601
1139.2,1.319085,423881,20331
1143.99,1.318266,426786,20509
1147.58,1.315973,428617,20706
1151.17,1.322195,431169,20533
1154.75,1.317296,433579,20882
1158.33,1.326367,436264,20577
1161.91,1.319756,439132,21030
1165.48,1.318078,442389,21268
1169.04,1.322708,446101,21219
1173.79,1.325632,451929,21352
1177.34,1.305439,456026,22571
1180.9,1.318302,461306,22166
1184.44,1.324926,467657,22131
1187.99,1.322295,473969,22566
1191.52,1.326388,479856,22632
1195.06,1.319797,487372,23338
1199.76,1.321691,497347,23712
1203.29,1.327950,504311,23700
1206.81,1.325431,511507,24178
1210.33,1.324668,519078,24579
1213.84,1.323866,527163,25008
1217.35,1.322945,534208,25396
1220.85,1.355667,540472,23829
1225.51,1.319988,549929,26322
1229.01,1.321752,556888,26547
1232.5,1.325108,562180,26593
1235.98,1.321825,567975,27071
1239.46,1.324720,574815,27215
1242.94,1.317651,582782,28045
1246.41,1.326115,591476,27914
1251.03,1.328802,604016,28330
1254.5,1.326209,612289,28890
1257.96,1.322664,619125,29452
1261.41,1.331481,624551,29113
1264.86,1.330688,629900,29416
1268.31,1.325871,634345,29954
1271.75,1.332586,638574,29691
1276.33,1.329017,642499,30120
1279.76,1.329443,645905,30250
1283.19,1.332652,648307,30139
1286.61,1.329011,650446,30493
1290.03,1.329339,652132,30549
1293.44,1.329270,653907,30637
1296.85,1.331897,655963,30548
1301.39,1.333724,657349,30484
1304.8,1.329680,657558,30779
1308.19,1.335921,658515,30384
1311.58,1.329557,658804,30846
1314.97,1.336920,659011,30337
1318.36,1.329221,658272,30845
1321.73,1.333315,658022,30544
1326.23,1.330408,657870,30742
1329.6,1.337245,656482,30198
1332.97,1.336315,654926,30191
1336.33,1.327537,653727,30751
1339.69,1.334385,652497,30213
1343.04,1.332101,649913,30252
1346.39,1.327739,647671,30452
1349.73,1.326685,645338,30416
1354.18,1.329667,641175,30013
1357.52,1.331400,638376,29763
1360.85,1.328132,635805,29867
1364.17,1.323424,633413,30079
1367.49,1.330446,631026,29485
1370.81,1.326482,628050,29615
1374.12,1.331891,625034,29108
1378.54,1.329945,620272,29016
1381.84,1.327497,616892,29021
1385.14,1.330225,613613,28686
1388.43,1.328942,611526,28673
1391.72,1.327965,610663,28697
1395.01,1.323937,610634,28963
1398.29,1.327342,611700,28787
1402.66,1.333177,614051,28512
1405.93,1.329127,616268,28883
1409.2,1.332207,617795,28750
1412.46,1.336939,618872,28488
1415.72,1.328893,619795,29064
1418.98,1.332788,620495,28837
1422.23,1.329051,621087,29114
1426.56,1.332336,621375,28908
1429.8,1.330541,621616,29039
1433.04,1.334548,622129,28796
1436.27,1.335078,621526,28733
1439.5,1.334185,621113,28773
1442.72,1.335154,620921,28700
1445.94,1.330318,620270,28991
1450.23,1.337373,618860,28459
1453.44,1.333045,617697,28690
1456.64,1.337520,616264,28330
1459.85,1.341302,614413,28000
1463.04,1.331409,612307,28547
1466.24,1.337497,610032,28045
1469.43,1.337629,607345,27913
1473.67,1.332442,603789,28083
1476.85,1.337023,601175,27668
1480.02,1.335633,597737,27598
1483.19,1.333731,594479,27568
1486.36,1.331368,591232,27567
1489.52,1.345090,587853,26557
1492.68,1.341798,583875,26578
1496.89,1.335154,578062,26719
1500.03,1.339886,574159,26251
1503.18,1.339485,570285,26098
1506.32,1.342034,565444,25725
1509.45,1.338934,560571,25686
1512.58,1.336034,555821,25639
1515.71,1.336982,550344,25331
1519.87,1.339142,543983,24914
1522.99,1.340163,538764,24617
1526.1,1.337770,533692,24520
1529.21,1.341113,527902,24068
1532.32,1.337962,521886,23967
1535.42,1.339000,515888,23635
1538.51,1.341267,509987,23243
1541.6,1.333996,503936,23355
1545.72,1.336497,494694,22795
1548.8,1.331050,488378,22788
1551.88,1.333851,481832,22338
1554.95,1.334518,474989,21987
1558.02,1.336126,467818,21575
1561.08,1.342449,460730,20941
1564.15,1.333636,454170,21066
1568.22,1.328017,444181,20871
1571.27,1.333339,436947,20281
1574.32,1.337253,429598,19761
1577.36,1.337864,422039,19386
1580.4,1.331769,414375,19303
1583.43,1.333754,406354,18843
1586.46,1.338591,398475,18273
1590.49,1.333573,388982,18045
1593.51,1.333897,380708,17648
1596.53,1.330168,372727,17427
1599.54,1.329292,365060,17103
1602.55,1.333063,357543,16606
1605.55,1.317847,349495,16811
1608.55,1.331335,341154,15908
1612.54,1.322331,330877,15752
1615.53,1.321299,322904,15409
1618.51,1.325342,315116,14898
1621.49,1.316363,307217,14828
1624.47,1.318520,299481,14383
1627.44,1.334059,292112,13536
1630.41,1.314980,284245,13763
1634.36,1.319148,274079,13144
1637.32,1.319844,266916,12780
1640.27,1.325303,259612,12275
1643.22,1.319751,251804,12059
1646.16,1.310677,244348,11949
1649.1,1.316348,236703,11425
1652.04,1.317856,228171,10975
1655.95,1.313979,215408,10454
1658.88,1.301151,204937,10244
1661.8,1.296062,193395,9781
1664.72,1.307476,179728,8854
1667.63,1.312927,163642,7961
1670.54,1.281278,146312,7656
1673.44,1.278791,128451,6760
1677.31,1.243079,105080,6004
1680.21,1.260956,88906,4875
1683.1,1.254492,75033,4176
1685.99,1.317899,63520,3055
1688.87,1.295359,53714,2721
1691.75,1.339531,45653,2089
1694.62,1.312009,39137,1908
1697.49,1.238351,33776,1951
1701.31,1.270025,28175,1513

File: Column 1_078098_20241121_164522.csv
Method:,Column 1,,
Host Date-Time:,21/11/24 @ 16:45:22,,
Header Version:,1,,
System Temp (C):,32.23,,
Detector Temp (C):,27.38,,
Humidity (%):,4.3,,
Lamp PD:,3807,,
Shift Vector Coefficients:,-10.5391,0.0761263,-0.000134223,,
Pixel to Wavelength Coefficients:,1775.68,-0.916766,-0.000235065,,
Serial Number:,5510004,,
Scan Config Name:,Column 1,,
Scan Config Type:,Slew,,
Section 1,,
Start wavelength (nm):,900,,
End wavelength (nm):,1700,,
Pattern Pixel Width (nm):,   7.03,,,,
Exposure (ms):,  0.635,,,,
Digital Resolution:,228,,
Num Repeats:,6,,
PGA Gain:,64,,
Total Measurement Time in sec:,  2.719,,
Wavelength (nm),Absorbance (AU),Reference Signal (unitless),Sample Signal (unitless)
901.51,1.316370,108485,5236
905.376,1.314653,121306,5878
909.237,1.315522,131909,6379
913.095,1.310030,143299,7018
916.948,1.307558,156982,7732
922.079,1.313907,179937,8734
925.923,1.318271,200504,9635
929.762,1.325173,222660,10531
933.597,1.324401,244426,11581
937.427,1.314891,263972,12784
941.254,1.319934,281845,13492
945.076,1.306456,297271,14679
950.165,1.321752,315605,15045
953.978,1.313369,328029,15942
957.786,1.311291,340470,16626
961.59,1.309365,352317,17281
965.389,1.320124,363056,17372
969.185,1.310658,373162,18249
972.976,1.310824,382632,18705
976.763,1.303080,391202,19468
981.806,1.307646,400190,19707
985.583,1.307286,406088,20014
989.355,1.300313,410162,20542
993.124,1.312118,412868,20123
996.888,1.313303,414263,20136
1000.65,1.307810,415476,20452
1004.4,1.307198,415479,20481
1009.41,1.308235,414358,20377
1013.15,1.319336,412923,19794
1016.89,1.312825,411526,20025
1020.63,1.315765,409066,19771
1024.36,1.314163,406777,19733
1028.09,1.308795,404427,19863
1031.82,1.313828,401911,19512
1036.78,1.310496,398410,19491
1040.49,1.308040,396204,19493
1044.2,1.313701,394236,19145
1047.91,1.311731,392042,19125
1051.61,1.316848,389823,18794
1055.31,1.312609,388234,18901
1059,1.310224,387599,18974
1063.92,1.317358,386688,18621
1067.61,1.314351,386598,18746
1071.29,1.316943,387377,18672
1074.96,1.309194,388536,19065
1078.63,1.310507,389855,19072
1082.3,1.320783,391215,18691
1085.96,1.323509,393215,18669
1090.84,1.322104,396270,18875
1094.49,1.313739,398760,19363
1098.14,1.316180,400987,19362
1101.79,1.329150,403477,18909
1105.43,1.316749,406116,19584
1109.06,1.320575,407701,19488
1112.7,1.318367,409859,19691
1117.53,1.319565,412494,19763
1121.15,1.316966,414909,19998
1124.77,1.310025,416559,20401
1128.38,1.319679,418532,20047
1131.99,1.321761,419956,20019
1135.6,1.323923,421946,20014
1139.2,1.327758,423881,19929
1143.99,1.319517,426786,20450
1147.58,1.329349,428617,20078
1151.17,1.322576,431169,20515
1154.75,1.322253,433579,20645
1158.33,1.321770,436264,20796
1161.91,1.320438,439132,20997
1165.48,1.328682,442389,20755
1169.04,1.321686,446101,21269
1173.79,1.327139,451929,21278
1177.34,1.324375,456026,21608
1180.9,1.319951,461306,22082
1184.44,1.322402,467657,22260
1187.99,1.320452,473969,22662
1191.52,1.319931,479856,22971
1195.06,1.325416,487372,23038
1199.76,1.325296,497347,23516
1203.29,1.325210,504311,23850
1206.81,1.318765,511507,24552
1210.33,1.322870,519078,24681
1213.84,1.331946,527163,24547
1217.35,1.328417,534208,25078
1220.85,1.321524,540472,25778
1225.51,1.323966,549929,26082
1229.01,1.324822,556888,26360
1232.5,1.324194,562180,26649
1235.98,1.315961,567975,27439
1239.46,1.329501,574815,26917
1242.94,1.321633,582782,27789
1246.41,1.322520,591476,28146
1251.03,1.332481,604016,28091
1254.5,1.322214,612289,29157
1257.96,1.326738,619125,29177
1261.41,1.322885,624551,29695
1264.86,1.326705,629900,29687
1268.31,1.326495,634345,29911
1271.75,1.333787,638574,29609
1276.33,1.329768,642499,30068
1279.76,1.333873,645905,29943
1283.19,1.328907,648307,30400
1286.61,1.333722,650446,30164
1290.03,1.329196,652132,30559
1293.44,1.334934,653907,30240
1296.85,1.334263,655963,30382
1301.39,1.333924,657349,30470
1304.8,1.329736,657558,30775
1308.19,1.330311,658515,30779
1311.58,1.336083,658804,30386
1314.97,1.333654,659011,30566
1318.36,1.326176,658272,31062
1321.73,1.331229,658022,30691
1326.23,1.334268,657870,30470
1329.6,1.338526,656482,30109
1332.97,1.333519,654926,30386
1336.33,1.336066,653727,30153
1339.69,1.334428,652497,30210
1343.04,1.332532,649913,30222
1346.39,1.338730,647671,29691
1349.73,1.335877,645338,29779
1354.18,1.331146,641175,29911
1357.52,1.334784,638376,29532
1360.85,1.333046,635805,29531
1364.17,1.329208,633413,29681
1367.49,1.328228,631026,29636
1370.81,1.333967,628050,29109
1374.12,1.331623,625034,29126
1378.54,1.326115,620272,29273
1381.84,1.330229,616892,28839
1385.14,1.330285,613613,28682
1388.43,1.328079,611526,28730
1391.72,1.325280,610663,28875
1395.01,1.335455,610634,28205
1398.29,1.327071,611700,28805
1402.66,1.332964,614051,28526
1405.93,1.332296,616268,28673
1409.2,1.331588,617795,28791
1412.46,1.333462,618872,28717
1415.72,1.335351,619795,28635
1418.98,1.340875,620495,28305
1422.23,1.337333,621087,28564
1426.56,1.336973,621375,28601
1429.8,1.335837,621616,28687
1433.04,1.334232,622129,28817
1436.27,1.332246,621526,28921
1439.5,1.339822,621113,28402
1442.72,1.334202,620921,28763
1445.94,1.337340,620270,28526
1450.23,1.334862,618860,28624
1453.44,1.338636,617697,28323
1456.64,1.337520,616264,28330
1459.85,1.335540,614413,28374
1463.04,1.337722,612307,28135
1466.24,1.345199,610032,27552
1469.43,1.336107,607345,28011
1473.67,1.339897,603789,27605
1476.85,1.338659,601175,27564
1480.02,1.333247,597737,27750
1483.19,1.339871,594479,27181
1486.36,1.336774,591232,27226
1489.52,1.336235,587853,27104
1492.68,1.341553,583875,26593
1496.89,1.343391,578062,26217
1500.03,1.344176,574159,25993
1503.18,1.342189,570285,25936
1506.32,1.342271,565444,25711
1509.45,1.340628,560571,25586
1512.58,1.343155,555821,25222
1515.71,1.339803,550344,25167
1519.87,1.336050,543983,25092
1522.99,1.343209,538764,24445
1526.1,1.341524,533692,24309
1529.21,1.341727,527902,24034
1532.32,1.343249,521886,23677
1535.42,1.344957,515888,23313
1538.51,1.343740,509987,23111
1541.6,1.345833,503936,22727
1545.72,1.339383,494694,22644
1548.8,1.348530,488378,21889
1551.88,1.347177,481832,21663
1554.95,1.340004,474989,21711
1558.02,1.333097,467818,21726
1561.08,1.335577,460730,21275
1564.15,1.336511,454170,20927
1568.22,1.341006,444181,20256
1571.27,1.333704,436947,20264
1574.32,1.336704,429598,19786
1577.36,1.337484,422039,19403
1580.4,1.335043,414375,19158
1583.43,1.332880,406354,18881
1586.46,1.341931,398475,18133
1590.49,1.331580,388982,18128
1593.51,1.336265,380708,17552
1596.53,1.344405,372727,16865
1599.54,1.336667,365060,16815
1602.55,1.334504,357543,16551
1605.55,1.333417,349495,16219
1608.55,1.331226,341154,15912
1612.54,1.335799,330877,15271
1615.53,1.319331,322904,15479
1618.51,1.325663,315116,14887
1621.49,1.323718,307217,14579
1624.47,1.328600,299481,14053
1627.44,1.339678,292112,13362
1630.41,1.327756,284245,13364
1634.36,1.330394,274079,12808
1637.32,1.326383,266916,12589
1640.27,1.316443,259612,12528
1643.22,1.322352,251804,11987
1646.16,1.323214,244348,11609
1649.1,1.324366,236703,11216
1652.04,1.311492,228171,11137
1655.95,1.319582,215408,10320
1658.88,1.318449,204937,9844
1661.8,1.323461,193395,9183
1664.72,1.290120,179728,9215
1667.63,1.307506,163642,8061
1670.54,1.306202,146312,7229
1673.44,1.308502,128451,6313
1677.31,1.280132,105080,5513
1680.21,1.303411,88906,4421
1683.1,1.321491,75033,3579
1685.99,1.273480,63520,3384
1688.87,1.315114,53714,2600
1691.75,1.336424,45653,2104
1694.62,1.333472,39137,1816
1697.49,1.307977,33776,1662
1701.31,1.261780,28175,1542