Folder: textile_sorting_NIRSCAN_/ML/samples/unknown (part 41)

File: Column 1_078257_20241121_165312.csv
Method:,Column 1,,
Host Date-Time:,21/11/24 @ 16:53:12,,
Header Version:,1,,
System Temp (C):,34.3,,
Detector Temp (C):,31.8,,
Humidity (%):,2.45,,
Lamp PD:,3802,,
Shift Vector Coefficients:,-10.5391,0.0761263,-0.000134223,,
Pixel to Wavelength Coefficients:,1775.68,-0.916766,-0.000235065,,
Serial Number:,5510004,,
Scan Config Name:,Column 1,,
Scan Config Type:,Slew,,
Section 1,,
Start wavelength (nm):,900,,
End wavelength (nm):,1700,,
Pattern Pixel Width (nm):,   7.03,,,,
Exposure (ms):,  0.635,,,,
Digital Resolution:,228,,
Num Repeats:,6,,
PGA Gain:,64,,
Total Measurement Time in sec:,  2.719,,
Wavelength (nm),Absorbance (AU),Reference Signal (unitless),Sample Signal (unitless)
901.51,1.307991,108485,5338
905.376,1.378703,121306,5072
909.237,1.321624,131909,6290
913.095,1.338281,143299,6576
916.948,1.333599,156982,7282
922.079,1.330634,179937,8404
925.923,1.325544,200504,9475
929.762,1.337470,222660,10237
933.597,1.322157,244426,11641
937.427,1.317994,263972,12693
941.254,1.325376,281845,13324
945.076,1.322304,297271,14153
950.165,1.320541,315605,15087
953.978,1.312580,328029,15971
957.786,1.317500,340470,16390
961.59,1.322038,352317,16784
965.389,1.314584,363056,17595
969.185,1.303202,373162,18565
972.976,1.311567,382632,18673
976.763,1.313785,391202,18994
981.806,1.315608,400190,19349
985.583,1.316453,406088,19596
989.355,1.315151,410162,19852
993.124,1.317548,412868,19873
996.888,1.316203,414263,20002
1000.65,1.321464,415476,19819
1004.4,1.310262,415479,20337
1009.41,1.307384,414358,20417
1013.15,1.317475,412923,19879
1016.89,1.317864,411526,19794
1020.63,1.307195,409066,20165
1024.36,1.316967,406777,19606
1028.09,1.315005,404427,19581
1031.82,1.313873,401911,19510
1036.78,1.314548,398410,19310
1040.49,1.321388,396204,18903
1044.2,1.318789,394236,18922
1047.91,1.304949,392042,19426
1051.61,1.314796,389823,18883
1055.31,1.311805,388234,18936
1059,1.317448,387599,18661
1063.92,1.305555,386688,19134
1067.61,1.310683,386598,18905
1071.29,1.316641,387377,18685
1074.96,1.319848,388536,18603
1078.63,1.317994,389855,18746
1082.3,1.309250,391215,19194
1085.96,1.322324,393215,18720
1090.84,1.318073,396270,19051
1094.49,1.317931,398760,19177
1098.14,1.310985,400987,19595
1101.79,1.317793,403477,19410
1105.43,1.317926,406116,19531
1109.06,1.316825,407701,19657
1112.7,1.323313,409859,19468
1117.53,1.332388,412494,19188
1121.15,1.321288,414909,19800
1124.77,1.328863,416559,19535
1128.38,1.325678,418532,19772
1131.99,1.325531,419956,19846
1135.6,1.318210,421946,20279
1139.2,1.321957,423881,20197
1143.99,1.325246,426786,20182
1147.58,1.329630,428617,20065
1151.17,1.323296,431169,20481
1154.75,1.322548,433579,20631
1158.33,1.325861,436264,20601
1161.91,1.328981,439132,20588
1165.48,1.321851,442389,21084
1169.04,1.324678,446101,21123
1173.79,1.330644,451929,21107
1177.34,1.327279,456026,21464
1180.9,1.322297,461306,21963
1184.44,1.321078,467657,22328
1187.99,1.325832,473969,22383
1191.52,1.315548,479856,23204
1195.06,1.330269,487372,22782
1199.76,1.322443,497347,23671
1203.29,1.321728,504311,24042
1206.81,1.324695,511507,24219
1210.33,1.333504,519078,24084
1213.84,1.328984,527163,24715
1217.35,1.326000,534208,25218
1220.85,1.321996,540472,25750
1225.51,1.328317,549929,25822
1229.01,1.332418,556888,25903
1232.5,1.325386,562180,26576
1235.98,1.322451,567975,27032
1239.46,1.323079,574815,27318
1242.94,1.326426,582782,27484
1246.41,1.326598,591476,27883
1251.03,1.323000,604016,28711
1254.5,1.330090,612289,28633
1257.96,1.327885,619125,29100
1261.41,1.331093,624551,29139
1264.86,1.326764,629900,29683
1268.31,1.329408,634345,29711
1271.75,1.326472,638574,30112
1276.33,1.327477,642499,30227
1279.76,1.333438,645905,29973
1283.19,1.335877,648307,29916
1286.61,1.335150,650446,30065
1290.03,1.332635,652132,30318
1293.44,1.332257,653907,30427
1296.85,1.333135,655963,30461
1301.39,1.336067,657349,30320
1304.8,1.330357,657558,30731
1308.19,1.330876,658515,30739
1311.58,1.334186,658804,30519
1314.97,1.334294,659011,30521
1318.36,1.330984,658272,30720
1321.73,1.331640,658022,30662
1326.23,1.335681,657870,30371
1329.6,1.332923,656482,30500
1332.97,1.332648,654926,30447
1336.33,1.336498,653727,30123
1339.69,1.340683,652497,29778
1343.04,1.331040,649913,30326
1346.39,1.335741,647671,29896
1349.73,1.332348,645338,30022
1354.18,1.333081,641175,29778
1357.52,1.338120,638376,29306
1360.85,1.335642,635805,29355
1364.17,1.331071,633413,29554
1367.49,1.338084,631026,28971
1370.81,1.333102,628050,29167
1374.12,1.328296,625034,29350
1378.54,1.330139,620272,29003
1381.84,1.332736,616892,28673
1385.14,1.333751,613613,28454
1388.43,1.330231,611526,28588
1391.72,1.332483,610663,28400
1395.01,1.330008,610634,28561
1398.29,1.329854,611700,28621
1402.66,1.327652,614051,28877
1405.93,1.330513,616268,28791
1409.2,1.336594,617795,28461
1412.46,1.336634,618872,28508
1415.72,1.331531,619795,28888
1418.98,1.330895,620495,28963
1422.23,1.330021,621087,29049
1426.56,1.335351,621375,28708
1429.8,1.335958,621616,28679
1433.04,1.334006,622129,28832
1436.27,1.329865,621526,29080
1439.5,1.344650,621113,28088
1442.72,1.337567,620921,28541
1445.94,1.336048,620270,28611
1450.23,1.333091,618860,28741
1453.44,1.330253,617697,28875
1456.64,1.335471,616264,28464
1459.85,1.334073,614413,28470
1463.04,1.338572,612307,28080
1466.24,1.339966,610032,27886
1469.43,1.335580,607345,28045
1473.67,1.337044,603789,27787
1476.85,1.338722,601175,27560
1480.02,1.339045,597737,27382
1483.19,1.343304,594479,26967
1486.36,1.342490,591232,26870
1489.52,1.341037,587853,26806
1492.68,1.340492,583875,26658
1496.89,1.342217,578062,26288
1500.03,1.347194,574159,25813
1503.18,1.343312,570285,25869
1506.32,1.340652,565444,25807
1509.45,1.340951,560571,25567
1512.58,1.341797,555821,25301
1515.71,1.340597,550344,25121
1519.87,1.346774,543983,24480
1522.99,1.339423,538764,24659
1526.1,1.337487,533692,24536
1529.21,1.336804,527902,24308
1532.32,1.342681,521886,23708
1535.42,1.343655,515888,23383
1538.51,1.336380,509987,23506
1541.6,1.334833,503936,23310
1545.72,1.333100,494694,22974
1548.8,1.338392,488378,22406
1551.88,1.338464,481832,22102
1554.95,1.340905,474989,21666
1558.02,1.336368,467818,21563
1561.08,1.346994,460730,20723
1564.15,1.337301,454170,20889
1568.22,1.336251,444181,20479
1571.27,1.333768,436947,20261
1574.32,1.338684,429598,19696
1577.36,1.330270,422039,19728
1580.4,1.338594,414375,19002
1583.43,1.332351,406354,18904
1586.46,1.348641,398475,17855
1590.49,1.339314,388982,17808
1593.51,1.335301,380708,17591
1596.53,1.335812,372727,17202
1599.54,1.332452,365060,16979
1602.55,1.350078,357543,15968
1605.55,1.332882,349495,16239
1608.55,1.332620,341154,15861
1612.54,1.324986,330877,15656
1615.53,1.327945,322904,15175
1618.51,1.322756,315116,14987
1621.49,1.323598,307217,14583
1624.47,1.326227,299481,14130
1627.44,1.326836,292112,13763
1630.41,1.318083,284245,13665
1634.36,1.325941,274079,12940
1637.32,1.318690,266916,12814
1640.27,1.327147,259612,12223
1643.22,1.319283,251804,12072
1646.16,1.315906,244348,11806
1649.1,1.328177,236703,11118
1652.04,1.317856,228171,10975
1655.95,1.294801,215408,10926
1658.88,1.315897,204937,9902
1661.8,1.301198,193395,9666
1664.72,1.288145,179728,9257
1667.63,1.284680,163642,8496
1670.54,1.263059,146312,7984
1673.44,1.273301,128451,6846
1677.31,1.218063,105080,6360
1680.21,1.237293,88906,5148
1683.1,1.242795,75033,4290
1685.99,1.217675,63520,3848
1688.87,1.187013,53714,3492
1691.75,1.289326,45653,2345
1694.62,1.271611,39137,2094
1697.49,1.293585,33776,1718
1701.31,1.246015,28175,1599

File: Column 1_078259_20241121_165318.csv
Method:,Column 1,,
Host Date-Time:,21/11/24 @ 16:53:18,,
Header Version:,1,,
System Temp (C):,34.31,,
Detector Temp (C):,31.93,,
Humidity (%):,2.35,,
Lamp PD:,3803,,
Shift Vector Coefficients:,-10.5391,0.0761263,-0.000134223,,
Pixel to Wavelength Coefficients:,1775.68,-0.916766,-0.000235065,,
Serial Number:,5510004,,
Scan Config Name:,Column 1,,
Scan Config Type:,Slew,,
Section 1,,
Start wavelength (nm):,900,,
End wavelength (nm):,1700,,
Pattern Pixel Width (nm):,   7.03,,,,
Exposure (ms):,  0.635,,,,
Digital Resolution:,228,,
Num Repeats:,6,,
PGA Gain:,64,,
Total Measurement Time in sec:,  2.711,,
Wavelength (nm),Absorbance (AU),Reference Signal (unitless),Sample Signal (unitless)
901.51,1.323478,108485,5151
905.376,1.337404,121306,5578
909.237,1.298041,131909,6641
913.095,1.327132,143299,6747
916.948,1.322122,156982,7477
922.079,1.316851,179937,8675
925.923,1.323760,200504,9514
929.762,1.333248,222660,10337
933.597,1.329608,244426,11443
937.427,1.317994,263972,12693
941.254,1.324529,281845,13350
945.076,1.321323,297271,14185
950.165,1.315903,315605,15249
953.978,1.320760,328029,15673
957.786,1.311552,340470,16616
961.59,1.316919,352317,16983
965.389,1.302991,363056,18071
969.185,1.313883,373162,18114
972.976,1.309178,382632,18776
976.763,1.300012,391202,19606
981.806,1.312521,400190,19487
985.583,1.308373,406088,19964
989.355,1.311795,410162,20006
993.124,1.311084,412868,20171
996.888,1.311237,414263,20232
1000.65,1.306157,415476,20530
1004.4,1.316456,415479,20049
1009.41,1.316911,414358,19974
1013.15,1.313062,412923,20082
1016.89,1.311352,411526,20093
1020.63,1.309506,409066,20058
1024.36,1.312450,406777,19811
1028.09,1.316182,404427,19528
1031.82,1.337639,401911,18471
1036.78,1.325042,398410,18849
1040.49,1.308798,396204,19459
1044.2,1.311461,394236,19244
1047.91,1.306854,392042,19341
1051.61,1.308767,389823,19147
1055.31,1.313161,388234,18877
1059,1.305851,387599,19166
1063.92,1.320306,386688,18495
1067.61,1.321664,386598,18433
1071.29,1.305580,387377,19167
1074.96,1.303829,388536,19302
1078.63,1.322559,389855,18550
1082.3,1.317934,391215,18814
1085.96,1.322905,393215,18695
1090.84,1.322150,396270,18873
1094.49,1.324572,398760,18886
1098.14,1.325132,400987,18967
1101.79,1.316944,403477,19448
1105.43,1.315663,406116,19633
1109.06,1.326204,407701,19237
1112.7,1.320002,409859,19617
1117.53,1.330130,412494,19288
1121.15,1.324612,414909,19649
1124.77,1.317800,416559,20039
1128.38,1.322374,418532,19923
1131.99,1.316521,419956,20262
1135.6,1.321284,421946,20136
1139.2,1.323012,423881,20148
1143.99,1.331488,426786,19894
1147.58,1.328571,428617,20114
1151.17,1.313484,431169,20949
1154.75,1.324552,433579,20536
1158.33,1.330034,436264,20404
1161.91,1.313808,439132,21320
1165.48,1.319940,442389,21177
1169.04,1.319182,446101,21392
1173.79,1.322006,451929,21531
1177.34,1.320892,456026,21782
1180.9,1.320049,461306,22077
1184.44,1.320514,467657,22357
1187.99,1.318330,473969,22773
1191.52,1.312044,479856,23392
1195.06,1.323328,487372,23149
1199.76,1.325259,497347,23518
1203.29,1.328904,504311,23648
1206.81,1.323621,511507,24279
1210.33,1.331489,519078,24196
1213.84,1.326846,527163,24837
1217.35,1.329319,534208,25026
1220.85,1.329292,540472,25321
1225.51,1.332168,549929,25594
1229.01,1.324740,556888,26365
1232.5,1.327121,562180,26470
1235.98,1.331165,567975,26495
1239.46,1.327537,574815,27039
1242.94,1.321305,582782,27810
1246.41,1.329520,591476,27696
1251.03,1.327638,604016,28406
1254.5,1.325458,612289,28940
1257.96,1.332461,619125,28795
1261.41,1.330527,624551,29177
1264.86,1.329950,629900,29466
1268.31,1.329598,634345,29698
1271.75,1.327902,638574,30013
1276.33,1.326115,642499,30322
1279.76,1.324575,645905,30591
1283.19,1.332882,648307,30123
1286.61,1.331783,650446,30299
1290.03,1.326886,652132,30722
1293.44,1.330079,653907,30580
1296.85,1.331470,655963,30578
1301.39,1.336812,657349,30268
1304.8,1.332468,657558,30582
1308.19,1.333086,658515,30583
1311.58,1.327338,658804,31004
1314.97,1.330652,659011,30778
1318.36,1.336147,658272,30357
1321.73,1.336325,658022,30333
1326.23,1.336740,657870,30297
1329.6,1.338671,656482,30099
1332.97,1.334263,654926,30334
1336.33,1.331267,653727,30488
1339.69,1.328914,652497,30596
1343.04,1.329953,649913,30402
1346.39,1.332701,647671,30106
1349.73,1.330990,645338,30116
1354.18,1.331829,641175,29864
1357.52,1.334872,638376,29526
1360.85,1.338045,635805,29193
1364.17,1.331865,633413,29500
1367.49,1.333283,631026,29293
1370.81,1.329721,628050,29395
1374.12,1.331012,625034,29167
1378.54,1.334050,620272,28743
1381.84,1.333555,616892,28619
1385.14,1.334668,613613,28394
1388.43,1.332928,611526,28411
1391.72,1.333647,610663,28324
1395.01,1.337709,610634,28059
1398.29,1.327886,611700,28751
1402.66,1.330217,614051,28707
1405.93,1.336115,616268,28422
1409.2,1.327758,617795,29046
1412.46,1.330928,618872,28885
1415.72,1.333097,619795,28784
1418.98,1.337254,620495,28542
1422.23,1.339024,621087,28453
1426.56,1.332471,621375,28899
1429.8,1.338571,621616,28507
1433.04,1.332727,622129,28917
1436.27,1.334821,621526,28750
1439.5,1.337124,621113,28579
1442.72,1.341726,620921,28269
1445.94,1.333747,620270,28763
1450.23,1.333741,618860,28698
1453.44,1.339250,617697,28283
1456.64,1.336846,616264,28374
1459.85,1.334485,614413,28443
1463.04,1.335213,612307,28298
1466.24,1.341824,610032,27767
1469.43,1.336433,607345,27990
1473.67,1.336747,603789,27806
1476.85,1.335769,601175,27748
1480.02,1.336278,597737,27557
1483.19,1.334157,594479,27541
1486.36,1.344938,591232,26719
1489.52,1.335979,587853,27120
1492.68,1.346942,583875,26265
1496.89,1.331899,578062,26920
1500.03,1.343808,574159,26015
1503.18,1.343212,570285,25875
1506.32,1.333641,565444,26227
1509.45,1.336674,560571,25820
1512.58,1.341900,555821,25295
1515.71,1.343773,550344,24938
1519.87,1.345782,543983,24536
1522.99,1.336982,538764,24798
1526.1,1.339598,533692,24417
1529.21,1.339510,527902,24157
1532.32,1.338506,521886,23937
1535.42,1.335358,515888,23834
1538.51,1.335236,509987,23568
1541.6,1.331363,503936,23497
1545.72,1.341229,494694,22548
1548.8,1.342266,488378,22207
1551.88,1.344479,481832,21798
1554.95,1.342431,474989,21590
1558.02,1.343946,467818,21190
1561.08,1.340669,460730,21027
1564.15,1.334524,454170,21023
1568.22,1.330103,444181,20771
1571.27,1.337665,436947,20080
1574.32,1.339214,429598,19672
1577.36,1.328644,422039,19802
1580.4,1.337978,414375,19029
1583.43,1.329420,406354,19032
1586.46,1.330935,398475,18598
1590.49,1.331963,388982,18112
1593.51,1.336439,380708,17545
1596.53,1.335106,372727,17230
1599.54,1.339986,365060,16687
1602.55,1.336187,357543,16487
1605.55,1.326089,349495,16495
1608.55,1.336194,341154,15731
1612.54,1.327294,330877,15573
1615.53,1.329292,322904,15128
1618.51,1.323800,315116,14951
1621.49,1.339059,307217,14073
1624.47,1.316802,299481,14440
1627.44,1.339450,292112,13369
1630.41,1.341893,284245,12936
1634.36,1.323231,274079,13021
1637.32,1.320388,266916,12764
1640.27,1.322834,259612,12345
1643.22,1.327088,251804,11857
1646.16,1.314400,244348,11847
1649.1,1.323553,236703,11237
1652.04,1.333364,228171,10590
1655.95,1.303716,215408,10704
1658.88,1.303745,204937,10183
1661.8,1.305533,193395,9570
1664.72,1.284408,179728,9337
1667.63,1.272185,163642,8744
1670.54,1.243178,146312,8358
1673.44,1.246129,128451,7288
1677.31,1.213985,105080,6420
1680.21,1.224246,88906,5305
1683.1,1.225723,75033,4462
1685.99,1.218806,63520,3838
1688.87,1.221692,53714,3224
1691.75,1.241666,45653,2617
1694.62,1.228600,39137,2312
1697.49,1.288059,33776,1740
1701.31,1.235815,28175,1637

File: Column 1_078260_20241121_165320.csv
Method:,Column 1,,
Host Date-Time:,21/11/24 @ 16:53:20,,
Header Version:,1,,
System Temp (C):,34.28,,
Detector Temp (C):,31.93,,
Humidity (%):,2.35,,
Lamp PD:,3803,,
Shift Vector Coefficients:,-10.5391,0.0761263,-0.000134223,,
Pixel to Wavelength Coefficients:,1775.68,-0.916766,-0.000235065,,
Serial Number:,5510004,,
Scan Config Name:,Column 1,,
Scan Config Type:,Slew,,
Section 1,,
Start wavelength (nm):,900,,
End wavelength (nm):,1700,,
Pattern Pixel Width (nm):,   7.03,,,,
Exposure (ms):,  0.635,,,,
Digital Resolution:,228,,
Num Repeats:,6,,
PGA Gain:,64,,
Total Measurement Time in sec:,  2.706,,
Wavelength (nm),Absorbance (AU),Reference Signal (unitless),Sample Signal (unitless)
901.51,1.313806,108485,5267
905.376,1.316652,121306,5851
909.237,1.340245,131909,6026
913.095,1.329197,143299,6715
916.948,1.311111,156982,7669
922.079,1.301747,179937,8982
925.923,1.323897,200504,9511
929.762,1.320497,222660,10645
933.597,1.326506,244426,11525
937.427,1.323780,263972,12525
941.254,1.321159,281845,13454
945.076,1.317210,297271,14320
950.165,1.314651,315605,15293
953.978,1.328194,328029,15407
957.786,1.323261,340470,16174
961.59,1.304293,352317,17484
965.389,1.318851,363056,17423
969.185,1.313595,373162,18126
972.976,1.305149,382632,18951
976.763,1.310868,391202,19122
981.806,1.314711,400190,19389
985.583,1.317940,406088,19529
989.355,1.302496,410162,20439
993.124,1.301228,412868,20634
996.888,1.306753,414263,20442
1000.65,1.316518,415476,20046
1004.4,1.305019,415479,20584
1009.41,1.313618,414358,20126
1013.15,1.312479,412923,20109
1016.89,1.312326,411526,20048
1020.63,1.319227,409066,19614
1024.36,1.316790,406777,19614
1028.09,1.312970,404427,19673
1031.82,1.312628,401911,19566
1036.78,1.314525,398410,19311
1040.49,1.312182,396204,19308
1044.2,1.309884,394236,19314
1047.91,1.314579,392042,19000
1051.61,1.319467,389823,18681
1055.31,1.305431,388234,19216
1059,1.317913,387599,18641
1063.92,1.308790,386688,18992
1067.61,1.312110,386598,18843
1071.29,1.307760,387377,19071
1074.96,1.316754,388536,18736
1078.63,1.329236,389855,18267
1082.3,1.314944,391215,18944
1085.96,1.316288,393215,18982
1090.84,1.314102,396270,19226
1094.49,1.313492,398760,19374
1098.14,1.324880,400987,18978
1101.79,1.320014,403477,19311
1105.43,1.319954,406116,19440
1109.06,1.316913,407701,19653
1112.7,1.325707,409859,19361
1117.53,1.313282,412494,20051
1121.15,1.315752,414909,20054
1124.77,1.320256,416559,19926
1128.38,1.328300,418532,19653
1131.99,1.316457,419956,20265
1135.6,1.317376,421946,20318
1139.2,1.322969,423881,20150
1143.99,1.315879,426786,20622
1147.58,1.316414,428617,20685
1151.17,1.321012,431169,20589
1154.75,1.321455,433579,20683
1158.33,1.320581,436264,20853
1161.91,1.317346,439132,21147
1165.48,1.316610,442389,21340
1169.04,1.323651,446101,21173
1173.79,1.320496,451929,21606
1177.34,1.322090,456026,21722
1180.9,1.317304,461306,22217
1184.44,1.321350,467657,22314
1187.99,1.323297,473969,22514
1191.52,1.325698,479856,22668
1195.06,1.315077,487372,23593
1199.76,1.328503,497347,23343
1203.29,1.327511,504311,23724
1206.81,1.328604,511507,24002
1210.33,1.332028,519078,24166
1213.84,1.325170,527163,24933
1217.35,1.321903,534208,25457
1220.85,1.322654,540472,25711
1225.51,1.319312,549929,26363
1229.01,1.328645,556888,26129
1232.5,1.324896,562180,26606
1235.98,1.328095,567975,26683
1239.46,1.322111,574815,27379
1242.94,1.327597,582782,27410
1246.41,1.324237,591476,28035
1251.03,1.328204,604016,28369
1254.5,1.324798,612289,28984
1257.96,1.329021,619125,29024
1261.41,1.329724,624551,29231
1264.86,1.330791,629900,29409
1268.31,1.329511,634345,29704
1271.75,1.333406,638574,29635
1276.33,1.333132,642499,29836
1279.76,1.332136,645905,30063
1283.19,1.335601,648307,29935
1286.61,1.332199,650446,30270
1290.03,1.335207,652132,30139
1293.44,1.330178,653907,30573
1296.85,1.328540,655963,30785
1301.39,1.334066,657349,30460
1304.8,1.330767,657558,30702
1308.19,1.328888,658515,30880
1311.58,1.337945,658804,30256
1314.97,1.334365,659011,30516
1318.36,1.332060,658272,30644
1321.73,1.329873,658022,30787
1326.23,1.334767,657870,30435
1329.6,1.330707,656482,30656
1332.97,1.336459,654926,30181
1336.33,1.337971,653727,30021
1339.69,1.332821,652497,30322
1343.04,1.336981,649913,29914
1346.39,1.338993,647671,29673
1349.73,1.338056,645338,29630
1354.18,1.330739,641175,29939
1357.52,1.338224,638376,29299
1360.85,1.336664,635805,29286
1364.17,1.327281,633413,29813
1367.49,1.332202,631026,29366
1370.81,1.330149,628050,29366
1374.12,1.331787,625034,29115
1378.54,1.337463,620272,28518
1381.84,1.333464,616892,28625
1385.14,1.331544,613613,28599
1388.43,1.330794,611526,28551
1391.72,1.329436,610663,28600
1395.01,1.330129,610634,28553
1398.29,1.328551,611700,28707
1402.66,1.330928,614051,28660
1405.93,1.330136,616268,28816
1409.2,1.330623,617795,28855
1412.46,1.334143,618872,28672
1415.72,1.331350,619795,28900
1418.98,1.338214,620495,28479
1422.23,1.336695,621087,28606
1426.56,1.335881,621375,28673
1429.8,1.339135,621616,28470
1433.04,1.337423,622129,28606
1436.27,1.339698,621526,28429
1439.5,1.336668,621113,28609
1442.72,1.342126,620921,28243
1445.94,1.331322,620270,28924
1450.23,1.336017,618860,28548
1453.44,1.336175,617697,28484
1456.64,1.338395,616264,28273
1459.85,1.334729,614413,28427
1463.04,1.334830,612307,28323
1466.24,1.337404,610032,28051
1469.43,1.337396,607345,27928
1473.67,1.339426,603789,27635
1476.85,1.336333,601175,27712
1480.02,1.337936,597737,27452
1483.19,1.334504,594479,27519
1486.36,1.338869,591232,27095
1489.52,1.338179,587853,26983
1492.68,1.341291,583875,26609
1496.89,1.341936,578062,26305
1500.03,1.342126,574159,26116
1503.18,1.344018,570285,25827
1506.32,1.341292,565444,25769
1509.45,1.341971,560571,25507
1512.58,1.342003,555821,25289
1515.71,1.332208,550344,25611
1519.87,1.336674,543983,25056
1522.99,1.341223,538764,24557
1526.1,1.346808,533692,24015
1529.21,1.340572,527902,24098
1532.32,1.339414,521886,23887
1535.42,1.340122,515888,23574
1538.51,1.335679,509987,23544
1541.6,1.341574,503936,22951
1545.72,1.335774,494694,22833
1548.8,1.338935,488378,22378
1551.88,1.340019,481832,22023
1554.95,1.349202,474989,21256
1558.02,1.334138,467818,21674
1561.08,1.340421,460730,21039
1564.15,1.334214,454170,21038
1568.22,1.331946,444181,20683
1571.27,1.334562,436947,20224
1574.32,1.335039,429598,19862
1577.36,1.330930,422039,19698
1580.4,1.321387,414375,19770
1583.43,1.333731,406354,18844
1586.46,1.330865,398475,18601
1590.49,1.344417,388982,17600
1593.51,1.330026,380708,17806
1596.53,1.330617,372727,17409
1599.54,1.324996,365060,17273
1602.55,1.328019,357543,16800
1605.55,1.317460,349495,16826
1608.55,1.331799,341154,15891
1612.54,1.329559,330877,15492
1615.53,1.328689,322904,15149
1618.51,1.321569,315116,15028
1621.49,1.325718,307217,14512
1624.47,1.315511,299481,14483
1627.44,1.327310,292112,13748
1630.41,1.332297,284245,13225
1634.36,1.332775,274079,12738
1637.32,1.331031,266916,12455
1640.27,1.328250,259612,12192
1643.22,1.320797,251804,12030
1646.16,1.324751,244348,11568
1649.1,1.307021,236703,11673
1652.04,1.306414,228171,11268
1655.95,1.295278,215408,10914
1658.88,1.316863,204937,9880
1661.8,1.301288,193395,9664
1664.72,1.277029,179728,9497
1667.63,1.270846,163642,8771
1670.54,1.268919,146312,7877
1673.44,1.225133,128451,7649
1677.31,1.228289,105080,6212
1680.21,1.238814,88906,5130
1683.1,1.214577,75033,4578
1685.99,1.218127,63520,3844
1688.87,1.143613,53714,3859
1691.75,1.268534,45653,2460
1694.62,1.198837,39137,2476
1697.49,1.168204,33776,2293
1701.31,1.210815,28175,1734