Folder: textile_sorting_NIRSCAN_/ML/samples/unknown (part 74)

File: Column 1_078515_20241121_170627.csv
Method:,Column 1,,
Host Date-Time:,21/11/24 @ 17:6:27,,
Header Version:,1,,
System Temp (C):,34.67,,
Detector Temp (C):,33.88,,
Humidity (%):,1.86,,
Lamp PD:,3800,,
Shift Vector Coefficients:,-10.5391,0.0761263,-0.000134223,,
Pixel to Wavelength Coefficients:,1775.68,-0.916766,-0.000235065,,
Serial Number:,5510004,,
Scan Config Name:,Column 1,,
Scan Config Type:,Slew,,
Section 1,,
Start wavelength (nm):,900,,
End wavelength (nm):,1700,,
Pattern Pixel Width (nm):,   7.03,,,,
Exposure (ms):,  0.635,,,,
Digital Resolution:,228,,
Num Repeats:,6,,
PGA Gain:,64,,
Total Measurement Time in sec:,  2.730,,
Wavelength (nm),Absorbance (AU),Reference Signal (unitless),Sample Signal (unitless)
901.51,1.302253,108485,5409
905.376,1.300479,121306,6073
909.237,1.303901,131909,6552
913.095,1.312388,143299,6980
916.948,1.317673,156982,7554
922.079,1.303103,179937,8954
925.923,1.308863,200504,9846
929.762,1.320293,222660,10650
933.597,1.320519,244426,11685
937.427,1.313771,263972,12817
941.254,1.311960,281845,13742
945.076,1.312834,297271,14465
950.165,1.315305,315605,15270
953.978,1.318880,328029,15741
957.786,1.308661,340470,16727
961.59,1.311632,352317,17191
965.389,1.311853,363056,17706
969.185,1.311087,373162,18231
972.976,1.307700,382632,18840
976.763,1.304398,391202,19409
981.806,1.303042,400190,19917
985.583,1.310553,406088,19864
989.355,1.299151,410162,20597
993.124,1.298877,412868,20746
996.888,1.310080,414263,20286
1000.65,1.307301,415476,20476
1004.4,1.310903,415479,20307
1009.41,1.300818,414358,20728
1013.15,1.307881,412923,20323
1016.89,1.316746,411526,19845
1020.63,1.298517,409066,20572
1024.36,1.304801,406777,20163
1028.09,1.313058,404427,19669
1031.82,1.304122,401911,19953
1036.78,1.314503,398410,19312
1040.49,1.307461,396204,19519
1044.2,1.310041,394236,19307
1047.91,1.307415,392042,19316
1051.61,1.305445,389823,19294
1055.31,1.314982,388234,18798
1059,1.307804,387599,19080
1063.92,1.301488,386688,19314
1067.61,1.303800,386598,19207
1071.29,1.307829,387377,19068
1074.96,1.316870,388536,18731
1078.63,1.321904,389855,18578
1082.3,1.311291,391215,19104
1085.96,1.310290,393215,19246
1090.84,1.307378,396270,19526
1094.49,1.321204,398760,19033
1098.14,1.307915,400987,19734
1101.79,1.309592,403477,19780
1105.43,1.307816,406116,19991
1109.06,1.321221,407701,19459
1112.7,1.312583,409859,19955
1117.53,1.314583,412494,19991
1121.15,1.318097,414909,19946
1124.77,1.320235,416559,19927
1128.38,1.318662,418532,20094
1131.99,1.320570,419956,20074
1135.6,1.313800,421946,20486
1139.2,1.311106,423881,20708
1143.99,1.322030,426786,20332
1147.58,1.319131,428617,20556
1151.17,1.309686,431169,21133
1154.75,1.320218,433579,20742
1158.33,1.309072,436264,21413
1161.91,1.308664,439132,21574
1165.48,1.315127,442389,21413
1169.04,1.322320,446101,21238
1173.79,1.325632,451929,21352
1177.34,1.312382,456026,22213
1180.9,1.320088,461306,22075
1184.44,1.310263,467657,22891
1187.99,1.319552,473969,22709
1191.52,1.319232,479856,23008
1195.06,1.314489,487372,23625
1199.76,1.324134,497347,23579
1203.29,1.327145,504311,23744
1206.81,1.320147,511507,24474
1210.33,1.321342,519078,24768
1213.84,1.323345,527163,25038
1217.35,1.324882,534208,25283
1220.85,1.321389,540472,25786
1225.51,1.315050,549929,26623
1229.01,1.321066,556888,26589
1232.5,1.322714,562180,26740
1235.98,1.328648,567975,26649
1239.46,1.324193,574815,27248
1242.94,1.320587,582782,27856
1246.41,1.323849,591476,28060
1251.03,1.320948,604016,28847
1254.5,1.320089,612289,29300
1257.96,1.324718,619125,29313
1261.41,1.327753,624551,29364
1264.86,1.324138,629900,29863
1268.31,1.326117,634345,29937
1271.75,1.321382,638574,30467
1276.33,1.320324,642499,30729
1279.76,1.325399,645905,30533
1283.19,1.329550,648307,30355
1286.61,1.330438,650446,30393
1290.03,1.328657,652132,30597
1293.44,1.332228,653907,30429
1296.85,1.334778,655963,30346
1301.39,1.335537,657349,30357
1304.8,1.335375,657558,30378
1308.19,1.328860,658515,30882
1311.58,1.327212,658804,31013
1314.97,1.331783,659011,30698
1318.36,1.325296,658272,31125
1321.73,1.334896,658022,30433
1326.23,1.331568,657870,30660
1329.6,1.325931,656482,30995
1332.97,1.330755,654926,30580
1336.33,1.334499,653727,30262
1339.69,1.328474,652497,30627
1343.04,1.326226,649913,30664
1346.39,1.329496,647671,30329
1349.73,1.333927,645338,29913
1354.18,1.332702,641175,29804
1357.52,1.329028,638376,29926
1360.85,1.325986,635805,30015
1364.17,1.325914,633413,29907
1367.49,1.328594,631026,29611
1370.81,1.332359,628050,29217
1374.12,1.329436,625034,29273
1378.54,1.332196,620272,28866
1381.84,1.329913,616892,28860
1385.14,1.330225,613613,28686
1388.43,1.326510,611526,28834
1391.72,1.328677,610663,28650
1395.01,1.326977,610634,28761
1398.29,1.333679,611700,28370
1402.66,1.335437,614051,28364
1405.93,1.334072,616268,28556
1409.2,1.328386,617795,29004
1412.46,1.326545,618872,29178
1415.72,1.328848,619795,29067
1418.98,1.333497,620495,28790
1422.23,1.324894,621087,29394
1426.56,1.327971,621375,29200
1429.8,1.332865,621616,28884
1433.04,1.335711,622129,28719
1436.27,1.330358,621526,29047
1439.5,1.332077,621113,28913
1442.72,1.331073,620921,28971
1445.94,1.331307,620270,28925
1450.23,1.330289,618860,28927
1453.44,1.329547,617697,28922
1456.64,1.340319,616264,28148
1459.85,1.336904,614413,28285
1463.04,1.337475,612307,28151
1466.24,1.336538,610032,28107
1469.43,1.334652,607345,28105
1473.67,1.333867,603789,27991
1476.85,1.338927,601175,27547
1480.02,1.335695,597737,27594
1483.19,1.337084,594479,27356
1486.36,1.330330,591232,27633
1489.52,1.334971,587853,27183
1492.68,1.335439,583875,26970
1496.89,1.335463,578062,26700
1500.03,1.336836,574159,26436
1503.18,1.331014,570285,26612
1506.32,1.334951,565444,26148
1509.45,1.336792,560571,25813
1512.58,1.332458,555821,25851
1515.71,1.336280,550344,25372
1519.87,1.339421,543983,24898
1522.99,1.330395,538764,25177
1526.1,1.335809,533692,24631
1529.21,1.335448,527902,24384
1532.32,1.333384,521886,24221
1535.42,1.337258,515888,23730
1538.51,1.331000,509987,23799
1541.6,1.330514,503936,23543
1545.72,1.339729,494694,22626
1548.8,1.338159,488378,22418
1551.88,1.337581,481832,22147
1554.95,1.344852,474989,21470
1558.02,1.332179,467818,21772
1561.08,1.327527,460730,21673
1564.15,1.324618,454170,21508
1568.22,1.339679,444181,20318
1571.27,1.338206,436947,20055
1574.32,1.337759,429598,19738
1577.36,1.330512,422039,19717
1580.4,1.330847,414375,19344
1583.43,1.329192,406354,19042
1586.46,1.323939,398475,18900
1590.49,1.327241,388982,18310
1593.51,1.325488,380708,17993
1596.53,1.329571,372727,17451
1599.54,1.332887,365060,16962
1602.55,1.324159,357543,16950
1605.55,1.330481,349495,16329
1608.55,1.322846,341154,16222
1612.54,1.326514,330877,15601
1615.53,1.324780,322904,15286
1618.51,1.319724,315116,15092
1621.49,1.309966,307217,15048
1624.47,1.307312,299481,14759
1627.44,1.317719,292112,14055
1630.41,1.310584,284245,13903
1634.36,1.307993,274079,13486
1637.32,1.322263,266916,12709
1640.27,1.310624,259612,12697
1643.22,1.318529,251804,12093
1646.16,1.306517,244348,12064
1649.1,1.315209,236703,11455
1652.04,1.303418,228171,11346
1655.95,1.313689,215408,10461
1658.88,1.293378,204937,10429
1661.8,1.271673,193395,10346
1664.72,1.289179,179728,9235
1667.63,1.276076,163642,8666
1670.54,1.241466,146312,8391
1673.44,1.207552,128451,7965
1677.31,1.180474,105080,6935
1680.21,1.195348,88906,5670
1683.1,1.163867,75033,5145
1685.99,1.165821,63520,4336
1688.87,1.138133,53714,3908
1691.75,1.163925,45653,3130
1694.62,1.188096,39137,2538
1697.49,1.210545,33776,2080
1701.31,1.139808,28175,2042

File: Column 1_078516_20241121_170630.csv
Method:,Column 1,,
Host Date-Time:,21/11/24 @ 17:6:30,,
Header Version:,1,,
System Temp (C):,34.76,,
Detector Temp (C):,33.87,,
Humidity (%):,1.86,,
Lamp PD:,3800,,
Shift Vector Coefficients:,-10.5391,0.0761263,-0.000134223,,
Pixel to Wavelength Coefficients:,1775.68,-0.916766,-0.000235065,,
Serial Number:,5510004,,
Scan Config Name:,Column 1,,
Scan Config Type:,Slew,,
Section 1,,
Start wavelength (nm):,900,,
End wavelength (nm):,1700,,
Pattern Pixel Width (nm):,   7.03,,,,
Exposure (ms):,  0.635,,,,
Digital Resolution:,228,,
Num Repeats:,6,,
PGA Gain:,64,,
Total Measurement Time in sec:,  2.704,,
Wavelength (nm),Absorbance (AU),Reference Signal (unitless),Sample Signal (unitless)
901.51,1.307828,108485,5340
905.376,1.323460,121306,5760
909.237,1.314774,131909,6390
913.095,1.310587,143299,7009
916.948,1.316926,156982,7567
922.079,1.316701,179937,8678
925.923,1.316921,200504,9665
929.762,1.312132,222660,10852
933.597,1.323764,244426,11598
937.427,1.316832,263972,12727
941.254,1.318392,281845,13540
945.076,1.316694,297271,14337
950.165,1.310159,315605,15452
953.978,1.318163,328029,15767
957.786,1.309492,340470,16695
961.59,1.316561,352317,16997
965.389,1.319574,363056,17394
969.185,1.314315,373162,18096
972.976,1.318719,382632,18368
976.763,1.296966,391202,19744
981.806,1.308329,400190,19676
985.583,1.311977,406088,19799
989.355,1.309543,410162,20110
993.124,1.314825,412868,19998
996.888,1.309181,414263,20328
1000.65,1.303857,415476,20639
1004.4,1.298964,415479,20873
1009.41,1.309623,414358,20312
1013.15,1.312371,412923,20114
1016.89,1.309691,411526,20170
1020.63,1.304019,409066,20313
1024.36,1.317522,406777,19581
1028.09,1.312176,404427,19709
1031.82,1.316060,401911,19412
1036.78,1.308673,398410,19573
1040.49,1.314075,396204,19224
1044.2,1.304943,394236,19535
1047.91,1.302252,392042,19547
1051.61,1.306121,389823,19264
1055.31,1.311691,388234,18941
1059,1.308260,387599,19060
1063.92,1.312972,386688,18810
1067.61,1.313610,386598,18778
1071.29,1.304177,387377,19229
1074.96,1.317613,388536,18699
1078.63,1.313638,389855,18935
1082.3,1.317565,391215,18830
1085.96,1.311329,393215,19200
1090.84,1.315369,396270,19170
1094.49,1.311725,398760,19453
1098.14,1.315261,400987,19403
1101.79,1.306769,403477,19909
1105.43,1.315310,406116,19649
1109.06,1.324245,407701,19324
1112.7,1.322399,409859,19509
1117.53,1.308307,412494,20282
1121.15,1.329950,414909,19409
1124.77,1.327686,416559,19588
1128.38,1.321895,418532,19945
1131.99,1.318476,419956,20171
1135.6,1.317868,421946,20295
1139.2,1.320712,423881,20255
1143.99,1.314513,426786,20687
1147.58,1.325430,428617,20260
1151.17,1.324783,431169,20411
1154.75,1.317400,433579,20877
1158.33,1.317861,436264,20984
1161.91,1.320479,439132,20995
1165.48,1.316997,442389,21321
1169.04,1.321482,446101,21279
1173.79,1.315519,451929,21855
1177.34,1.319598,456026,21847
1180.9,1.315821,461306,22293
1184.44,1.314074,467657,22691
1187.99,1.323066,473969,22526
1191.52,1.318233,479856,23061
1195.06,1.322991,487372,23167
1199.76,1.321911,497347,23700
1203.29,1.319673,504311,24156
1206.81,1.321444,511507,24401
1210.33,1.326652,519078,24467
1213.84,1.327388,527163,24806
1217.35,1.321784,534208,25464
1220.85,1.322705,540472,25708
1225.51,1.319444,549929,26355
1229.01,1.312558,556888,27115
1232.5,1.326761,562180,26492
1235.98,1.325789,567975,26825
1239.46,1.322269,574815,27369
1242.94,1.321446,582782,27801
1246.41,1.318756,591476,28391
1251.03,1.325914,604016,28519
1254.5,1.328817,612289,28717
1257.96,1.323904,619125,29368
1261.41,1.325378,624551,29525
1264.86,1.331811,629900,29340
1268.31,1.325958,634345,29948
1271.75,1.325780,638574,30160
1276.33,1.325113,642499,30392
1279.76,1.330608,645905,30169
1283.19,1.325988,648307,30605
1286.61,1.324167,650446,30835
1290.03,1.328855,652132,30583
1293.44,1.331544,653907,30477
1296.85,1.326780,655963,30910
1301.39,1.328992,657349,30818
1304.8,1.330824,657558,30698
1308.19,1.331484,658515,30696
1311.58,1.332992,658804,30603
1314.97,1.330328,659011,30801
1318.36,1.332996,658272,30578
1321.73,1.333144,658022,30556
1326.23,1.334410,657870,30460
1329.6,1.333521,656482,30458
1332.97,1.333347,654926,30398
1336.33,1.333753,653727,30314
1339.69,1.329638,652497,30545
1343.04,1.324742,649913,30769
1346.39,1.333048,647671,30082
1349.73,1.325544,645338,30496
1354.18,1.327848,641175,30139
1357.52,1.329159,638376,29917
1360.85,1.330699,635805,29691
1364.17,1.332292,633413,29471
1367.49,1.331154,631026,29437
1370.81,1.322279,628050,29903
1374.12,1.330923,625034,29173
1378.54,1.329062,620272,29075
1381.84,1.323208,616892,29309
1385.14,1.329740,613613,28718
1388.43,1.325923,611526,28873
1391.72,1.325265,610663,28876
1395.01,1.327687,610634,28714
1398.29,1.327161,611700,28799
1402.66,1.331596,614051,28616
1405.93,1.321245,616268,29412
1409.2,1.334129,617795,28623
1412.46,1.332631,618872,28772
1415.72,1.328982,619795,29058
1418.98,1.333572,620495,28785
1422.23,1.332946,621087,28854
1426.56,1.333509,621375,28830
1429.8,1.326314,621616,29323
1433.04,1.330271,622129,29081
1436.27,1.327630,621526,29230
1439.5,1.332859,621113,28861
1442.72,1.332394,620921,28883
1445.94,1.337644,620270,28506
1450.23,1.331703,618860,28833
1453.44,1.337610,617697,28390
1456.64,1.334343,616264,28538
1459.85,1.331609,614413,28632
1463.04,1.327788,612307,28786
1466.24,1.335211,610032,28193
1469.43,1.324435,607345,28774
1473.67,1.334674,603789,27939
1476.85,1.333848,601175,27871
1480.02,1.332684,597737,27786
1483.19,1.335847,594479,27434
1486.36,1.339848,591232,27034
1489.52,1.337487,587853,27026
1492.68,1.333222,583875,27108
1496.89,1.335235,578062,26714
1500.03,1.334069,574159,26605
1503.18,1.338869,570285,26135
1506.32,1.333244,565444,26251
1509.45,1.331940,560571,26103
1512.58,1.337918,555821,25528
1515.71,1.330634,550344,25704
1519.87,1.335186,543983,25142
1522.99,1.342498,538764,24485
1526.1,1.343960,533692,24173
1529.21,1.333299,527902,24505
1532.32,1.323772,521886,24763
1535.42,1.336910,515888,23749
1538.51,1.330362,509987,23834
1541.6,1.329555,503936,23595
1545.72,1.337928,494694,22720
1548.8,1.328030,488378,22947
1551.88,1.334240,481832,22318
1554.95,1.335289,474989,21948
1558.02,1.328722,467818,21946
1561.08,1.334374,460730,21334
1564.15,1.328024,454170,21340
1568.22,1.340021,444181,20302
1571.27,1.333190,436947,20288
1574.32,1.332076,429598,19998
1577.36,1.336567,422039,19444
1580.4,1.327248,414375,19505
1583.43,1.330952,406354,18965
1586.46,1.327771,398475,18734
1590.49,1.322969,388982,18491
1593.51,1.330514,380708,17786
1596.53,1.334627,372727,17249
1599.54,1.338220,365060,16755
1602.55,1.326780,357543,16848
1605.55,1.323176,349495,16606
1608.55,1.333058,341154,15845
1612.54,1.330204,330877,15469
1615.53,1.318322,322904,15515
1618.51,1.315144,315116,15252
1621.49,1.323688,307217,14580
1624.47,1.318097,299481,14397
1627.44,1.324916,292112,13824
1630.41,1.306852,284245,14023
1634.36,1.314678,274079,13280
1637.32,1.316864,266916,12868
1640.27,1.332833,259612,12064
1643.22,1.325333,251804,11905
1646.16,1.312279,244348,11905
1649.1,1.312224,236703,11534
1652.04,1.305067,228171,11303
1655.95,1.312942,215408,10479
1658.88,1.287299,204937,10576
1661.8,1.279851,193395,10153
1664.72,1.281349,179728,9403
1667.63,1.254901,163642,9099
1670.54,1.233161,146312,8553
1673.44,1.218261,128451,7771
1677.31,1.185576,105080,6854
1680.21,1.170925,88906,5998
1683.1,1.163783,75033,5146
1685.99,1.186120,63520,4138
1688.87,1.176569,53714,3577
1691.75,1.152423,45653,3214
1694.62,1.166890,39137,2665
1697.49,1.071484,33776,2865
1701.31,1.173862,28175,1888

File: Column 1_078517_20241121_170633.csv
Method:,Column 1,,
Host Date-Time:,21/11/24 @ 17:6:33,,
Header Version:,1,,
System Temp (C):,34.86,,
Detector Temp (C):,33.87,,
Humidity (%):,1.96,,
Lamp PD:,3800,,
Shift Vector Coefficients:,-10.5391,0.0761263,-0.000134223,,
Pixel to Wavelength Coefficients:,1775.68,-0.916766,-0.000235065,,
Serial Number:,5510004,,
Scan Config Name:,Column 1,,
Scan Config Type:,Slew,,
Section 1,,
Start wavelength (nm):,900,,
End wavelength (nm):,1700,,
Pattern Pixel Width (nm):,   7.03,,,,
Exposure (ms):,  0.635,,,,
Digital Resolution:,228,,
Num Repeats:,6,,
PGA Gain:,64,,
Total Measurement Time in sec:,  2.728,,
Wavelength (nm),Absorbance (AU),Reference Signal (unitless),Sample Signal (unitless)
901.51,1.293982,108485,5513
905.376,1.319557,121306,5812
909.237,1.313620,131909,6407
913.095,1.299635,143299,7188
916.948,1.316697,156982,7571
922.079,1.318707,179937,8638
925.923,1.321983,200504,9553
929.762,1.316072,222660,10754
933.597,1.314209,244426,11856
937.427,1.302500,263972,13154
941.254,1.310667,281845,13783
945.076,1.327863,297271,13973
950.165,1.317700,315605,15186
953.978,1.312716,328029,15966
957.786,1.300202,340470,17056
961.59,1.302261,352317,17566
965.389,1.303593,363056,18046
969.185,1.308688,373162,18332
972.976,1.297337,382632,19295
976.763,1.302834,391202,19479
981.806,1.307954,400190,19693
985.583,1.303893,406088,20171
989.355,1.309457,410162,20114
993.124,1.311407,412868,20156
996.888,1.310873,414263,20249
1000.65,1.295645,415476,21033
1004.4,1.305420,415479,20565
1009.41,1.298374,414358,20845
1013.15,1.305367,412923,20441
1016.89,1.301924,411526,20534
1020.63,1.307260,409066,20162
1024.36,1.310242,406777,19912
1028.09,1.309452,404427,19833
1031.82,1.312761,401911,19560
1036.78,1.303095,398410,19826
1040.49,1.302330,396204,19751
1044.2,1.306814,394236,19451
1047.91,1.312345,392042,19098
1051.61,1.298390,389823,19610
1055.31,1.313897,388234,18845
1059,1.299195,387599,19462
1063.92,1.303449,386688,19227
1067.61,1.300691,386598,19345
1071.29,1.305217,387377,19183
1074.96,1.302683,388536,19353
1078.63,1.310074,389855,19091
1082.3,1.304233,391215,19417
1085.96,1.310944,393215,19217
1090.84,1.306933,396270,19546
1094.49,1.305607,398760,19729
1098.14,1.319445,400987,19217
1101.79,1.304572,403477,20010
1105.43,1.321296,406116,19380
1109.06,1.317731,407701,19616
1112.7,1.313258,409859,19924
1117.53,1.317001,412494,19880
1121.15,1.314800,414909,20098
1124.77,1.314304,416559,20201
1128.38,1.314425,418532,20291
1131.99,1.306898,419956,20716
1135.6,1.317654,421946,20305
1139.2,1.314305,423881,20556
1143.99,1.312857,426786,20766
1147.58,1.314884,428617,20758
1151.17,1.315979,431169,20829
1154.75,1.308424,433579,21313
1158.33,1.310168,436264,21359
1161.91,1.315461,439132,21239
1165.48,1.316793,442389,21331
1169.04,1.306991,446101,22001
1173.79,1.321381,451929,21562
1177.34,1.307464,456026,22466
1180.9,1.307887,461306,22704
1184.44,1.316646,467657,22557
1187.99,1.310449,473969,23190
1191.52,1.313047,479856,23338
1195.06,1.306114,487372,24085
1199.76,1.320594,497347,23772
1203.29,1.314260,504311,24459
1206.81,1.317846,511507,24604
1210.33,1.324015,519078,24616
1213.84,1.316718,527163,25423
1217.35,1.312938,534208,25988
1220.85,1.315833,540472,26118
1225.51,1.315017,549929,26625
1229.01,1.322325,556888,26512
1232.5,1.315690,562180,27176
1235.98,1.319760,567975,27200
1239.46,1.322126,574815,27378
1242.94,1.315704,582782,28171
1246.41,1.320043,591476,28307
1251.03,1.323121,604016,28703
1254.5,1.316767,612289,29525
1257.96,1.317314,619125,29817
1261.41,1.321979,624551,29757
1264.86,1.326018,629900,29734
1268.31,1.326901,634345,29883
1271.75,1.328235,638574,29990
1276.33,1.327952,642499,30194
1279.76,1.323214,645905,30687
1283.19,1.322399,648307,30859
1286.61,1.325465,650446,30743
1290.03,1.326745,652132,30732
1293.44,1.323860,653907,31021
1296.85,1.327526,655963,30857
1301.39,1.320521,657349,31425
1304.8,1.322112,657558,31320
1308.19,1.326994,658515,31015
1311.58,1.324824,658804,31184
1314.97,1.324947,659011,31185
1318.36,1.326582,658272,31033
1321.73,1.322585,658022,31308
1326.23,1.327873,657870,30922
1329.6,1.322234,656482,31260
1332.97,1.325265,654926,30969
1336.33,1.327382,653727,30762
1339.69,1.326592,652497,30760
1343.04,1.329982,649913,30400
1346.39,1.329912,647671,30300
1349.73,1.330010,645338,30184
1354.18,1.327588,641175,30157
1357.52,1.325343,638376,30181
1360.85,1.320951,635805,30365
1364.17,1.326466,633413,29869
1367.49,1.322651,631026,30019
1370.81,1.324113,628050,29777
1374.12,1.320872,625034,29856
1378.54,1.322157,620272,29541
1381.84,1.318653,616892,29618
1385.14,1.326801,613613,28913
1388.43,1.325142,611526,28925
1391.72,1.316775,610663,29446
1395.01,1.317168,610634,29418
1398.29,1.321245,611700,29194
1402.66,1.319267,614051,29440
1405.93,1.318874,616268,29573
1409.2,1.330262,617795,28879
1412.46,1.324600,618872,29309
1415.72,1.330539,619795,28954
1418.98,1.324834,620495,29370
1422.23,1.325145,621087,29377
1426.56,1.333645,621375,28821
1429.8,1.324806,621616,29425
1433.04,1.330092,622129,29093
1436.27,1.329566,621526,29100
1439.5,1.326570,621113,29282
1442.72,1.326006,620921,29311
1445.94,1.332074,620270,28874
1450.23,1.325838,618860,29225
1453.44,1.326674,617697,29114
1456.64,1.334069,616264,28556
1459.85,1.335739,614413,28361
1463.04,1.330391,612307,28614
1466.24,1.330355,610032,28510
1469.43,1.328560,607345,28502
1473.67,1.330559,603789,28205
1476.85,1.334800,601175,27810
1480.02,1.330144,597737,27949
1483.19,1.332159,594479,27668
1486.36,1.333453,591232,27435
1489.52,1.330205,587853,27483
1492.68,1.321292,583875,27863
1496.89,1.336668,578062,26626
1500.03,1.328167,574159,26969
1503.18,1.329613,570285,26698
1506.32,1.330260,565444,26432
1509.45,1.330943,560571,26163
1512.58,1.334124,555821,25752
1515.71,1.332462,550344,25596
1519.87,1.333169,543983,25259
1522.99,1.333476,538764,24999
1526.1,1.332786,533692,24803
1529.21,1.334701,527902,24426
1532.32,1.332399,521886,24276
1535.42,1.335614,515888,23820
1538.51,1.334169,509987,23626
1541.6,1.322273,503936,23994
1545.72,1.327298,494694,23283
1548.8,1.334609,488378,22602
1551.88,1.329768,481832,22549
1554.95,1.333728,474989,22027
1558.02,1.328207,467818,21972
1561.08,1.333378,460730,21383
1564.15,1.330944,454170,21197
1568.22,1.327580,444181,20892
1571.27,1.330820,436947,20399
1574.32,1.324135,429598,20367
1577.36,1.324866,422039,19975
1580.4,1.320378,414375,19816
1583.43,1.326282,406354,19170
1586.46,1.319459,398475,19096
1590.49,1.334922,388982,17989
1593.51,1.314855,380708,18439
1596.53,1.321215,372727,17790
1599.54,1.329190,365060,17107
1602.55,1.337559,357543,16435
1605.55,1.312941,349495,17002
1608.55,1.319885,341154,16333
1612.54,1.325874,330877,15624
1615.53,1.314393,322904,15656
1618.51,1.319637,315116,15095
1621.49,1.333874,307217,14242
1624.47,1.307518,299481,14752
1627.44,1.332682,292112,13579
1630.41,1.316877,284245,13703
1634.36,1.326849,274079,12913
1637.32,1.311430,266916,13030
1640.27,1.311206,259612,12680
1643.22,1.307851,251804,12394
1646.16,1.319007,244348,11722
1649.1,1.302027,236703,11808
1652.04,1.310285,228171,11168
1655.95,1.292264,215408,10990
1658.88,1.297436,204937,10332
1661.8,1.281265,193395,10120
1664.72,1.257448,179728,9935
1667.63,1.240121,163642,9414
1670.54,1.245365,146312,8316
1673.44,1.231943,128451,7530
1677.31,1.177416,105080,6984
1680.21,1.169046,88906,6024
1683.1,1.145683,75033,5365
1685.99,1.174624,63520,4249
1688.87,1.180226,53714,3547
1691.75,1.158958,45653,3166
1694.62,1.119247,39137,2974
1697.49,1.163682,33776,2317
1701.31,1.171110,28175,1900