Folder: textile_sorting_NIRSCAN_/ML/samples/unknown (part 28)

File: Column 1_078179_20241121_164921.csv
Method:,Column 1,,
Host Date-Time:,21/11/24 @ 16:49:21,,
Header Version:,1,,
System Temp (C):,33.63,,
Detector Temp (C):,30.07,,
Humidity (%):,3.23,,
Lamp PD:,3804,,
Shift Vector Coefficients:,-10.5391,0.0761263,-0.000134223,,
Pixel to Wavelength Coefficients:,1775.68,-0.916766,-0.000235065,,
Serial Number:,5510004,,
Scan Config Name:,Column 1,,
Scan Config Type:,Slew,,
Section 1,,
Start wavelength (nm):,900,,
End wavelength (nm):,1700,,
Pattern Pixel Width (nm):,   7.03,,,,
Exposure (ms):,  0.635,,,,
Digital Resolution:,228,,
Num Repeats:,6,,
PGA Gain:,64,,
Total Measurement Time in sec:,  2.726,,
Wavelength (nm),Absorbance (AU),Reference Signal (unitless),Sample Signal (unitless)
901.51,1.302333,108485,5408
905.376,1.336626,121306,5588
909.237,1.336943,131909,6072
913.095,1.324757,143299,6784
916.948,1.313041,156982,7635
922.079,1.322799,179937,8557
925.923,1.327473,200504,9433
929.762,1.322418,222660,10598
933.597,1.290925,244426,12509
937.427,1.310396,263972,12917
941.254,1.319934,281845,13492
945.076,1.309157,297271,14588
950.165,1.310412,315605,15443
953.978,1.314843,328029,15888
957.786,1.304835,340470,16875
961.59,1.316842,352317,16986
965.389,1.318452,363056,17439
969.185,1.313140,373162,18145
972.976,1.315938,382632,18486
976.763,1.314196,391202,18976
981.806,1.307888,400190,19696
985.583,1.309026,406088,19934
989.355,1.311969,410162,19998
993.124,1.310890,412868,20180
996.888,1.309395,414263,20318
1000.65,1.307046,415476,20488
1004.4,1.314684,415479,20131
1009.41,1.311230,414358,20237
1013.15,1.307198,412923,20355
1016.89,1.323828,411526,19524
1020.63,1.308403,409066,20109
1024.36,1.318699,406777,19528
1028.09,1.310592,404427,19781
1031.82,1.311830,401911,19602
1036.78,1.311545,398410,19444
1040.49,1.318434,396204,19032
1044.2,1.309390,394236,19336
1047.91,1.311255,392042,19146
1051.61,1.309539,389823,19113
1055.31,1.309997,388234,19015
1059,1.314456,387599,18790
1063.92,1.319274,386688,18539
1067.61,1.318167,386598,18582
1071.29,1.312892,387377,18847
1074.96,1.316083,388536,18765
1078.63,1.317647,389855,18761
1082.3,1.317981,391215,18812
1085.96,1.315168,393215,19031
1090.84,1.319100,396270,19006
1094.49,1.316958,398760,19220
1098.14,1.316562,400987,19345
1101.79,1.321117,403477,19262
1105.43,1.318549,406116,19503
1109.06,1.329718,407701,19082
1112.7,1.317243,409859,19742
1117.53,1.324849,412494,19524
1121.15,1.326939,414909,19544
1124.77,1.315100,416559,20164
1128.38,1.330982,418532,19532
1131.99,1.319878,419956,20106
1135.6,1.309182,421946,20705
1139.2,1.317699,423881,20396
1143.99,1.324794,426786,20203
1147.58,1.321376,428617,20450
1151.17,1.324230,431169,20437
1154.75,1.325357,433579,20498
1158.33,1.316993,436264,21026
1161.91,1.325117,439132,20772
1165.48,1.315573,442389,21391
1169.04,1.314658,446101,21616
1173.79,1.317851,451929,21738
1177.34,1.309984,456026,22336
1180.9,1.321784,461306,21989
1184.44,1.314974,467657,22644
1187.99,1.318425,473969,22768
1191.52,1.326561,479856,22623
1195.06,1.316091,487372,23538
1199.76,1.321417,497347,23727
1203.29,1.326067,504311,23803
1206.81,1.323424,511507,24290
1210.33,1.322219,519078,24718
1213.84,1.324874,527163,24950
1217.35,1.332471,534208,24845
1220.85,1.327427,540472,25430
1225.51,1.325534,549929,25988
1229.01,1.329111,556888,26101
1232.5,1.326597,562180,26502
1235.98,1.325968,567975,26814
1239.46,1.322698,574815,27342
1242.94,1.326205,582782,27498
1246.41,1.324996,591476,27986
1251.03,1.327730,604016,28400
1254.5,1.326419,612289,28876
1257.96,1.328199,619125,29079
1261.41,1.331421,624551,29117
1264.86,1.327760,629900,29615
1268.31,1.331930,634345,29539
1271.75,1.325924,638574,30150
1276.33,1.326272,642499,30311
1279.76,1.333091,645905,29997
1283.19,1.329851,648307,30334
1286.61,1.329325,650446,30471
1290.03,1.331333,652132,30409
1293.44,1.328717,653907,30676
1296.85,1.329133,655963,30743
1301.39,1.326028,657349,31029
1304.8,1.334661,657558,30428
1308.19,1.331824,658515,30672
1311.58,1.332950,658804,30606
1314.97,1.334479,659011,30508
1318.36,1.332556,658272,30609
1321.73,1.327061,658022,30987
1326.23,1.337803,657870,30223
1329.6,1.336067,656482,30280
1332.97,1.330783,654926,30578
1336.33,1.331995,653727,30437
1339.69,1.335320,652497,30148
1343.04,1.336357,649913,29957
1346.39,1.331851,647671,30165
1349.73,1.328230,645338,30308
1354.18,1.331218,641175,29906
1357.52,1.337261,638376,29364
1360.85,1.334017,635805,29465
1364.17,1.328346,633413,29740
1367.49,1.328257,631026,29634
1370.81,1.325340,628050,29693
1374.12,1.327379,625034,29412
1378.54,1.328779,620272,29094
1381.84,1.327003,616892,29054
1385.14,1.329136,613613,28758
1388.43,1.325006,611526,28934
1391.72,1.324799,610663,28907
1395.01,1.329293,610634,28608
1398.29,1.331496,611700,28513
1402.66,1.325642,614051,29011
1405.93,1.330634,616268,28783
1409.2,1.328327,617795,29008
1412.46,1.327663,618872,29103
1415.72,1.329237,619795,29041
1418.98,1.330265,620495,29005
1422.23,1.328514,621087,29150
1426.56,1.331046,621375,28994
1429.8,1.334597,621616,28769
1433.04,1.336877,622129,28642
1436.27,1.335230,621526,28723
1439.5,1.332904,621113,28858
1442.72,1.334686,620921,28731
1445.94,1.338392,620270,28457
1450.23,1.331642,618860,28837
1453.44,1.342255,617697,28088
1456.64,1.337398,616264,28338
1459.85,1.337411,614413,28252
1463.04,1.329723,612307,28658
1466.24,1.334826,610032,28218
1469.43,1.333849,607345,28157
1473.67,1.344198,603789,27333
1476.85,1.336051,601175,27730
1480.02,1.336704,597737,27530
1483.19,1.333180,594479,27603
1486.36,1.333675,591232,27421
1489.52,1.334524,587853,27211
1492.68,1.350029,583875,26079
1496.89,1.335658,578062,26688
1500.03,1.340946,574159,26187
1503.18,1.341938,570285,25951
1506.32,1.337366,565444,26003
1509.45,1.339154,560571,25673
1512.58,1.338463,555821,25496
1515.71,1.335049,550344,25444
1519.87,1.341694,543983,24768
1522.99,1.346544,538764,24258
1526.1,1.341881,533692,24289
1529.21,1.333547,527902,24491
1532.32,1.332184,521886,24288
1535.42,1.336106,515888,23793
1538.51,1.340688,509987,23274
1541.6,1.338745,503936,23101
1545.72,1.341036,494694,22558
1548.8,1.343873,488378,22125
1551.88,1.337012,481832,22176
1554.95,1.332272,474989,22101
1558.02,1.343639,467818,21205
1561.08,1.338835,460730,21116
1564.15,1.335682,454170,20967
1568.22,1.338676,444181,20365
1571.27,1.332377,436947,20326
1574.32,1.339965,429598,19638
1577.36,1.336813,422039,19433
1580.4,1.338549,414375,19004
1583.43,1.326804,406354,19147
1586.46,1.337523,398475,18318
1590.49,1.334368,388982,18012
1593.51,1.332447,380708,17707
1596.53,1.326273,372727,17584
1599.54,1.335842,365060,16847
1602.55,1.331836,357543,16653
1605.55,1.334597,349495,16175
1608.55,1.331444,341154,15904
1612.54,1.346364,330877,14904
1615.53,1.332230,322904,15026
1618.51,1.320645,315116,15060
1621.49,1.335585,307217,14186
1624.47,1.328817,299481,14046
1627.44,1.328100,292112,13723
1630.41,1.330135,284245,13291
1634.36,1.325137,274079,12964
1637.32,1.317776,266916,12841
1640.27,1.342369,259612,11802
1643.22,1.323368,251804,11959
1646.16,1.320603,244348,11679
1649.1,1.315854,236703,11438
1652.04,1.312312,228171,11116
1655.95,1.308202,215408,10594
1658.88,1.282440,204937,10695
1661.8,1.299226,193395,9710
1664.72,1.305421,179728,8896
1667.63,1.305517,163642,8098
1670.54,1.279015,146312,7696
1673.44,1.280852,128451,6728
1677.31,1.277619,105080,5545
1680.21,1.265434,88906,4825
1683.1,1.243606,75033,4282
1685.99,1.246608,63520,3600
1688.87,1.215009,53714,3274
1691.75,1.244162,45653,2602
1694.62,1.263597,39137,2133
1697.49,1.311388,33776,1649
1701.31,1.323733,28175,1337

File: Column 1_078180_20241121_164924.csv
Method:,Column 1,,
Host Date-Time:,21/11/24 @ 16:49:24,,
Header Version:,1,,
System Temp (C):,33.57,,
Detector Temp (C):,30.1,,
Humidity (%):,3.23,,
Lamp PD:,3804,,
Shift Vector Coefficients:,-10.5391,0.0761263,-0.000134223,,
Pixel to Wavelength Coefficients:,1775.68,-0.916766,-0.000235065,,
Serial Number:,5510004,,
Scan Config Name:,Column 1,,
Scan Config Type:,Slew,,
Section 1,,
Start wavelength (nm):,900,,
End wavelength (nm):,1700,,
Pattern Pixel Width (nm):,   7.03,,,,
Exposure (ms):,  0.635,,,,
Digital Resolution:,228,,
Num Repeats:,6,,
PGA Gain:,64,,
Total Measurement Time in sec:,  2.722,,
Wavelength (nm),Absorbance (AU),Reference Signal (unitless),Sample Signal (unitless)
901.51,1.310848,108485,5303
905.376,1.302630,121306,6043
909.237,1.340317,131909,6025
913.095,1.324182,143299,6793
916.948,1.321600,156982,7486
922.079,1.314504,179937,8722
925.923,1.327473,200504,9433
929.762,1.307436,222660,10970
933.597,1.306404,244426,12071
937.427,1.316559,263972,12735
941.254,1.317143,281845,13579
945.076,1.317634,297271,14306
950.165,1.313432,315605,15336
953.978,1.319184,328029,15730
957.786,1.311579,340470,16615
961.59,1.316715,352317,16991
965.389,1.314609,363056,17594
969.185,1.315396,373162,18051
972.976,1.303092,382632,19041
976.763,1.309666,391202,19175
981.806,1.312009,400190,19510
985.583,1.313779,406088,19717
989.355,1.309090,410162,20131
993.124,1.313415,412868,20063
996.888,1.314167,414263,20096
1000.65,1.304131,415476,20626
1004.4,1.319696,415479,19900
1009.41,1.310693,414358,20262
1013.15,1.312824,412923,20093
1016.89,1.315043,411526,19923
1020.63,1.311307,409066,19975
1024.36,1.312428,406777,19812
1028.09,1.311955,404427,19719
1031.82,1.320716,401911,19205
1036.78,1.324673,398410,18865
1040.49,1.306350,396204,19569
1044.2,1.315383,394236,19071
1047.91,1.321863,392042,18684
1051.61,1.318075,389823,18741
1055.31,1.316000,388234,18754
1059,1.314225,387599,18800
1063.92,1.323606,386688,18355
1067.61,1.306841,386598,19073
1071.29,1.324308,387377,18358
1074.96,1.315713,388536,18781
1078.63,1.321157,389855,18610
1082.3,1.316966,391215,18856
1085.96,1.310470,393215,19238
1090.84,1.314939,396270,19189
1094.49,1.317026,398760,19217
1098.14,1.315127,400987,19409
1101.79,1.312943,403477,19628
1105.43,1.308316,406116,19968
1109.06,1.308574,407701,20034
1112.7,1.323157,409859,19475
1117.53,1.322763,412494,19618
1121.15,1.325320,414909,19617
1124.77,1.322770,416559,19811
1128.38,1.321503,418532,19963
1131.99,1.317487,419956,20217
1135.6,1.318768,421946,20253
1139.2,1.321807,423881,20204
1143.99,1.328421,426786,20035
1147.58,1.316477,428617,20682
1151.17,1.328394,431169,20242
1154.75,1.321329,433579,20689
1158.33,1.323276,436264,20724
1161.91,1.323739,439132,20838
1165.48,1.319325,442389,21207
1169.04,1.319527,446101,21375
1173.79,1.326120,451929,21328
1177.34,1.316133,456026,22022
1180.9,1.316405,461306,22263
1184.44,1.316146,467657,22583
1187.99,1.320356,473969,22667
1191.52,1.315436,479856,23210
1195.06,1.310809,487372,23826
1199.76,1.321234,497347,23737
1203.29,1.323465,504311,23946
1206.81,1.324462,511507,24232
1210.33,1.321693,519078,24748
1213.84,1.326479,527163,24858
1217.35,1.319657,534208,25589
1220.85,1.324958,540472,25575
1225.51,1.328535,549929,25809
1229.01,1.328761,556888,26122
1232.5,1.330928,562180,26239
1235.98,1.324529,567975,26903
1239.46,1.325534,574815,27164
1242.94,1.328517,582782,27352
1246.41,1.325804,591476,27934
1251.03,1.325184,604016,28567
1254.5,1.326826,612289,28849
1257.96,1.331407,619125,28865
1261.41,1.329873,624551,29221
1264.86,1.324429,629900,29843
1268.31,1.327862,634345,29817
1271.75,1.331914,638574,29737
1276.33,1.334780,642499,29723
1279.76,1.326196,645905,30477
1283.19,1.328365,648307,30438
1286.61,1.328769,650446,30510
1290.03,1.331691,652132,30384
1293.44,1.330747,653907,30533
1296.85,1.330010,655963,30681
1301.39,1.329894,657349,30754
1304.8,1.336420,657558,30305
1308.19,1.333043,658515,30586
1311.58,1.328096,658804,30950
1314.97,1.333413,659011,30583
1318.36,1.334618,658272,30464
1321.73,1.331583,658022,30666
1326.23,1.333570,657870,30519
1329.6,1.337705,656482,30166
1332.97,1.330414,654926,30604
1336.33,1.337335,653727,30065
1339.69,1.333021,652497,30308
1343.04,1.333726,649913,30139
1346.39,1.329267,647671,30345
1349.73,1.332680,645338,29999
1354.18,1.329797,641175,30004
1357.52,1.335431,638376,29488
1360.85,1.325581,635805,30043
1364.17,1.331718,633413,29510
1367.49,1.329710,631026,29535
1370.81,1.326556,628050,29610
1374.12,1.334150,625034,28957
1378.54,1.331219,620272,28931
1381.84,1.331617,616892,28747
1385.14,1.330361,613613,28677
1388.43,1.329563,611526,28632
1391.72,1.331948,610663,28435
1395.01,1.326283,610634,28807
1398.29,1.326077,611700,28871
1402.66,1.325088,614051,29048
1405.93,1.337692,616268,28319
1409.2,1.333887,617795,28639
1412.46,1.331455,618872,28850
1415.72,1.326776,619795,29206
1418.98,1.336433,620495,28596
1422.23,1.330425,621087,29022
1426.56,1.343182,621375,28195
1429.8,1.333708,621616,28828
1433.04,1.333404,622129,28872
1436.27,1.333856,621526,28814
1439.5,1.334231,621113,28770
1442.72,1.333252,620921,28826
1445.94,1.336625,620270,28573
1450.23,1.334498,618860,28648
1453.44,1.338713,617697,28318
1456.64,1.337766,616264,28314
1459.85,1.332550,614413,28570
1463.04,1.337537,612307,28147
1466.24,1.334273,610032,28254
1469.43,1.339750,607345,27777
1473.67,1.339064,603789,27658
1476.85,1.333537,601175,27891
1480.02,1.335538,597737,27604
1483.19,1.337068,594479,27357
1486.36,1.333865,591232,27409
1489.52,1.331550,587853,27398
1492.68,1.340835,583875,26637
1496.89,1.331255,578062,26960
1500.03,1.345280,574159,25927
1503.18,1.336533,570285,26276
1506.32,1.338956,565444,25908
1509.45,1.337651,560571,25762
1512.58,1.335053,555821,25697
1515.71,1.341740,550344,25055
1519.87,1.337923,543983,24984
1522.99,1.342321,538764,24495
1526.1,1.340150,533692,24386
1529.21,1.335930,527902,24357
1532.32,1.349047,521886,23363
1535.42,1.338265,515888,23675
1538.51,1.336676,509987,23490
1541.6,1.346675,503936,22683
1545.72,1.338120,494694,22710
1548.8,1.339498,488378,22349
1551.88,1.330539,481832,22509
1554.95,1.338108,474989,21806
1558.02,1.334739,467818,21644
1561.08,1.331635,460730,21469
1564.15,1.338592,454170,20827
1568.22,1.336909,444181,20448
1571.27,1.332078,436947,20340
1574.32,1.331360,429598,20031
1577.36,1.337932,422039,19383
1580.4,1.337567,414375,19047
1583.43,1.336645,406354,18718
1586.46,1.340831,398475,18179
1590.49,1.336907,388982,17907
1593.51,1.330001,380708,17807
1596.53,1.328725,372727,17485
1599.54,1.327164,365060,17187
1602.55,1.336846,357543,16462
1605.55,1.320855,349495,16695
1608.55,1.332538,341154,15864
1612.54,1.329167,330877,15506
1615.53,1.325377,322904,15265
1618.51,1.326861,315116,14846
1621.49,1.325210,307217,14529
1624.47,1.326996,299481,14105
1627.44,1.321006,292112,13949
1630.41,1.315896,284245,13734
1634.36,1.318785,274079,13155
1637.32,1.302817,266916,13291
1640.27,1.322271,259612,12361
1643.22,1.325771,251804,11893
1646.16,1.308502,244348,12009
1649.1,1.310420,236703,11582
1652.04,1.307765,228171,11233
1655.95,1.325898,215408,10171
1658.88,1.307170,204937,10103
1661.8,1.290678,193395,9903
1664.72,1.297727,179728,9055
1667.63,1.290236,163642,8388
1670.54,1.299761,146312,7337
1673.44,1.267253,128451,6942
1677.31,1.270935,105080,5631
1680.21,1.271963,88906,4753
1683.1,1.288890,75033,3858
1685.99,1.254153,63520,3538
1688.87,1.197460,53714,3409
1691.75,1.226660,45653,2709
1694.62,1.198136,39137,2480
1697.49,1.202682,33776,2118
1701.31,1.404932,28175,1109

File: Column 1_078188_20241121_164948.csv
Method:,Column 1,,
Host Date-Time:,21/11/24 @ 16:49:48,,
Header Version:,1,,
System Temp (C):,33.73,,
Detector Temp (C):,30.33,,
Humidity (%):,3.13,,
Lamp PD:,3804,,
Shift Vector Coefficients:,-10.5391,0.0761263,-0.000134223,,
Pixel to Wavelength Coefficients:,1775.68,-0.916766,-0.000235065,,
Serial Number:,5510004,,
Scan Config Name:,Column 1,,
Scan Config Type:,Slew,,
Section 1,,
Start wavelength (nm):,900,,
End wavelength (nm):,1700,,
Pattern Pixel Width (nm):,   7.03,,,,
Exposure (ms):,  0.635,,,,
Digital Resolution:,228,,
Num Repeats:,6,,
PGA Gain:,64,,
Total Measurement Time in sec:,  2.707,,
Wavelength (nm),Absorbance (AU),Reference Signal (unitless),Sample Signal (unitless)
901.51,1.311012,108485,5301
905.376,1.305731,121306,6000
909.237,1.325090,131909,6240
913.095,1.320489,143299,6851
916.948,1.339121,156982,7190
922.079,1.335624,179937,8308
925.923,1.310188,200504,9816
929.762,1.307673,222660,10964
933.597,1.313258,244426,11882
937.427,1.323468,263972,12534
941.254,1.317911,281845,13555
945.076,1.311515,297271,14509
950.165,1.316530,315605,15227
953.978,1.325777,328029,15493
957.786,1.309206,340470,16706
961.59,1.310926,352317,17219
965.389,1.307509,363056,17884
969.185,1.303600,373162,18548
972.976,1.311172,382632,18690
976.763,1.307700,391202,19262
981.806,1.306985,400190,19737
985.583,1.307351,406088,20011
989.355,1.316444,410162,19793
993.124,1.312853,412868,20089
996.888,1.317464,414263,19944
1000.65,1.311093,415476,20298
1004.4,1.304281,415479,20619
1009.41,1.312993,414358,20155
1013.15,1.305048,412923,20456
1016.89,1.306709,411526,20309
1020.63,1.311698,409066,19957
1024.36,1.312494,406777,19809
1028.09,1.327538,404427,19024
1031.82,1.307574,401911,19795
1036.78,1.316306,398410,19232
1040.49,1.315251,396204,19172
1044.2,1.313610,394236,19149
1047.91,1.317952,392042,18853
1051.61,1.311474,389823,19028
1055.31,1.314612,388234,18814
1059,1.311117,387599,18935
1063.92,1.306896,386688,19075
1067.61,1.318401,386598,18572
1071.29,1.312454,387377,18866
1074.96,1.325039,388536,18382
1078.63,1.315569,389855,18851
1082.3,1.322436,391215,18620
1085.96,1.316815,393215,18959
1090.84,1.318507,396270,19032
1094.49,1.311792,398760,19450
1098.14,1.317213,400987,19316
1101.79,1.312390,403477,19653
1105.43,1.319999,406116,19438
1109.06,1.313348,407701,19815
1112.7,1.320534,409859,19593
1117.53,1.325517,412494,19494
1121.15,1.318315,414909,19936
1124.77,1.323384,416559,19783
1128.38,1.324844,418532,19810
1131.99,1.326385,419956,19807
1135.6,1.327803,421946,19836
1139.2,1.313061,423881,20615
1143.99,1.326582,426786,20120
1147.58,1.322908,428617,20378
1151.17,1.326168,431169,20346
1154.75,1.317775,433579,20859
1158.33,1.328229,436264,20489
1161.91,1.322220,439132,20911
1165.48,1.324351,442389,20963
1169.04,1.316288,446101,21535
1173.79,1.322450,451929,21509
1177.34,1.319141,456026,21870
1180.9,1.320955,461306,22031
1184.44,1.316146,467657,22583
1187.99,1.321814,473969,22591
1191.52,1.326868,479856,22607
1195.06,1.314893,487372,23603
1199.76,1.324005,497347,23586
1203.29,1.330026,504311,23587
1206.81,1.325395,511507,24180
1210.33,1.320326,519078,24826
1213.84,1.325118,527163,24936
1217.35,1.326517,534208,25188
1220.85,1.334330,540472,25029
1225.51,1.327309,549929,25882
1229.01,1.329460,556888,26080
1232.5,1.324341,562180,26640
1235.98,1.328127,567975,26681
1239.46,1.323111,574815,27316
1242.94,1.330379,582782,27235
1246.41,1.325804,591476,27934
1251.03,1.328434,604016,28354
1254.5,1.326750,612289,28854
1257.96,1.332461,619125,28795
1261.41,1.329501,624551,29246
1264.86,1.332671,629900,29282
1268.31,1.333491,634345,29433
1271.75,1.331943,638574,29735
1276.33,1.330693,642499,30004
1279.76,1.330133,645905,30202
1283.19,1.327509,648307,30498
1286.61,1.330195,650446,30410
1290.03,1.330634,652132,30458
1293.44,1.333515,653907,30339
1296.85,1.330279,655963,30662
1301.39,1.329527,657349,30780
1304.8,1.332085,657558,30609
1308.19,1.337324,658515,30286
1311.58,1.337428,658804,30292
1314.97,1.332136,659011,30673
1318.36,1.333380,658272,30551
1321.73,1.334781,658022,30441
1326.23,1.336712,657870,30299
1329.6,1.331289,656482,30615
1332.97,1.331551,654926,30524
1336.33,1.333295,653727,30346
1339.69,1.334298,652497,30219
1343.04,1.333597,649913,30148
1346.39,1.335770,647671,29894
1349.73,1.329450,645338,30223
1354.18,1.329971,641175,29992
1357.52,1.332028,638376,29720
1360.85,1.328191,635805,29863
1364.17,1.333428,633413,29394
1367.49,1.330903,631026,29454
1370.81,1.333147,628050,29164
1374.12,1.329436,625034,29273
1378.54,1.331955,620272,28882
1381.84,1.327272,616892,29036
1385.14,1.322274,613613,29216
1388.43,1.332745,611526,28423
1391.72,1.325084,610663,28888
1395.01,1.328308,610634,28673
1398.29,1.328021,611700,28742
1402.66,1.329340,614051,28765
1405.93,1.330483,616268,28793
1409.2,1.331935,617795,28768
1412.46,1.331982,618872,28815
1415.72,1.336383,619795,28567
1418.98,1.334116,620495,28749
1422.23,1.335846,621087,28662
1426.56,1.337915,621375,28539
1429.8,1.335126,621616,28734
1433.04,1.333765,622129,28848
1436.27,1.338036,621526,28538
1439.5,1.334170,621113,28774
1442.72,1.330923,620921,28981
1445.94,1.336184,620270,28602
1450.23,1.334028,618860,28679
1453.44,1.333590,617697,28654
1456.64,1.335486,616264,28463
1459.85,1.333159,614413,28530
1463.04,1.336982,612307,28183
1466.24,1.335227,610032,28192
1469.43,1.340846,607345,27707
1473.67,1.340574,603789,27562
1476.85,1.336709,601175,27688
1480.02,1.343829,597737,27082
1483.19,1.341263,594479,27094
1486.36,1.337317,591232,27192
1489.52,1.345106,587853,26556
1492.68,1.333912,583875,27065
1496.89,1.338106,578062,26538
1500.03,1.340830,574159,26194
1503.18,1.344573,570285,25794
1506.32,1.338319,565444,25946
1509.45,1.344002,560571,25388
1512.58,1.342966,555821,25233
1515.71,1.342434,550344,25015
1519.87,1.342344,543983,24731
1522.99,1.344632,538764,24365
1526.1,1.346989,533692,24005
1529.21,1.342849,527902,23972
1532.32,1.339450,521886,23885
1535.42,1.333722,515888,23924
1538.51,1.345812,509987,23001
1541.6,1.338669,503936,23105
1545.72,1.341768,494694,22520
1548.8,1.331012,488378,22790
1551.88,1.333288,481832,22367
1554.95,1.339524,474989,21735
1558.02,1.339562,467818,21405
1561.08,1.333398,460730,21382
1564.15,1.335351,454170,20983
1568.22,1.337334,444181,20428
1571.27,1.322825,436947,20778
1574.32,1.338177,429598,19719
1577.36,1.331019,422039,19694
1580.4,1.334319,414375,19190
1583.43,1.335394,406354,18772
1586.46,1.330142,398475,18632
1590.49,1.340976,388982,17740
1593.51,1.330099,380708,17803
1596.53,1.338115,372727,17111
1599.54,1.331864,365060,17002
1602.55,1.333299,357543,16597
1605.55,1.314989,349495,16922
1608.55,1.335091,341154,15771
1612.54,1.311279,330877,16158
1615.53,1.322400,322904,15370
1618.51,1.327857,315116,14812
1621.49,1.314142,307217,14904
1624.47,1.311957,299481,14602
1627.44,1.320508,292112,13965
1630.41,1.327139,284245,13383
1634.36,1.317302,274079,13200
1637.32,1.313502,266916,12968
1640.27,1.326366,259612,12245
1643.22,1.312077,251804,12274
1646.16,1.314767,244348,11837
1649.1,1.321279,236703,11296
1652.04,1.319601,228171,10931
1655.95,1.316521,215408,10393
1658.88,1.315897,204937,9902
1661.8,1.292392,193395,9864
1664.72,1.284222,179728,9341
1667.63,1.286781,163642,8455
1670.54,1.255884,146312,8117
1673.44,1.264198,128451,6991
1677.31,1.236475,105080,6096
1680.21,1.215172,88906,5417
1683.1,1.276462,75033,3970
1685.99,1.226109,63520,3774
1688.87,1.291387,53714,2746
1691.75,1.207836,45653,2829
1694.62,1.321676,39137,1866
1697.49,1.265683,33776,1832
1701.31,1.309670,28175,1381