Folder: textile_sorting_NIRSCAN_/ML/samples/unknown (part 70)

File: Column 1_078488_20241121_170508.csv
Method:,Column 1,,
Host Date-Time:,21/11/24 @ 17:5:8,,
Header Version:,1,,
System Temp (C):,34.83,,
Detector Temp (C):,33.8,,
Humidity (%):,2.05,,
Lamp PD:,3800,,
Shift Vector Coefficients:,-10.5391,0.0761263,-0.000134223,,
Pixel to Wavelength Coefficients:,1775.68,-0.916766,-0.000235065,,
Serial Number:,5510004,,
Scan Config Name:,Column 1,,
Scan Config Type:,Slew,,
Section 1,,
Start wavelength (nm):,900,,
End wavelength (nm):,1700,,
Pattern Pixel Width (nm):,   7.03,,,,
Exposure (ms):,  0.635,,,,
Digital Resolution:,228,,
Num Repeats:,6,,
PGA Gain:,64,,
Total Measurement Time in sec:,  2.724,,
Wavelength (nm),Absorbance (AU),Reference Signal (unitless),Sample Signal (unitless)
901.51,1.331477,108485,5057
905.376,1.292613,121306,6184
909.237,1.311389,131909,6440
913.095,1.304801,143299,7103
916.948,1.325563,156982,7418
922.079,1.316001,179937,8692
925.923,1.341129,200504,9141
929.762,1.317366,222660,10722
933.597,1.321859,244426,11649
937.427,1.309020,263972,12958
941.254,1.321159,281845,13454
945.076,1.322857,297271,14135
950.165,1.307441,315605,15549
953.978,1.321675,328029,15640
957.786,1.317500,340470,16390
961.59,1.313937,352317,17100
965.389,1.312934,363056,17662
969.185,1.301498,373162,18638
972.976,1.315797,382632,18492
976.763,1.317620,391202,18827
981.806,1.315495,400190,19354
985.583,1.306333,406088,20058
989.355,1.306852,410162,20235
993.124,1.310847,412868,20182
996.888,1.315227,414263,20047
1000.65,1.309427,415476,20376
1004.4,1.301971,415479,20729
1009.41,1.312885,414358,20160
1013.15,1.310088,412923,20220
1016.89,1.319799,411526,19706
1020.63,1.311372,409066,19972
1024.36,1.313482,406777,19764
1028.09,1.310109,404427,19803
1031.82,1.306304,401911,19853
1036.78,1.314031,398410,19333
1040.49,1.311732,396204,19328
1044.2,1.322084,394236,18779
1047.91,1.303409,392042,19495
1051.61,1.310312,389823,19079
1055.31,1.309929,388234,19018
1059,1.311370,387599,18924
1063.92,1.314244,386688,18755
1067.61,1.311258,386598,18880
1071.29,1.320212,387377,18532
1074.96,1.317149,388536,18719
1078.63,1.321297,389855,18604
1082.3,1.327763,391215,18393
1085.96,1.319042,393215,18862
1090.84,1.316049,396270,19140
1094.49,1.323034,398760,18953
1098.14,1.319603,400987,19210
1101.79,1.315117,403477,19530
1105.43,1.301047,406116,20305
1109.06,1.315171,407701,19732
1112.7,1.319471,409859,19641
1117.53,1.319763,412494,19754
1121.15,1.305733,414909,20522
1124.77,1.317108,416559,20071
1128.38,1.317303,418532,20157
1131.99,1.319101,419956,20142
1135.6,1.311854,421946,20578
1139.2,1.329812,423881,19835
1143.99,1.319687,426786,20442
1147.58,1.322035,428617,20419
1151.17,1.315646,431169,20845
1154.75,1.311347,433579,21170
1158.33,1.311737,436264,21282
1161.91,1.324281,439132,20812
1165.48,1.320843,442389,21133
1169.04,1.319547,446101,21374
1173.79,1.318450,451929,21708
1177.34,1.316646,456026,21996
1180.9,1.320955,461306,22031
1184.44,1.315396,467657,22622
1187.99,1.321373,473969,22614
1191.52,1.321826,479856,22871
1195.06,1.324004,487372,23113
1199.76,1.323711,497347,23602
1203.29,1.323919,504311,23921
1206.81,1.322085,511507,24365
1210.33,1.326954,519078,24450
1213.84,1.327108,527163,24822
1217.35,1.326138,534208,25210
1220.85,1.324788,540472,25585
1225.51,1.326789,549929,25913
1229.01,1.331279,556888,25971
1232.5,1.327598,562180,26441
1235.98,1.327119,567975,26743
1239.46,1.327377,574815,27049
1242.94,1.321821,582782,27777
1246.41,1.324252,591476,28034
1251.03,1.317290,604016,29091
1254.5,1.320890,612289,29246
1257.96,1.322516,619125,29462
1261.41,1.325893,624551,29490
1264.86,1.322295,629900,29990
1268.31,1.328795,634345,29753
1271.75,1.328959,638574,29940
1276.33,1.332870,642499,29854
1279.76,1.329601,645905,30239
1283.19,1.328022,648307,30462
1286.61,1.323281,650446,30898
1290.03,1.328415,652132,30614
1293.44,1.332071,653907,30440
1296.85,1.332864,655963,30480
1301.39,1.331706,657349,30626
1304.8,1.322362,657558,31302
1308.19,1.331031,658515,30728
1311.58,1.328432,658804,30926
1314.97,1.335405,659011,30443
1318.36,1.334276,658272,30488
1321.73,1.335781,658022,30371
1326.23,1.337286,657870,30259
1329.6,1.336296,656482,30264
1332.97,1.331593,654926,30521
1336.33,1.336484,653727,30124
1339.69,1.336200,652497,30087
1343.04,1.336589,649913,29941
1346.39,1.333120,647671,30077
1349.73,1.330514,645338,30149
1354.18,1.332382,641175,29826
1357.52,1.322617,638376,30371
1360.85,1.329166,635805,29796
1364.17,1.327835,633413,29775
1367.49,1.330078,631026,29510
1370.81,1.330608,628050,29335
1374.12,1.338067,625034,28697
1378.54,1.331744,620272,28896
1381.84,1.331692,616892,28742
1385.14,1.331741,613613,28586
1388.43,1.326224,611526,28853
1391.72,1.326862,610663,28770
1395.01,1.323233,610634,29010
1398.29,1.327901,611700,28750
1402.66,1.331080,614051,28650
1405.93,1.331676,616268,28714
1409.2,1.325045,617795,29228
1412.46,1.334795,618872,28629
1415.72,1.333248,619795,28774
1418.98,1.338290,620495,28474
1422.23,1.331534,621087,28948
1426.56,1.333931,621375,28802
1429.8,1.336155,621616,28666
1433.04,1.331003,622129,29032
1436.27,1.334897,621526,28745
1439.5,1.332634,621113,28876
1442.72,1.336139,620921,28635
1445.94,1.335441,620270,28651
1450.23,1.337235,618860,28468
1453.44,1.335641,617697,28519
1456.64,1.336663,616264,28386
1459.85,1.336659,614413,28301
1463.04,1.335843,612307,28257
1466.24,1.340512,610032,27851
1469.43,1.340768,607345,27712
1473.67,1.341868,603789,27480
1476.85,1.338564,601175,27570
1480.02,1.338902,597737,27391
1483.19,1.336989,594479,27362
1486.36,1.343364,591232,26816
1489.52,1.337696,587853,27013
1492.68,1.335697,583875,26954
1496.89,1.337354,578062,26584
1500.03,1.339440,574159,26278
1503.18,1.340184,570285,26056
1506.32,1.339274,565444,25889
1509.45,1.343575,560571,25413
1512.58,1.339999,555821,25406
1515.71,1.335783,550344,25401
1519.87,1.339386,543983,24900
1522.99,1.334624,538764,24933
1526.1,1.343260,533692,24212
1529.21,1.334505,527902,24437
1532.32,1.346637,521886,23493
1535.42,1.331404,515888,24052
1538.51,1.332774,509987,23702
1541.6,1.340402,503936,23013
1545.72,1.333497,494694,22953
1548.8,1.344403,488378,22098
1551.88,1.334591,481832,22300
1554.95,1.348896,474989,21271
1558.02,1.333557,467818,21703
1561.08,1.340380,460730,21041
1564.15,1.334482,454170,21025
1568.22,1.331003,444181,20728
1571.27,1.338618,436947,20036
1574.32,1.329780,429598,20104
1577.36,1.334895,422039,19519
1580.4,1.335429,414375,19141
1583.43,1.342344,406354,18474
1586.46,1.333112,398475,18505
1590.49,1.335865,388982,17950
1593.51,1.337604,380708,17498
1596.53,1.330717,372727,17405
1599.54,1.332887,365060,16962
1602.55,1.332671,357543,16621
1605.55,1.330322,349495,16335
1608.55,1.337134,341154,15697
1612.54,1.331836,330877,15411
1615.53,1.327744,322904,15182
1618.51,1.321367,315116,15035
1621.49,1.334821,307217,14211
1624.47,1.313566,299481,14548
1627.44,1.329083,292112,13692
1630.41,1.322299,284245,13533
1634.36,1.327017,274079,12908
1637.32,1.314541,266916,12937
1640.27,1.321990,259612,12369
1643.22,1.318780,251804,12086
1646.16,1.314730,244348,11838
1649.1,1.315664,236703,11443
1652.04,1.317856,228171,10975
1655.95,1.318280,215408,10351
1658.88,1.298404,204937,10309
1661.8,1.286315,193395,10003
1664.72,1.272888,179728,9588
1667.63,1.271391,163642,8760
1670.54,1.260727,146312,8027
1673.44,1.239682,128451,7397
1677.31,1.208941,105080,6495
1680.21,1.232093,88906,5210
1683.1,1.178634,75033,4973
1685.99,1.189703,63520,4104
1688.87,1.132831,53714,3956
1691.75,1.199474,45653,2884
1694.62,1.133950,39137,2875
1697.49,1.173348,33776,2266
1701.31,1.224813,28175,1679

File: Column 1_078491_20241121_170517.csv
Method:,Column 1,,
Host Date-Time:,21/11/24 @ 17:5:17,,
Header Version:,1,,
System Temp (C):,34.93,,
Detector Temp (C):,33.85,,
Humidity (%):,2.06,,
Lamp PD:,3800,,
Shift Vector Coefficients:,-10.5391,0.0761263,-0.000134223,,
Pixel to Wavelength Coefficients:,1775.68,-0.916766,-0.000235065,,
Serial Number:,5510004,,
Scan Config Name:,Column 1,,
Scan Config Type:,Slew,,
Section 1,,
Start wavelength (nm):,900,,
End wavelength (nm):,1700,,
Pattern Pixel Width (nm):,   7.03,,,,
Exposure (ms):,  0.635,,,,
Digital Resolution:,228,,
Num Repeats:,6,,
PGA Gain:,64,,
Total Measurement Time in sec:,  2.726,,
Wavelength (nm),Absorbance (AU),Reference Signal (unitless),Sample Signal (unitless)
901.51,1.301611,108485,5417
905.376,1.330529,121306,5667
909.237,1.302974,131909,6566
913.095,1.334010,143299,6641
916.948,1.317328,156982,7560
922.079,1.333954,179937,8340
925.923,1.326967,200504,9444
929.762,1.319641,222660,10666
933.597,1.326017,244426,11538
937.427,1.341762,263972,12017
941.254,1.315642,281845,13626
945.076,1.317756,297271,14302
950.165,1.311905,315605,15390
953.978,1.319543,328029,15717
957.786,1.311892,340470,16603
961.59,1.310195,352317,17248
965.389,1.317308,363056,17485
969.185,1.310325,373162,18263
972.976,1.315351,382632,18511
976.763,1.304398,391202,19409
981.806,1.304987,400190,19828
985.583,1.314661,406088,19677
989.355,1.308961,410162,20137
993.124,1.309708,412868,20235
996.888,1.307199,414263,20421
1000.65,1.305417,415476,20565
1004.4,1.302894,415479,20685
1009.41,1.310543,414358,20269
1013.15,1.307155,412923,20357
1016.89,1.308230,411526,20238
1020.63,1.309636,409066,20052
1024.36,1.304478,406777,20178
1028.09,1.302953,404427,20132
1031.82,1.312650,401911,19565
1036.78,1.308806,398410,19567
1040.49,1.304424,396204,19656
1044.2,1.302991,394236,19623
1047.91,1.314054,392042,19023
1051.61,1.311337,389823,19034
1055.31,1.304550,388234,19255
1059,1.313740,387599,18821
1063.92,1.309362,386688,18967
1067.61,1.306818,386598,19074
1071.29,1.317804,387377,18635
1074.96,1.312441,388536,18923
1078.63,1.320644,389855,18632
1082.3,1.308278,391215,19237
1085.96,1.318766,393215,18874
1090.84,1.309563,396270,19428
1094.49,1.312373,398760,19424
1098.14,1.311539,400987,19570
1101.79,1.323378,403477,19162
1105.43,1.317548,406116,19548
1109.06,1.319084,407701,19555
1112.7,1.317199,409859,19744
1117.53,1.317788,412494,19844
1121.15,1.318162,414909,19943
1124.77,1.316697,416559,20090
1128.38,1.317367,418532,20154
1131.99,1.317251,419956,20228
1135.6,1.321564,421946,20123
1139.2,1.317082,423881,20425
1143.99,1.321710,426786,20347
1147.58,1.322269,428617,20408
1151.17,1.320022,431169,20636
1154.75,1.320197,433579,20743
1158.33,1.323360,436264,20720
1161.91,1.317223,439132,21153
1165.48,1.310086,442389,21663
1169.04,1.319629,446101,21370
1173.79,1.316933,451929,21784
1177.34,1.315758,456026,22041
1180.9,1.314828,461306,22344
1184.44,1.315992,467657,22591
1187.99,1.319609,473969,22706
1191.52,1.326119,479856,22646
1195.06,1.315317,487372,23580
1199.76,1.319208,497347,23848
1203.29,1.320772,504311,24095
1206.81,1.330018,511507,23924
1210.33,1.310998,519078,25365
1213.84,1.326129,527163,24878
1217.35,1.315670,534208,25825
1220.85,1.325910,540472,25519
1225.51,1.322237,549929,26186
1229.01,1.322325,556888,26512
1232.5,1.320430,562180,26881
1235.98,1.318803,567975,27260
1239.46,1.324162,574815,27250
1242.94,1.320603,582782,27855
1246.41,1.321165,591476,28234
1251.03,1.323333,604016,28689
1254.5,1.329332,612289,28683
1257.96,1.323594,619125,29389
1261.41,1.328878,624551,29288
1264.86,1.321890,629900,30018
1268.31,1.326437,634345,29915
1271.75,1.327714,638574,30026
1276.33,1.326272,642499,30311
1279.76,1.325954,645905,30494
1283.19,1.324529,648307,30708
1286.61,1.323464,650446,30885
1290.03,1.325869,652132,30794
1293.44,1.330931,653907,30520
1296.85,1.334764,655963,30347
1301.39,1.330304,657349,30725
1304.8,1.333520,657558,30508
1308.19,1.326756,658515,31032
1311.58,1.327829,658804,30969
1314.97,1.326482,659011,31075
1318.36,1.334063,658272,30503
1321.73,1.330282,658022,30758
1326.23,1.332078,657870,30624
1329.6,1.329886,656482,30714
1332.97,1.333062,654926,30418
1336.33,1.347981,653727,29337
1339.69,1.331734,652497,30398
1343.04,1.333683,649913,30142
1346.39,1.325066,647671,30640
1349.73,1.328804,645338,30268
1354.18,1.330478,641175,29957
1357.52,1.328752,638376,29945
1360.85,1.321638,635805,30317
1364.17,1.332233,633413,29475
1367.49,1.330240,631026,29499
1370.81,1.329204,628050,29430
1374.12,1.323147,625034,29700
1378.54,1.327125,620272,29205
1381.84,1.325630,616892,29146
1385.14,1.321962,613613,29237
1388.43,1.326374,611526,28843
1391.72,1.329041,610663,28626
1395.01,1.325951,610634,28829
1398.29,1.331739,611700,28497
1402.66,1.329960,614051,28724
1405.93,1.330709,616268,28778
1409.2,1.332056,617795,28760
1412.46,1.332797,618872,28761
1415.72,1.329925,619795,28995
1418.98,1.333949,620495,28760
1422.23,1.333037,621087,28848
1426.56,1.327466,621375,29234
1429.8,1.335051,621616,28739
1433.04,1.337408,622129,28607
1436.27,1.333253,621526,28854
1439.5,1.332077,621113,28913
1442.72,1.335018,620921,28709
1445.94,1.332209,620270,28865
1450.23,1.331657,618860,28836
1453.44,1.334015,617697,28626
1456.64,1.333826,616264,28572
1459.85,1.333676,614413,28496
1463.04,1.340883,612307,27931
1466.24,1.335350,610032,28184
1469.43,1.336060,607345,28014
1473.67,1.337075,603789,27785
1476.85,1.330635,601175,28078
1480.02,1.334470,597737,27672
1483.19,1.336592,594479,27387
1486.36,1.332409,591232,27501
1489.52,1.332724,587853,27324
1492.68,1.337214,583875,26860
1496.89,1.333321,578062,26832
1500.03,1.336016,574159,26486
1503.18,1.333404,570285,26466
1506.32,1.336065,565444,26081
1509.45,1.335801,560571,25872
1512.58,1.340717,555821,25364
1515.71,1.339423,550344,25189
1519.87,1.332139,543983,25319
1522.99,1.336352,538764,24834
1526.1,1.331458,533692,24879
1529.21,1.334132,527902,24458
1532.32,1.338179,521886,23955
1535.42,1.328614,515888,24207
1538.51,1.338696,509987,23381
1541.6,1.332288,503936,23447
1545.72,1.332496,494694,23006
1548.8,1.334686,488378,22598
1551.88,1.332589,481832,22403
1554.95,1.339884,474989,21717
1558.02,1.338832,467818,21441
1561.08,1.324651,460730,21817
1564.15,1.333039,454170,21095
1568.22,1.327559,444181,20893
1571.27,1.330373,436947,20420
1574.32,1.332793,429598,19965
1577.36,1.332676,422039,19619
1580.4,1.335838,414375,19123
1583.43,1.323798,406354,19280
1586.46,1.325781,398475,18820
1590.49,1.323228,388982,18480
1593.51,1.332741,380708,17695
1596.53,1.332066,372727,17351
1599.54,1.326205,365060,17225
1602.55,1.323058,357543,16993
1605.55,1.326826,349495,16467
1608.55,1.320576,341154,16307
1612.54,1.320597,330877,15815
1615.53,1.330758,322904,15077
1618.51,1.338032,315116,14469
1621.49,1.320986,307217,14671
1624.47,1.323286,299481,14226
1627.44,1.315838,292112,14116
1630.41,1.316624,284245,13711
1634.36,1.320936,274079,13090
1637.32,1.308606,266916,13115
1640.27,1.323890,259612,12315
1643.22,1.316236,251804,12157
1646.16,1.310132,244348,11964
1649.1,1.302616,236703,11792
1652.04,1.311414,228171,11139
1655.95,1.316688,215408,10389
1658.88,1.286151,204937,10604
1661.8,1.281393,193395,10117
1664.72,1.265388,179728,9755
1667.63,1.256335,163642,9069
1670.54,1.263168,146312,7982
1673.44,1.205702,128451,7999
1677.31,1.184247,105080,6875
1680.21,1.179997,88906,5874
1683.1,1.214387,75033,4580
1685.99,1.163723,63520,4357
1688.87,1.141144,53714,3881
1691.75,1.176739,45653,3039
1694.62,1.220228,39137,2357
1697.49,1.186976,33776,2196
1701.31,1.267164,28175,1523

File: Column 1_078492_20241121_170520.csv
Method:,Column 1,,
Host Date-Time:,21/11/24 @ 17:5:20,,
Header Version:,1,,
System Temp (C):,34.97,,
Detector Temp (C):,33.88,,
Humidity (%):,2.06,,
Lamp PD:,3800,,
Shift Vector Coefficients:,-10.5391,0.0761263,-0.000134223,,
Pixel to Wavelength Coefficients:,1775.68,-0.916766,-0.000235065,,
Serial Number:,5510004,,
Scan Config Name:,Column 1,,
Scan Config Type:,Slew,,
Section 1,,
Start wavelength (nm):,900,,
End wavelength (nm):,1700,,
Pattern Pixel Width (nm):,   7.03,,,,
Exposure (ms):,  0.635,,,,
Digital Resolution:,228,,
Num Repeats:,6,,
PGA Gain:,64,,
Total Measurement Time in sec:,  2.727,,
Wavelength (nm),Absorbance (AU),Reference Signal (unitless),Sample Signal (unitless)
901.51,1.303298,108485,5396
905.376,1.297060,121306,6121
909.237,1.301851,131909,6583
913.095,1.283330,143299,7463
916.948,1.316467,156982,7575
922.079,1.311478,179937,8783
925.923,1.324217,200504,9504
929.762,1.323526,222660,10571
933.597,1.312491,244426,11903
937.427,1.316320,263972,12742
941.254,1.318424,281845,13539
945.076,1.305186,297271,14722
950.165,1.298321,315605,15879
953.978,1.315226,328029,15874
957.786,1.304475,340470,16889
961.59,1.304492,352317,17476
965.389,1.309993,363056,17782
969.185,1.304374,373162,18515
972.976,1.312708,382632,18624
976.763,1.303370,391202,19455
981.806,1.301453,400190,19990
985.583,1.299906,406088,20357
989.355,1.301710,410162,20476
993.124,1.310546,412868,20196
996.888,1.306838,414263,20438
1000.65,1.308086,415476,20439
1004.4,1.310583,415479,20322
1009.41,1.303825,414358,20585
1013.15,1.309230,412923,20260
1016.89,1.310877,411526,20115
1020.63,1.303848,409066,20321
1024.36,1.300813,406777,20349
1028.09,1.305094,404427,20033
1031.82,1.309465,401911,19709
1036.78,1.318229,398410,19147
1040.49,1.319371,396204,18991
1044.2,1.309030,394236,19352
1047.91,1.307011,392042,19334
1051.61,1.305108,389823,19309
1055.31,1.318904,388234,18629
1059,1.308967,387599,19029
1063.92,1.313781,386688,18775
1067.61,1.311534,386598,18868
1071.29,1.298924,387377,19463
1074.96,1.318613,388536,18656
1078.63,1.313982,389855,18920
1082.3,1.307940,391215,19252
1085.96,1.320103,393215,18816
1090.84,1.307890,396270,19503
1094.49,1.320179,398760,19078
1098.14,1.317956,400987,19283
1101.79,1.313784,403477,19590
1105.43,1.310824,406116,19853
1109.06,1.316869,407701,19655
1112.7,1.317023,409859,19752
1117.53,1.317263,412494,19868
1121.15,1.320543,414909,19834
1124.77,1.315445,416559,20148
1128.38,1.315432,418532,20244
1131.99,1.318390,419956,20175
1135.6,1.323424,421946,20037
1139.2,1.316806,423881,20438
1143.99,1.316364,426786,20599
1147.58,1.316645,428617,20674
1151.17,1.319349,431169,20668
1154.75,1.316444,433579,20923
1158.33,1.318607,436264,20948
1161.91,1.320169,439132,21010
1165.48,1.316569,442389,21342
1169.04,1.307959,446101,21952
1173.79,1.323319,451929,21466
1177.34,1.311386,456026,22264
1180.9,1.316444,461306,22261
1184.44,1.318576,467657,22457
1187.99,1.319456,473969,22714
1191.52,1.321124,479856,22908
1195.06,1.312728,487372,23721
1199.76,1.319882,497347,23811
1203.29,1.322922,504311,23976
1206.81,1.322121,511507,24363
1210.33,1.315040,519078,25130
1213.84,1.317984,527163,25349
1217.35,1.321255,534208,25495
1220.85,1.338970,540472,24763
1225.51,1.321144,549929,26252
1229.01,1.318168,556888,26767
1232.5,1.327220,562180,26464
1235.98,1.321985,567975,27061
1239.46,1.325470,574815,27168
1242.94,1.317899,582782,28029
1246.41,1.325726,591476,27939
1251.03,1.324424,604016,28617
1254.5,1.326450,612289,28874
1257.96,1.325652,619125,29250
1261.41,1.327945,624551,29351
1264.86,1.325055,629900,29800
1268.31,1.326204,634345,29931
1271.75,1.328742,638574,29955
1276.33,1.325471,642499,30367
1279.76,1.324405,645905,30603
1283.19,1.324770,648307,30691
1286.61,1.324590,650446,30805
1290.03,1.325334,652132,30832
1293.44,1.332100,653907,30438
1296.85,1.332039,655963,30538
1301.39,1.329499,657349,30782
1304.8,1.330782,657558,30701
1308.19,1.326910,658515,31021
1311.58,1.328671,658804,30909
1314.97,1.329201,659011,30881
1318.36,1.334932,658272,30442
1321.73,1.335595,658022,30384
1326.23,1.330578,657870,30730
1329.6,1.336096,656482,30278
1332.97,1.330045,654926,30630
1336.33,1.333266,653727,30348
1339.69,1.326465,652497,30769
1343.04,1.324121,649913,30813
1346.39,1.329668,647671,30317
1349.73,1.328015,645338,30323
1354.18,1.328800,641175,30073
1357.52,1.332159,638376,29711
1360.85,1.326043,635805,30011
1364.17,1.326190,633413,29888
1367.49,1.328990,631026,29584
1370.81,1.326776,628050,29595
1374.12,1.328710,625034,29322
1378.54,1.327303,620272,29193
1381.84,1.328216,616892,28973
1385.14,1.327433,613613,28871
1388.43,1.330094,611526,28597
1391.72,1.330850,610663,28507
1395.01,1.326087,610634,28820
1398.29,1.320962,611700,29213
1402.66,1.335391,614051,28367
1405.93,1.321940,616268,29365
1409.2,1.327519,617795,29062
1412.46,1.329308,618872,28993
1415.72,1.334003,619795,28724
1418.98,1.327861,620495,29166
1422.23,1.333248,621087,28834
1426.56,1.335442,621375,28702
1429.8,1.330466,621616,29044
1433.04,1.335227,622129,28751
1436.27,1.333780,621526,28819
1439.5,1.331687,621113,28939
1442.72,1.333418,620921,28815
1445.94,1.332315,620270,28858
1450.23,1.334847,618860,28625
1453.44,1.326972,617697,29094
1456.64,1.327818,616264,28970
1459.85,1.335555,614413,28373
1463.04,1.333942,612307,28381
1466.24,1.326005,610032,28797
1469.43,1.330515,607345,28374
1473.67,1.332442,603789,28083
1476.85,1.331657,601175,28012
1480.02,1.333764,597737,27717
1483.19,1.336655,594479,27383
1486.36,1.335389,591232,27313
1489.52,1.330647,587853,27455
1492.68,1.341406,583875,26602
1496.89,1.337370,578062,26583
1500.03,1.333759,574159,26624
1503.18,1.334208,570285,26417
1506.32,1.341359,565444,25765
1509.45,1.339120,560571,25675
1512.58,1.336034,555821,25639
1515.71,1.340649,550344,25118
1519.87,1.335808,543983,25106
1522.99,1.338965,538764,24685
1526.1,1.327392,533692,25113
1529.21,1.324370,527902,25014
1532.32,1.336750,521886,24034
1535.42,1.333976,515888,23910
1538.51,1.333783,509987,23647
1541.6,1.334312,503936,23338
1545.72,1.340344,494694,22594
1548.8,1.332864,488378,22693
1551.88,1.333540,481832,22354
1554.95,1.332114,474989,22109
1558.02,1.335744,467818,21594
1561.08,1.331331,460730,21484
1564.15,1.330616,454170,21213
1568.22,1.323092,444181,21109
1571.27,1.330564,436947,20411
1574.32,1.331381,429598,20030
1577.36,1.331460,422039,19674
1580.4,1.329614,414375,19399
1583.43,1.333202,406354,18867
1586.46,1.325712,398475,18823
1590.49,1.335067,388982,17983
1593.51,1.332177,380708,17718
1596.53,1.325903,372727,17599
1599.54,1.322289,365060,17381
1602.55,1.329573,357543,16740
1605.55,1.314271,349495,16950
1608.55,1.327719,341154,16041
1612.54,1.319391,330877,15859
1615.53,1.329522,322904,15120
1618.51,1.313098,315116,15324
1621.49,1.305687,307217,15197
1624.47,1.325766,299481,14145
1627.44,1.315776,292112,14118
1630.41,1.310866,284245,13894
1634.36,1.318587,274079,13161
1637.32,1.315146,266916,12919
1640.27,1.309121,259612,12741
1643.22,1.322896,251804,11972
1646.16,1.316053,244348,11802
1649.1,1.308325,236703,11638
1652.04,1.306375,228171,11269
1655.95,1.312818,215408,10482
1658.88,1.289646,204937,10519
1661.8,1.274833,193395,10271
1664.72,1.285946,179728,9304
1667.63,1.269560,163642,8797
1670.54,1.244166,146312,8339
1673.44,1.216810,128451,7797
1677.31,1.215476,105080,6398
1680.21,1.161612,88906,6128
1683.1,1.159583,75033,5196
1685.99,1.158965,63520,4405
1688.87,1.187387,53714,3489
1691.75,1.124302,45653,3429
1694.62,1.223743,39137,2338
1697.49,1.201249,33776,2125
1701.31,1.166563,28175,1920