Folder: textile_sorting_NIRSCAN_/ML/samples/unknown (part 54)

File: Column 1_078365_20241121_165828.csv
Method:,Column 1,,
Host Date-Time:,21/11/24 @ 16:58:28,,
Header Version:,1,,
System Temp (C):,34.88,,
Detector Temp (C):,33.36,,
Humidity (%):,2.11,,
Lamp PD:,3801,,
Shift Vector Coefficients:,-10.5391,0.0761263,-0.000134223,,
Pixel to Wavelength Coefficients:,1775.68,-0.916766,-0.000235065,,
Serial Number:,5510004,,
Scan Config Name:,Column 1,,
Scan Config Type:,Slew,,
Section 1,,
Start wavelength (nm):,900,,
End wavelength (nm):,1700,,
Pattern Pixel Width (nm):,   7.03,,,,
Exposure (ms):,  0.635,,,,
Digital Resolution:,228,,
Num Repeats:,6,,
PGA Gain:,64,,
Total Measurement Time in sec:,  2.729,,
Wavelength (nm),Absorbance (AU),Reference Signal (unitless),Sample Signal (unitless)
901.51,1.329335,108485,5082
905.376,1.350846,121306,5408
909.237,1.319420,131909,6322
913.095,1.352786,143299,6360
916.948,1.303143,156982,7811
922.079,1.338719,179937,8249
925.923,1.334294,200504,9286
929.762,1.320823,222660,10637
933.597,1.330671,244426,11415
937.427,1.329891,263972,12350
941.254,1.325539,281845,13319
945.076,1.321078,297271,14193
950.165,1.318903,315605,15144
953.978,1.311385,328029,16015
957.786,1.320611,340470,16273
961.59,1.305811,352317,17423
965.389,1.308871,363056,17828
969.185,1.306372,373162,18430
972.976,1.309132,382632,18778
976.763,1.312210,391202,19063
981.806,1.309589,400190,19619
985.583,1.311517,406088,19820
989.355,1.316071,410162,19810
993.124,1.308829,412868,20276
996.888,1.310380,414263,20272
1000.65,1.313087,415476,20205
1004.4,1.310732,415479,20315
1009.41,1.311165,414358,20240
1013.15,1.308715,412923,20284
1016.89,1.311720,411526,20076
1020.63,1.312766,409066,19908
1024.36,1.306766,406777,20072
1028.09,1.318434,404427,19427
1031.82,1.316955,401911,19372
1036.78,1.310496,398410,19491
1040.49,1.308553,396204,19470
1044.2,1.308335,394236,19383
1047.91,1.315403,392042,18964
1051.61,1.311954,389823,19007
1055.31,1.326382,388234,18311
1059,1.308169,387599,19064
1063.92,1.317241,386688,18626
1067.61,1.315743,386598,18686
1071.29,1.321432,387377,18480
1074.96,1.324094,388536,18422
1078.63,1.312355,389855,18991
1082.3,1.315242,391215,18931
1085.96,1.315123,393215,19033
1090.84,1.321162,396270,18916
1094.49,1.312060,398760,19438
1098.14,1.323920,400987,19020
1101.79,1.319587,403477,19330
1105.43,1.311788,406116,19809
1109.06,1.315589,407701,19713
1112.7,1.318367,409859,19691
1117.53,1.326119,412494,19467
1121.15,1.318511,414909,19927
1124.77,1.313016,416559,20261
1128.38,1.324428,418532,19829
1131.99,1.317144,419956,20233
1135.6,1.318918,421946,20246
1139.2,1.310477,423881,20738
1143.99,1.316765,426786,20580
1147.58,1.328917,428617,20098
1151.17,1.322555,431169,20516
1154.75,1.327651,433579,20390
1158.33,1.322836,436264,20745
1161.91,1.320997,439132,20970
1165.48,1.325388,442389,20913
1169.04,1.320117,446101,21346
1173.79,1.318350,451929,21713
1177.34,1.314204,456026,22120
1180.9,1.320640,461306,22047
1184.44,1.324809,467657,22137
1187.99,1.322218,473969,22570
1191.52,1.315623,479856,23200
1195.06,1.329640,487372,22815
1199.76,1.322021,497347,23694
1203.29,1.320916,504311,24087
1206.81,1.326168,511507,24137
1210.33,1.322817,519078,24684
1213.84,1.322306,527163,25098
1217.35,1.333819,534208,24768
1220.85,1.327461,540472,25428
1225.51,1.321657,549929,26221
1229.01,1.329860,556888,26056
1232.5,1.331989,562180,26175
1235.98,1.319457,567975,27219
1239.46,1.326254,574815,27119
1242.94,1.325858,582782,27520
1246.41,1.329175,591476,27718
1251.03,1.329155,604016,28307
1254.5,1.326600,612289,28864
1257.96,1.325222,619125,29279
1261.41,1.325864,624551,29492
1264.86,1.325201,629900,29790
1268.31,1.327891,634345,29815
1271.75,1.328032,638574,30004
1276.33,1.331795,642499,29928
1279.76,1.334164,645905,29923
1283.19,1.325747,648307,30622
1286.61,1.336365,650446,29981
1290.03,1.338345,652132,29922
1293.44,1.339424,653907,29929
1296.85,1.332537,655963,30503
1301.39,1.329443,657349,30786
1304.8,1.334889,657558,30412
1308.19,1.334252,658515,30501
1311.58,1.334528,658804,30495
1314.97,1.334579,659011,30501
1318.36,1.338916,658272,30164
1321.73,1.337099,658022,30279
1326.23,1.334610,657870,30446
1329.6,1.337763,656482,30162
1332.97,1.332548,654926,30454
1336.33,1.332737,653727,30385
1339.69,1.337313,652497,30010
1343.04,1.334823,649913,30063
1346.39,1.331031,647671,30222
1349.73,1.335352,645338,29815
1354.18,1.329899,641175,29997
1357.52,1.329115,638376,29920
1360.85,1.333590,635805,29494
1364.17,1.322846,633413,30119
1367.49,1.326721,631026,29739
1370.81,1.328776,628050,29459
1374.12,1.330595,625034,29195
1378.54,1.327378,620272,29188
1381.84,1.329386,616892,28895
1385.14,1.327463,613613,28869
1388.43,1.334567,611526,28304
1391.72,1.327693,610663,28715
1395.01,1.330129,610634,28553
1398.29,1.323527,611700,29041
1402.66,1.328013,614051,28853
1405.93,1.332751,616268,28643
1409.2,1.338782,617795,28318
1412.46,1.330433,618872,28918
1415.72,1.337418,619795,28499
1418.98,1.336843,620495,28569
1422.23,1.331489,621087,28951
1426.56,1.332366,621375,28906
1429.8,1.339715,621616,28432
1433.04,1.333705,622129,28852
1436.27,1.340722,621526,28362
1439.5,1.338128,621113,28513
1442.72,1.330878,620921,28984
1445.94,1.336823,620270,28560
1450.23,1.342207,618860,28144
1453.44,1.342378,617697,28080
1456.64,1.341091,616264,28098
1459.85,1.338720,614413,28167
1463.04,1.342394,612307,27834
1466.24,1.344035,610032,27626
1469.43,1.338298,607345,27870
1473.67,1.339473,603789,27632
1476.85,1.339368,601175,27519
1480.02,1.334470,597737,27672
1483.19,1.341392,594479,27086
1486.36,1.341360,591232,26940
1489.52,1.342010,587853,26746
1492.68,1.341422,583875,26601
1496.89,1.333564,578062,26817
1500.03,1.337906,574159,26371
1503.18,1.338753,570285,26142
1506.32,1.346173,565444,25481
1509.45,1.341665,560571,25525
1512.58,1.335188,555821,25689
1515.71,1.340995,550344,25098
1519.87,1.337229,543983,25024
1522.99,1.340322,538764,24608
1526.1,1.334471,533692,24707
1529.21,1.339133,527902,24178
1532.32,1.367173,521886,22408
1535.42,1.337569,515888,23713
1538.51,1.357660,509987,22382
1541.6,1.338876,503936,23094
1545.72,1.337183,494694,22759
1548.8,1.335263,488378,22568
1551.88,1.340532,481832,21997
1554.95,1.338985,474989,21762
1558.02,1.339521,467818,21407
1561.08,1.365445,460730,19861
1564.15,1.334049,454170,21046
1568.22,1.335234,444181,20527
1571.27,1.334497,436947,20227
1574.32,1.334668,429598,19879
1577.36,1.336165,422039,19462
1580.4,1.340702,414375,18910
1583.43,1.335255,406354,18778
1586.46,1.325459,398475,18834
1590.49,1.336713,388982,17915
1593.51,1.336142,380708,17557
1596.53,1.332467,372727,17335
1599.54,1.326054,365060,17231
1602.55,1.323416,357543,16979
1605.55,1.324276,349495,16564
1608.55,1.325585,341154,16120
1612.54,1.328747,330877,15521
1615.53,1.339340,322904,14782
1618.51,1.328708,315116,14783
1621.49,1.334515,307217,14221
1624.47,1.332512,299481,13927
1627.44,1.330067,292112,13661
1630.41,1.321081,284245,13571
1634.36,1.341487,274079,12485
1637.32,1.310132,266916,13069
1640.27,1.310658,259612,12696
1643.22,1.310205,251804,12327
1646.16,1.313339,244348,11876
1649.1,1.310683,236703,11575
1652.04,1.315291,228171,11040
1655.95,1.301167,215408,10767
1658.88,1.302467,204937,10213
1661.8,1.295618,193395,9791
1664.72,1.270223,179728,9647
1667.63,1.271539,163642,8757
1670.54,1.236423,146312,8489
1673.44,1.246964,128451,7274
1677.31,1.220391,105080,6326
1680.21,1.211977,88906,5457
1683.1,1.199199,75033,4743
1685.99,1.194064,63520,4063
1688.87,1.183421,53714,3521
1691.75,1.176739,45653,3039
1694.62,1.144655,39137,2805
1697.49,1.158280,33776,2346
1701.31,1.227668,28175,1668

File: Column 1_078367_20241121_165834.csv
Method:,Column 1,,
Host Date-Time:,21/11/24 @ 16:58:34,,
Header Version:,1,,
System Temp (C):,34.92,,
Detector Temp (C):,33.41,,
Humidity (%):,2.06,,
Lamp PD:,3801,,
Shift Vector Coefficients:,-10.5391,0.0761263,-0.000134223,,
Pixel to Wavelength Coefficients:,1775.68,-0.916766,-0.000235065,,
Serial Number:,5510004,,
Scan Config Name:,Column 1,,
Scan Config Type:,Slew,,
Section 1,,
Start wavelength (nm):,900,,
End wavelength (nm):,1700,,
Pattern Pixel Width (nm):,   7.03,,,,
Exposure (ms):,  0.635,,,,
Digital Resolution:,228,,
Num Repeats:,6,,
PGA Gain:,64,,
Total Measurement Time in sec:,  2.704,,
Wavelength (nm),Absorbance (AU),Reference Signal (unitless),Sample Signal (unitless)
901.51,1.308724,108485,5329
905.376,1.348523,121306,5437
909.237,1.333027,131909,6127
913.095,1.318907,143299,6876
916.948,1.332765,156982,7296
922.079,1.321380,179937,8585
925.923,1.322666,200504,9538
929.762,1.341519,222660,10142
933.597,1.327412,244426,11501
937.427,1.331512,263972,12304
941.254,1.316216,281845,13608
945.076,1.322580,297271,14144
950.165,1.308644,315605,15506
953.978,1.318356,328029,15760
957.786,1.319066,340470,16331
961.59,1.321237,352317,16815
965.389,1.307218,363056,17896
969.185,1.304890,373162,18493
972.976,1.308993,382632,18784
976.763,1.310913,391202,19120
981.806,1.298789,400190,20113
985.583,1.315457,406088,19641
989.355,1.302900,410162,20420
993.124,1.309451,412868,20247
996.888,1.310401,414263,20271
1000.65,1.309662,415476,20365
1004.4,1.317563,415479,19998
1009.41,1.314915,414358,20066
1013.15,1.312220,412923,20121
1016.89,1.311223,411526,20099
1020.63,1.307152,409066,20167
1024.36,1.308565,406777,19989
1028.09,1.309736,404427,19820
1031.82,1.312539,401911,19570
1036.78,1.307853,398410,19610
1040.49,1.311530,396204,19337
1044.2,1.307955,394236,19400
1047.91,1.309173,392042,19238
1051.61,1.312548,389823,18981
1055.31,1.312310,388234,18914
1059,1.317448,387599,18661
1063.92,1.314637,386688,18738
1067.61,1.314281,386598,18749
1071.29,1.314855,387377,18762
1074.96,1.309058,388536,19071
1078.63,1.311556,389855,19026
1082.3,1.318096,391215,18807
1085.96,1.321791,393215,18743
1090.84,1.322634,396270,18852
1094.49,1.318588,398760,19148
1098.14,1.315060,400987,19412
1101.79,1.318353,403477,19385
1105.43,1.317104,406116,19568
1109.06,1.326204,407701,19237
1112.7,1.319382,409859,19645
1117.53,1.314974,412494,19973
1121.15,1.317749,414909,19962
1124.77,1.315401,416559,20150
1128.38,1.321046,418532,19984
1131.99,1.321458,419956,20033
1135.6,1.315712,421946,20396
1139.2,1.317933,423881,20385
1143.99,1.320793,426786,20390
1147.58,1.315847,428617,20712
1151.17,1.321160,431169,20582
1154.75,1.315636,433579,20962
1158.33,1.318628,436264,20947
1161.91,1.306195,439132,21697
1165.48,1.320679,442389,21141
1169.04,1.317500,446101,21475
1173.79,1.319532,451929,21654
1177.34,1.310510,456026,22309
1180.9,1.321527,461306,22002
1184.44,1.313691,467657,22711
1187.99,1.321430,473969,22611
1191.52,1.319648,479856,22986
1195.06,1.321494,487372,23247
1199.76,1.325703,497347,23494
1203.29,1.313479,504311,24503
1206.81,1.323835,511507,24267
1210.33,1.313574,519078,25215
1213.84,1.326112,527163,24879
1217.35,1.323270,534208,25377
1220.85,1.320078,540472,25864
1225.51,1.326806,549929,25912
1229.01,1.323654,556888,26431
1232.5,1.322958,562180,26725
1235.98,1.330805,567975,26517
1239.46,1.324401,574815,27235
1242.94,1.329694,582782,27278
1246.41,1.326115,591476,27914
1251.03,1.332729,604016,28075
1254.5,1.326224,612289,28889
1257.96,1.324229,619125,29346
1261.41,1.326660,624551,29438
1264.86,1.327731,629900,29617
1268.31,1.327993,634345,29808
1271.75,1.328090,638574,30000
1276.33,1.327549,642499,30222
1279.76,1.329185,645905,30268
1283.19,1.332522,648307,30148
1286.61,1.326823,650446,30647
1290.03,1.328061,652132,30639
1293.44,1.328930,653907,30661
1296.85,1.330194,655963,30668
1301.39,1.326757,657349,30977
1304.8,1.331929,657558,30620
1308.19,1.334579,658515,30478
1311.58,1.337357,658804,30297
1314.97,1.328485,659011,30932
1318.36,1.332954,658272,30581
1321.73,1.333229,658022,30550
1326.23,1.330493,657870,30736
1329.6,1.336253,656482,30267
1332.97,1.338651,654926,30029
1336.33,1.328527,653727,30681
1339.69,1.334902,652497,30177
1343.04,1.327944,649913,30543
1346.39,1.337590,647671,29769
1349.73,1.337484,645338,29669
1354.18,1.330971,641175,29923
1357.52,1.330569,638376,29820
1360.85,1.332032,635805,29600
1364.17,1.326975,633413,29834
1367.49,1.328800,631026,29597
1370.81,1.329558,628050,29406
1374.12,1.324465,625034,29610
1378.54,1.331234,620272,28930
1381.84,1.330214,616892,28840
1385.14,1.327493,613613,28867
1388.43,1.322686,611526,29089
1391.72,1.330089,610663,28557
1395.01,1.329658,610634,28584
1398.29,1.322243,611700,29127
1402.66,1.334351,614051,28435
1405.93,1.333312,616268,28606
1409.2,1.336854,617795,28444
1412.46,1.329158,618872,29003
1415.72,1.330554,619795,28953
1418.98,1.329532,620495,29054
1422.23,1.331084,621087,28978
1426.56,1.333630,621375,28822
1429.8,1.330600,621616,29035
1433.04,1.338320,622129,28547
1436.27,1.334399,621526,28778
1439.5,1.338966,621113,28458
1442.72,1.338634,620921,28471
1445.94,1.332616,620270,28838
1450.23,1.337083,618860,28478
1453.44,1.335154,617697,28551
1456.64,1.341200,616264,28091
1459.85,1.338643,614413,28172
1463.04,1.339827,612307,27999
1466.24,1.339857,610032,27893
1469.43,1.336448,607345,27989
1473.67,1.340842,603789,27545
1476.85,1.340269,601175,27462
1480.02,1.340029,597737,27320
1483.19,1.338133,594479,27290
1486.36,1.343073,591232,26834
1489.52,1.340211,587853,26857
1492.68,1.341096,583875,26621
1496.89,1.339204,578062,26471
1500.03,1.340217,574159,26231
1503.18,1.335278,570285,26352
1506.32,1.337985,565444,25966
1509.45,1.337011,560571,25800
1512.58,1.337289,555821,25565
1515.71,1.337411,550344,25306
1519.87,1.342554,543983,24719
1522.99,1.337858,538764,24748
1526.1,1.338781,533692,24463
1529.21,1.337340,527902,24278
1532.32,1.344241,521886,23623
1535.42,1.336088,515888,23794
1538.51,1.332628,509987,23710
1541.6,1.331918,503936,23467
1545.72,1.337050,494694,22766
1548.8,1.338954,488378,22377
1551.88,1.332745,481832,22395
1554.95,1.334142,474989,22006
1558.02,1.330030,467818,21880
1561.08,1.336537,460730,21228
1564.15,1.338196,454170,20846
1568.22,1.335256,444181,20526
1571.27,1.331033,436947,20389
1574.32,1.334122,429598,19904
1577.36,1.333097,422039,19600
1580.4,1.336724,414375,19084
1583.43,1.333271,406354,18864
1586.46,1.327446,398475,18748
1590.49,1.331005,388982,18152
1593.51,1.340093,380708,17398
1596.53,1.332192,372727,17346
1599.54,1.323967,365060,17314
1602.55,1.348557,357543,16024
1605.55,1.321323,349495,16677
1608.55,1.320497,341154,16310
1612.54,1.334068,330877,15332
1615.53,1.330384,322904,15090
1618.51,1.331804,315116,14678
1621.49,1.312659,307217,14955
1624.47,1.312850,299481,14572
1627.44,1.321006,292112,13949
1630.41,1.329678,284245,13305
1634.36,1.311614,274079,13374
1637.32,1.315247,266916,12916
1640.27,1.319854,259612,12430
1643.22,1.312749,251804,12255
1646.16,1.319341,244348,11713
1649.1,1.314981,236703,11461
1652.04,1.303877,228171,11334
1655.95,1.306198,215408,10643
1658.88,1.316073,204937,9898
1661.8,1.275721,193395,10250
1664.72,1.275067,179728,9540
1667.63,1.247471,163642,9256
1670.54,1.241984,146312,8381
1673.44,1.234198,128451,7491
1677.31,1.167944,105080,7138
1680.21,1.186628,88906,5785
1683.1,1.122129,75033,5664
1685.99,1.153965,63520,4456
1688.87,1.143500,53714,3860
1691.75,1.169230,45653,3092
1694.62,1.168196,39137,2657
1697.49,1.250999,33776,1895
1701.31,1.252859,28175,1574

File: Column 1_078369_20241121_165840.csv
Method:,Column 1,,
Host Date-Time:,21/11/24 @ 16:58:40,,
Header Version:,1,,
System Temp (C):,34.98,,
Detector Temp (C):,33.41,,
Humidity (%):,1.96,,
Lamp PD:,3801,,
Shift Vector Coefficients:,-10.5391,0.0761263,-0.000134223,,
Pixel to Wavelength Coefficients:,1775.68,-0.916766,-0.000235065,,
Serial Number:,5510004,,
Scan Config Name:,Column 1,,
Scan Config Type:,Slew,,
Section 1,,
Start wavelength (nm):,900,,
End wavelength (nm):,1700,,
Pattern Pixel Width (nm):,   7.03,,,,
Exposure (ms):,  0.635,,,,
Digital Resolution:,228,,
Num Repeats:,6,,
PGA Gain:,64,,
Total Measurement Time in sec:,  2.706,,
Wavelength (nm),Absorbance (AU),Reference Signal (unitless),Sample Signal (unitless)
901.51,1.334061,108485,5027
905.376,1.324214,121306,5750
909.237,1.344882,131909,5962
913.095,1.319792,143299,6862
916.948,1.324861,156982,7430
922.079,1.314753,179937,8717
925.923,1.332009,200504,9335
929.762,1.332366,222660,10358
933.597,1.334148,244426,11324
937.427,1.321049,263972,12604
941.254,1.310824,281845,13778
945.076,1.309693,297271,14570
950.165,1.328618,315605,14809
953.978,1.320511,328029,15682
957.786,1.306175,340470,16823
961.59,1.314395,352317,17082
965.389,1.314190,363056,17611
969.185,1.312877,373162,18156
972.976,1.300794,382632,19142
976.763,1.309100,391202,19200
981.806,1.313637,400190,19437
985.583,1.305640,406088,20090
989.355,1.297237,410162,20688
993.124,1.312162,412868,20121
996.888,1.305480,414263,20502
1000.65,1.308320,415476,20428
1004.4,1.303776,415479,20643
1009.41,1.301636,414358,20689
1013.15,1.305091,412923,20454
1016.89,1.305449,411526,20368
1020.63,1.306378,409066,20203
1024.36,1.316746,406777,19616
1028.09,1.308795,404427,19863
1031.82,1.306216,401911,19857
1036.78,1.307963,398410,19605
1040.49,1.311799,396204,19325
1044.2,1.315588,394236,19062
1047.91,1.313460,392042,19049
1051.61,1.309880,389823,19098
1055.31,1.309632,388234,19031
1059,1.306600,387599,19133
1063.92,1.311336,386688,18881
1067.61,1.319900,386598,18508
1071.29,1.312178,387377,18878
1074.96,1.305994,388536,19206
1078.63,1.313133,389855,18957
1082.3,1.306881,391215,19299
1085.96,1.315922,393215,18998
1090.84,1.317891,396270,19059
1094.49,1.321661,398760,19013
1098.14,1.315866,400987,19376
1101.79,1.315873,403477,19496
1105.43,1.307902,406116,19987
1109.06,1.316626,407701,19666
1112.7,1.322578,409859,19501
1117.53,1.323805,412494,19571
1121.15,1.317031,414909,19995
1124.77,1.317996,416559,20030
1128.38,1.323749,418532,19860
1131.99,1.310223,419956,20558
1135.6,1.319798,421946,20205
1139.2,1.316062,423881,20473
1143.99,1.319347,426786,20458
1147.58,1.324060,428617,20324
1151.17,1.323042,431169,20493
1154.75,1.312745,433579,21102
1158.33,1.318545,436264,20951
1161.91,1.313828,439132,21319
1165.48,1.304370,442389,21950
1169.04,1.308930,446101,21903
1173.79,1.317052,451929,21778
1177.34,1.316093,456026,22024
1180.9,1.318674,461306,22147
1184.44,1.313003,467657,22747
1187.99,1.312100,473969,23102
1191.52,1.317142,479856,23119
1195.06,1.317847,487372,23443
1199.76,1.315761,497347,24038
1203.29,1.326688,504311,23769
1206.81,1.316313,511507,24691
1210.33,1.327398,519078,24425
1213.84,1.323883,527163,25007
1217.35,1.326051,534208,25215
1220.85,1.325739,540472,25529
1225.51,1.322984,549929,26141
1229.01,1.325482,556888,26320
1232.5,1.325010,562180,26599
1235.98,1.321969,567975,27062
1239.46,1.327441,574815,27045
1242.94,1.324047,582782,27635
1246.41,1.316346,591476,28549
1251.03,1.319130,604016,28968
1254.5,1.327247,612289,28821
1257.96,1.328543,619125,29056
1261.41,1.329249,624551,29263
1264.86,1.328523,629900,29563
1268.31,1.326683,634345,29898
1271.75,1.327945,638574,30010
1276.33,1.324913,642499,30406
1279.76,1.331242,645905,30125
1283.19,1.326926,648307,30539
1286.61,1.329966,650446,30426
1290.03,1.325404,652132,30827
1293.44,1.330704,653907,30536
1296.85,1.332423,655963,30511
1301.39,1.334109,657349,30457
1304.8,1.330145,657558,30746
1308.19,1.331159,658515,30719
1311.58,1.331392,658804,30716
1314.97,1.329483,659011,30861
1318.36,1.334690,658272,30459
1321.73,1.330904,658022,30714
1326.23,1.337070,657870,30274
1329.6,1.336627,656482,30241
1332.97,1.334692,654926,30304
1336.33,1.332852,653727,30377
1339.69,1.332649,652497,30334
1343.04,1.331284,649913,30309
1346.39,1.333192,647671,30072
1349.73,1.329838,645338,30196
1354.18,1.332891,641175,29791
1357.52,1.333697,638376,29606
1360.85,1.327754,635805,29893
1364.17,1.327136,633413,29823
1367.49,1.327949,631026,29655
1370.81,1.334549,628050,29070
1374.12,1.323454,625034,29679
1378.54,1.325507,620272,29314
1381.84,1.328141,616892,28978
1385.14,1.330240,613613,28685
1388.43,1.326962,611526,28804
1391.72,1.324333,610663,28938
1395.01,1.328672,610634,28649
1398.29,1.333878,611700,28357
1402.66,1.330474,614051,28690
1405.93,1.334057,616268,28557
1409.2,1.335862,617795,28509
1412.46,1.330718,618872,28899
1415.72,1.329955,619795,28993
1418.98,1.335250,620495,28674
1422.23,1.325470,621087,29355
1426.56,1.323841,621375,29479
1429.8,1.337354,621616,28587
1433.04,1.331932,622129,28970
1436.27,1.336077,621526,28667
1439.5,1.330713,621113,29004
1442.72,1.333162,620921,28832
1445.94,1.334396,620270,28720
1450.23,1.335181,618860,28603
1453.44,1.340265,617697,28217
1456.64,1.337168,616264,28353
1459.85,1.335907,614413,28350
1463.04,1.340836,612307,27934
1466.24,1.332662,610032,28359
1469.43,1.335611,607345,28043
1473.67,1.337654,603789,27748
1476.85,1.330728,601175,28072
1480.02,1.331467,597737,27864
1483.19,1.335389,594479,27463
1486.36,1.337796,591232,27162
1489.52,1.339775,587853,26884
1492.68,1.341847,583875,26575
1496.89,1.334310,578062,26771
1500.03,1.340764,574159,26198
1503.18,1.338786,570285,26140
1506.32,1.336099,565444,26079
1509.45,1.333273,560571,26023
1512.58,1.330731,555821,25954
1515.71,1.335783,550344,25401
1519.87,1.332911,543983,25274
1522.99,1.331137,538764,25134
1526.1,1.339954,533692,24397
1529.21,1.331812,527902,24589
1532.32,1.337202,521886,24009
1535.42,1.334248,515888,23895
1538.51,1.329870,509987,23861
1541.6,1.336756,503936,23207
1545.72,1.338368,494694,22697
1548.8,1.334821,488378,22591
1551.88,1.331486,481832,22460
1554.95,1.338008,474989,21811
1558.02,1.332797,467818,21741
1561.08,1.336681,460730,21221
1564.15,1.336968,454170,20905
1568.22,1.335108,444181,20533
1571.27,1.323620,436947,20740
1574.32,1.335608,429598,19836
1577.36,1.330358,422039,19724
1580.4,1.344415,414375,18749
1583.43,1.338995,406354,18617
1586.46,1.331332,398475,18581
1590.49,1.334464,388982,18008
1593.51,1.326987,380708,17931
1596.53,1.319801,372727,17848
1599.54,1.330131,365060,17070
1602.55,1.325262,357543,16907
1605.55,1.318339,349495,16792
1608.55,1.329102,341154,15990
1612.54,1.336682,330877,15240
1615.53,1.318882,322904,15495
1618.51,1.344260,315116,14263
1621.49,1.321282,307217,14661
1624.47,1.320002,299481,14334
1627.44,1.321474,292112,13934
1630.41,1.313185,284245,13820
1634.36,1.305424,274079,13566
1637.32,1.306163,266916,13189
1640.27,1.322834,259612,12345
1643.22,1.311016,251804,12304
1646.16,1.309190,244348,11990
1649.1,1.329390,236703,11087
1652.04,1.302118,228171,11380
1655.95,1.283927,215408,11203
1658.88,1.291549,204937,10473
1661.8,1.290459,193395,9908
1664.72,1.269369,179728,9666
1667.63,1.279548,163642,8597
1670.54,1.267763,146312,7898
1673.44,1.232173,128451,7526
1677.31,1.215815,105080,6393
1680.21,1.189112,88906,5752
1683.1,1.150567,75033,5305
1685.99,1.159853,63520,4396
1688.87,1.154207,53714,3766
1691.75,1.157999,45653,3173
1694.62,1.187241,39137,2543
1697.49,1.134858,33776,2476
1701.31,1.127438,28175,2101