Folder: textile_sorting_NIRSCAN_/ML/samples/unknown (part 12)

File: Column 1_078075_20241121_164414.csv
Method:,Column 1,,
Host Date-Time:,21/11/24 @ 16:44:14,,
Header Version:,1,,
System Temp (C):,31.62,,
Detector Temp (C):,26.5,,
Humidity (%):,5.17,,
Lamp PD:,3808,,
Shift Vector Coefficients:,-10.5391,0.0761263,-0.000134223,,
Pixel to Wavelength Coefficients:,1775.68,-0.916766,-0.000235065,,
Serial Number:,5510004,,
Scan Config Name:,Column 1,,
Scan Config Type:,Slew,,
Section 1,,
Start wavelength (nm):,900,,
End wavelength (nm):,1700,,
Pattern Pixel Width (nm):,   7.03,,,,
Exposure (ms):,  0.635,,,,
Digital Resolution:,228,,
Num Repeats:,6,,
PGA Gain:,64,,
Total Measurement Time in sec:,  2.707,,
Wavelength (nm),Absorbance (AU),Reference Signal (unitless),Sample Signal (unitless)
901.51,1.298894,108485,5451
905.376,1.299122,121306,6092
909.237,1.315931,131909,6373
913.095,1.318844,143299,6877
916.948,1.292001,156982,8014
922.079,1.320218,179937,8608
925.923,1.306312,200504,9904
929.762,1.308307,222660,10948
933.597,1.317371,244426,11770
937.427,1.304618,263972,13090
941.254,1.302179,281845,14055
945.076,1.300783,297271,14872
950.165,1.329793,315605,14769
953.978,1.311928,328029,15995
957.786,1.305943,340470,16832
961.59,1.309616,352317,17271
965.389,1.310604,363056,17757
969.185,1.307836,373162,18368
972.976,1.310568,382632,18716
976.763,1.307046,391202,19291
981.806,1.309213,400190,19636
985.583,1.320349,406088,19421
989.355,1.303091,410162,20411
993.124,1.311795,412868,20138
996.888,1.303852,414263,20579
1000.65,1.299648,415476,20840
1004.4,1.312017,415479,20255
1009.41,1.306661,414358,20451
1013.15,1.312392,412923,20113
1016.89,1.310640,411526,20126
1020.63,1.302696,409066,20375
1024.36,1.300920,406777,20344
1028.09,1.305398,404427,20019
1031.82,1.312650,401911,19565
1036.78,1.302613,398410,19848
1040.49,1.308620,396204,19467
1044.2,1.304610,394236,19550
1047.91,1.316572,392042,18913
1051.61,1.310927,389823,19052
1055.31,1.306449,388234,19171
1059,1.313578,387599,18828
1063.92,1.310302,386688,18926
1067.61,1.301702,386598,19300
1071.29,1.310891,387377,18934
1074.96,1.310792,388536,18995
1078.63,1.314143,389855,18913
1082.3,1.314669,391215,18956
1085.96,1.314598,393215,19056
1090.84,1.319512,396270,18988
1094.49,1.312552,398760,19416
1098.14,1.313653,400987,19475
1101.79,1.318420,403477,19382
1105.43,1.309361,406116,19920
1109.06,1.315743,407701,19706
1112.7,1.316101,409859,19794
1117.53,1.314822,412494,19980
1121.15,1.308706,414909,20382
1124.77,1.321850,416559,19853
1128.38,1.311928,418532,20408
1131.99,1.325509,419956,19847
1135.6,1.314670,421946,20445
1139.2,1.316721,423881,20442
1143.99,1.320261,426786,20415
1147.58,1.321971,428617,20422
1151.17,1.315104,431169,20871
1154.75,1.311840,433579,21146
1158.33,1.311390,436264,21299
1161.91,1.319137,439132,21060
1165.48,1.311672,442389,21584
1169.04,1.313454,446101,21676
1173.79,1.316395,451929,21811
1177.34,1.317160,456026,21970
1180.9,1.316386,461306,22264
1184.44,1.323222,467657,22218
1187.99,1.316161,473969,22887
1191.52,1.318628,479856,23040
1195.06,1.322129,487372,23213
1199.76,1.324742,497347,23546
1203.29,1.319961,504311,24140
1206.81,1.321978,511507,24371
1210.33,1.321307,519078,24770
1213.84,1.318464,527163,25321
1217.35,1.328417,534208,25078
1220.85,1.322097,540472,25744
1225.51,1.327997,549929,25841
1229.01,1.320038,556888,26652
1232.5,1.326155,562180,26529
1235.98,1.322933,567975,27002
1239.46,1.320748,574815,27465
1242.94,1.319062,582782,27954
1246.41,1.326193,591476,27909
1251.03,1.325518,604016,28545
1254.5,1.321068,612289,29234
1257.96,1.326991,619125,29160
1261.41,1.327575,624551,29376
1264.86,1.325216,629900,29789
1268.31,1.325755,634345,29962
1271.75,1.329221,638574,29922
1276.33,1.327348,642499,30236
1279.76,1.325243,645905,30544
1283.19,1.328065,648307,30459
1286.61,1.325126,650446,30767
1290.03,1.325038,652132,30853
1293.44,1.324379,653907,30984
1296.85,1.331584,655963,30570
1301.39,1.327964,657349,30891
1304.8,1.327498,657558,30934
1308.19,1.331838,658515,30671
1311.58,1.330008,658804,30814
1314.97,1.331754,659011,30700
1318.36,1.333835,658272,30519
1321.73,1.327650,658022,30945
1326.23,1.332745,657870,30577
1329.6,1.328729,656482,30796
1332.97,1.331978,654926,30494
1336.33,1.328994,653727,30648
1339.69,1.337559,652497,29993
1343.04,1.331857,649913,30269
1346.39,1.329410,647671,30335
1349.73,1.336578,645338,29731
1354.18,1.330261,641175,29972
1357.52,1.327651,638376,30021
1360.85,1.330553,635805,29701
1364.17,1.327762,633413,29780
1367.49,1.328682,631026,29605
1370.81,1.335896,628050,28980
1374.12,1.324803,625034,29587
1378.54,1.332391,620272,28853
1381.84,1.328006,616892,28987
1385.14,1.329892,613613,28708
1388.43,1.324347,611526,28978
1391.72,1.322147,610663,29084
1395.01,1.328717,610634,28646
1398.29,1.319597,611700,29305
1402.66,1.329280,614051,28769
1405.93,1.331132,616268,28750
1409.2,1.330623,617795,28855
1412.46,1.329697,618872,28967
1415.72,1.332946,619795,28794
1418.98,1.337787,620495,28507
1422.23,1.328857,621087,29127
1426.56,1.331645,621375,28954
1429.8,1.336746,621616,28627
1433.04,1.334292,622129,28813
1436.27,1.333780,621526,28819
1439.5,1.334971,621113,28721
1442.72,1.334489,620921,28744
1445.94,1.328957,620270,29082
1450.23,1.327789,618860,29094
1453.44,1.337213,617697,28416
1456.64,1.338072,616264,28294
1459.85,1.327097,614413,28931
1463.04,1.338155,612307,28107
1466.24,1.336476,610032,28111
1469.43,1.332479,607345,28246
1473.67,1.339567,603789,27626
1476.85,1.339179,601175,27531
1480.02,1.333200,597737,27753
1483.19,1.335689,594479,27444
1486.36,1.336471,591232,27245
1489.52,1.340373,587853,26847
1492.68,1.332886,583875,27129
1496.89,1.339598,578062,26447
1500.03,1.341212,574159,26171
1503.18,1.333847,570285,26439
1506.32,1.341157,565444,25777
1509.45,1.340340,560571,25603
1512.58,1.333585,555821,25784
1515.71,1.338941,550344,25217
1519.87,1.341221,543983,24795
1522.99,1.341170,538764,24560
1526.1,1.337558,533692,24532
1529.21,1.340482,527902,24103
1532.32,1.339105,521886,23904
1535.42,1.341026,515888,23525
1538.51,1.335808,509987,23537
1541.6,1.332010,503936,23462
1545.72,1.334122,494694,22920
1548.8,1.336940,488378,22481
1551.88,1.336719,481832,22191
1554.95,1.333275,474989,22050
1558.02,1.331063,467818,21828
1561.08,1.340215,460730,21049
1564.15,1.339698,454170,20774
1568.22,1.333524,444181,20608
1571.27,1.326962,436947,20581
1574.32,1.337979,429598,19728
1577.36,1.337820,422039,19388
1580.4,1.322751,414375,19708
1583.43,1.326101,406354,19178
1586.46,1.330118,398475,18633
1590.49,1.338486,388982,17842
1593.51,1.329100,380708,17844
1596.53,1.332793,372727,17322
1599.54,1.325852,365060,17239
1602.55,1.328174,357543,16794
1605.55,1.324800,349495,16544
1608.55,1.325693,341154,16116
1612.54,1.328915,330877,15515
1615.53,1.327744,322904,15182
1618.51,1.322263,315116,15004
1621.49,1.333966,307217,14239
1624.47,1.312791,299481,14574
1627.44,1.319142,292112,14009
1630.41,1.325100,284245,13446
1634.36,1.314612,274079,13282
1637.32,1.314810,266916,12929
1640.27,1.318075,259612,12481
1643.22,1.318385,251804,12097
1646.16,1.311296,244348,11932
1649.1,1.312036,236703,11539
1652.04,1.318688,228171,10954
1655.95,1.323599,215408,10225
1658.88,1.293753,204937,10420
1661.8,1.300749,193395,9676
1664.72,1.329355,179728,8419
1667.63,1.319634,163642,7839
1670.54,1.295872,146312,7403
1673.44,1.304394,128451,6373
1677.31,1.329820,105080,4917
1680.21,1.299012,88906,4466
1683.1,1.361502,75033,3264
1685.99,1.334415,63520,2941
1688.87,1.308155,53714,2642
1691.75,1.293233,45653,2324
1694.62,1.235797,39137,2274
1697.49,1.296629,33776,1706
1701.31,1.216868,28175,1710

File: Column 1_078077_20241121_164420.csv
Method:,Column 1,,
Host Date-Time:,21/11/24 @ 16:44:20,,
Header Version:,1,,
System Temp (C):,31.7,,
Detector Temp (C):,26.55,,
Humidity (%):,5.02,,
Lamp PD:,3808,,
Shift Vector Coefficients:,-10.5391,0.0761263,-0.000134223,,
Pixel to Wavelength Coefficients:,1775.68,-0.916766,-0.000235065,,
Serial Number:,5510004,,
Scan Config Name:,Column 1,,
Scan Config Type:,Slew,,
Section 1,,
Start wavelength (nm):,900,,
End wavelength (nm):,1700,,
Pattern Pixel Width (nm):,   7.03,,,,
Exposure (ms):,  0.635,,,,
Digital Resolution:,228,,
Num Repeats:,6,,
PGA Gain:,64,,
Total Measurement Time in sec:,  2.709,,
Wavelength (nm),Absorbance (AU),Reference Signal (unitless),Sample Signal (unitless)
901.51,1.321375,108485,5176
905.376,1.337092,121306,5582
909.237,1.313484,131909,6409
913.095,1.298669,143299,7204
916.948,1.316639,156982,7572
922.079,1.307638,179937,8861
925.923,1.306751,200504,9894
929.762,1.304752,222660,11038
933.597,1.313624,244426,11872
937.427,1.324127,263972,12515
941.254,1.314941,281845,13648
945.076,1.302715,297271,14806
950.165,1.319420,315605,15126
953.978,1.309329,328029,16091
957.786,1.302960,340470,16948
961.59,1.307484,352317,17356
965.389,1.309212,363056,17814
969.185,1.308072,373162,18358
972.976,1.310754,382632,18708
976.763,1.308535,391202,19225
981.806,1.311964,400190,19512
985.583,1.307069,406088,20024
989.355,1.305995,410162,20275
993.124,1.313610,412868,20054
996.888,1.304464,414263,20550
1000.65,1.315566,415476,20090
1004.4,1.304092,415479,20628
1009.41,1.306682,414358,20450
1013.15,1.311249,412923,20166
1016.89,1.313411,411526,19998
1020.63,1.311611,409066,19961
1024.36,1.310438,406777,19903
1028.09,1.312705,404427,19685
1031.82,1.309531,401911,19706
1036.78,1.316215,398410,19236
1040.49,1.318754,396204,19018
1044.2,1.309030,394236,19352
1047.91,1.302408,392042,19540
1051.61,1.310448,389823,19073
1055.31,1.304573,388234,19254
1059,1.308328,387599,19057
1063.92,1.314128,386688,18760
1067.61,1.309834,386598,18942
1071.29,1.306147,387377,19142
1074.96,1.316986,388536,18726
1078.63,1.312401,389855,18989
1082.3,1.310133,391215,19155
1085.96,1.310470,393215,19238
1090.84,1.321070,396270,18920
1094.49,1.319928,398760,19089
1098.14,1.317303,400987,19312
1101.79,1.305136,403477,19984
1105.43,1.324355,406116,19244
1109.06,1.312384,407701,19859
1112.7,1.310130,409859,20068
1117.53,1.316259,412494,19914
1121.15,1.312946,414909,20184
1124.77,1.321632,416559,19863
1128.38,1.324296,418532,19835
1131.99,1.311768,419956,20485
1135.6,1.319497,421946,20219
1139.2,1.322280,423881,20182
1143.99,1.314786,426786,20674
1147.58,1.321185,428617,20459
1151.17,1.313111,431169,20967
1154.75,1.311286,433579,21173
1158.33,1.318110,436264,20972
1161.91,1.320024,439132,21017
1165.48,1.321460,442389,21103
1169.04,1.315301,446101,21584
1173.79,1.317431,451929,21759
1177.34,1.314028,456026,22129
1180.9,1.319283,461306,22116
1184.44,1.313959,467657,22697
1187.99,1.316332,473969,22878
1191.52,1.322358,479856,22843
1195.06,1.317496,487372,23462
1199.76,1.327407,497347,23402
1203.29,1.326505,504311,23779
1206.81,1.321658,511507,24389
1210.33,1.325075,519078,24556
1213.84,1.327598,527163,24794
1217.35,1.325174,534208,25266
1220.85,1.331321,540472,25203
1225.51,1.323234,549929,26126
1229.01,1.322555,556888,26498
1232.5,1.316490,562180,27126
1235.98,1.318182,567975,27299
1239.46,1.326767,574815,27087
1242.94,1.321805,582782,27778
1246.41,1.332241,591476,27523
1251.03,1.327394,604016,28422
1254.5,1.319511,612289,29339
1257.96,1.327274,619125,29141
1261.41,1.329427,624551,29251
1264.86,1.327042,629900,29664
1268.31,1.328430,634345,29778
1271.75,1.327714,638574,30026
1276.33,1.334181,642499,29764
1279.76,1.331559,645905,30103
1283.19,1.326912,648307,30540
1286.61,1.333363,650446,30189
1290.03,1.331034,652132,30430
1293.44,1.335164,653907,30224
1296.85,1.329798,655963,30696
1301.39,1.333425,657349,30505
1304.8,1.329651,657558,30781
1308.19,1.333355,658515,30564
1311.58,1.332978,658804,30604
1314.97,1.333810,659011,30555
1318.36,1.334975,658272,30439
1321.73,1.327748,658022,30938
1326.23,1.336125,657870,30340
1329.6,1.333807,656482,30438
1332.97,1.332092,654926,30486
1336.33,1.332237,653727,30420
1339.69,1.334385,652497,30213
1343.04,1.337155,649913,29902
1346.39,1.329139,647671,30354
1349.73,1.327958,645338,30327
1354.18,1.328944,641175,30063
1357.52,1.328636,638376,29953
1360.85,1.334121,635805,29458
1364.17,1.329545,633413,29658
1367.49,1.326838,631026,29731
1370.81,1.330505,628050,29342
1374.12,1.333640,625034,28991
1378.54,1.324811,620272,29361
1381.84,1.322705,616892,29343
1385.14,1.330225,613613,28686
1388.43,1.325607,611526,28894
1391.72,1.325897,610663,28834
1395.01,1.328459,610634,28663
1398.29,1.326709,611700,28829
1402.66,1.334092,614051,28452
1405.93,1.331676,616268,28714
1409.2,1.327997,617795,29030
1412.46,1.329847,618872,28957
1415.72,1.329910,619795,28996
1418.98,1.332457,620495,28859
1422.23,1.332270,621087,28899
1426.56,1.331690,621375,28951
1429.8,1.332985,621616,28876
1433.04,1.337226,622129,28619
1436.27,1.335577,621526,28700
1439.5,1.333356,621113,28828
1442.72,1.333463,620921,28812
1445.94,1.334003,620270,28746
1450.23,1.331477,618860,28848
1453.44,1.334182,617697,28615
1456.64,1.336999,616264,28364
1459.85,1.338812,614413,28161
1463.04,1.335751,612307,28263
1466.24,1.336476,610032,28111
1469.43,1.335394,607345,28057
1473.67,1.336154,603789,27844
1476.85,1.340648,601175,27438
1480.02,1.332247,597737,27814
1483.19,1.335531,594479,27454
1486.36,1.336631,591232,27235
1489.52,1.340859,587853,26817
1492.68,1.334474,583875,27030
1496.89,1.337125,578062,26598
1500.03,1.335721,574159,26504
1503.18,1.337774,570285,26201
1506.32,1.339627,565444,25868
1509.45,1.336540,560571,25828
1512.58,1.337714,555821,25540
1515.71,1.336040,550344,25386
1519.87,1.342273,543983,24735
1522.99,1.340870,538764,24577
1526.1,1.342364,533692,24262
1529.21,1.342324,527902,24001
1532.32,1.336930,521886,24024
1535.42,1.337441,515888,23720
1538.51,1.339849,509987,23319
1541.6,1.342521,503936,22901
1545.72,1.332250,494694,23019
1548.8,1.340646,488378,22290
1551.88,1.336210,481832,22217
1554.95,1.332940,474989,22067
1558.02,1.332518,467818,21755
1561.08,1.333378,460730,21383
1564.15,1.334937,454170,21003
1568.22,1.333271,444181,20620
1571.27,1.331075,436947,20387
1574.32,1.336046,429598,19816
1577.36,1.335095,422039,19510
1580.4,1.335043,414375,19158
1583.43,1.334423,406354,18814
1586.46,1.329094,398475,18677
1590.49,1.329333,388982,18222
1593.51,1.329733,380708,17818
1596.53,1.324031,372727,17675
1599.54,1.333425,365060,16941
1602.55,1.331653,357543,16660
1605.55,1.323202,349495,16605
1608.55,1.331499,341154,15902
1612.54,1.330429,330877,15461
1615.53,1.320173,322904,15449
1618.51,1.324847,315116,14915
1621.49,1.321786,307217,14644
1624.47,1.326658,299481,14116
1627.44,1.325199,292112,13815
1630.41,1.333152,284245,13199
1634.36,1.319909,274079,13121
1637.32,1.332778,266916,12405
1640.27,1.323326,259612,12331
1643.22,1.320148,251804,12048
1646.16,1.315869,244348,11807
1649.1,1.326890,236703,11151
1652.04,1.328309,228171,10714
1655.95,1.325301,215408,10185
1658.88,1.311490,204937,10003
1661.8,1.293627,193395,9836
1664.72,1.352123,179728,7989
1667.63,1.329439,163642,7664
1670.54,1.299761,146312,7337
1673.44,1.316346,128451,6200
1677.31,1.299051,105080,5278
1680.21,1.312443,88906,4330
1683.1,1.357529,75033,3294
1685.99,1.268504,63520,3423
1688.87,1.283395,53714,2797
1691.75,1.305553,45653,2259
1694.62,1.256528,39137,2168
1697.49,1.409682,33776,1315
1701.31,1.377246,28175,1182

File: Column 1_078079_20241121_164426.csv
Method:,Column 1,,
Host Date-Time:,21/11/24 @ 16:44:26,,
Header Version:,1,,
System Temp (C):,31.74,,
Detector Temp (C):,26.63,,
Humidity (%):,4.93,,
Lamp PD:,3808,,
Shift Vector Coefficients:,-10.5391,0.0761263,-0.000134223,,
Pixel to Wavelength Coefficients:,1775.68,-0.916766,-0.000235065,,
Serial Number:,5510004,,
Scan Config Name:,Column 1,,
Scan Config Type:,Slew,,
Section 1,,
Start wavelength (nm):,900,,
End wavelength (nm):,1700,,
Pattern Pixel Width (nm):,   7.03,,,,
Exposure (ms):,  0.635,,,,
Digital Resolution:,228,,
Num Repeats:,6,,
PGA Gain:,64,,
Total Measurement Time in sec:,  2.706,,
Wavelength (nm),Absorbance (AU),Reference Signal (unitless),Sample Signal (unitless)
901.51,1.308154,108485,5336
905.376,1.353261,121306,5378
909.237,1.339669,131909,6034
913.095,1.329003,143299,6718
916.948,1.331932,156982,7310
922.079,1.322799,179937,8557
925.923,1.320939,200504,9576
929.762,1.325420,222660,10525
933.597,1.311289,244426,11936
937.427,1.307147,263972,13014
941.254,1.325245,281845,13328
945.076,1.315786,297271,14367
950.165,1.316758,315605,15219
953.978,1.313233,328029,15947
957.786,1.313045,340470,16559
961.59,1.319433,352317,16885
965.389,1.312934,363056,17662
969.185,1.315396,373162,18051
972.976,1.307355,382632,18855
976.763,1.315159,391202,18934
981.806,1.314465,400190,19400
985.583,1.307959,406088,19983
989.355,1.319858,410162,19638
993.124,1.305352,412868,20439
996.888,1.313929,414263,20107
1000.65,1.305882,415476,20543
1004.4,1.310433,415479,20329
1009.41,1.313726,414358,20121
1013.15,1.315317,412923,19978
1016.89,1.306239,411526,20331
1020.63,1.312460,409066,19922
1024.36,1.313987,406777,19741
1028.09,1.319218,404427,19392
1031.82,1.309906,401911,19689
1036.78,1.311366,398410,19452
1040.49,1.313917,396204,19231
1044.2,1.302770,394236,19633
1047.91,1.315128,392042,18976
1051.61,1.315948,389823,18833
1055.31,1.310912,388234,18975
1059,1.313948,387599,18812
1063.92,1.312142,386688,18846
1067.61,1.320887,386598,18466
1071.29,1.319860,387377,18547
1074.96,1.326269,388536,18330
1078.63,1.310666,389855,19065
1082.3,1.318951,391215,18770
1085.96,1.313392,393215,19109
1090.84,1.320611,396270,18940
1094.49,1.317094,398760,19214
1098.14,1.323965,400987,19018
1101.79,1.327980,403477,18960
1105.43,1.318415,406116,19509
1109.06,1.324942,407701,19293
1112.7,1.325326,409859,19378
1117.53,1.318117,412494,19829
1121.15,1.323002,414909,19722
1124.77,1.324505,416559,19732
1128.38,1.318489,418532,20102
1131.99,1.319101,419956,20142
1135.6,1.321025,421946,20148
1139.2,1.316763,423881,20440
1143.99,1.312168,426786,20799
1147.58,1.312589,428617,20868
1151.17,1.323445,431169,20474
1154.75,1.315553,433579,20966
1158.33,1.329885,436264,20411
1161.91,1.329635,439132,20557
1165.48,1.327449,442389,20814
1169.04,1.318776,446101,21412
1173.79,1.317811,451929,21740
1177.34,1.320912,456026,21781
1180.9,1.323783,461306,21888
1184.44,1.318769,467657,22447
1187.99,1.322623,473969,22549
1191.52,1.318968,479856,23022
1195.06,1.324061,487372,23110
1199.76,1.326665,497347,23442
1203.29,1.326249,504311,23793
1206.81,1.323674,511507,24276
1210.33,1.326883,519078,24454
1213.84,1.330533,527163,24627
1217.35,1.322979,534208,25394
1220.85,1.327717,540472,25413
1225.51,1.331253,549929,25648
1229.01,1.331329,556888,25968
1232.5,1.327893,562180,26423
1235.98,1.324416,567975,26910
1239.46,1.331620,574815,26786
1242.94,1.328469,582782,27355
1246.41,1.328361,591476,27770
1251.03,1.329369,604016,28293
1254.5,1.327654,612289,28794
1257.96,1.333065,619125,28755
1261.41,1.323968,624551,29621
1264.86,1.328273,629900,29580
1268.31,1.328415,634345,29779
1271.75,1.330136,638574,29859
1276.33,1.330100,642499,30045
1279.76,1.331386,645905,30115
1283.19,1.330266,648307,30305
1286.61,1.329510,650446,30458
1290.03,1.327990,652132,30644
1293.44,1.329270,653907,30637
1296.85,1.334592,655963,30359
1301.39,1.334880,657349,30403
1304.8,1.332624,657558,30571
1308.19,1.328973,658515,30874
1311.58,1.331137,658804,30734
1314.97,1.334564,659011,30502
1318.36,1.335918,658272,30373
1321.73,1.330268,658022,30759
1326.23,1.334339,657870,30465
1329.6,1.333137,656482,30485
1332.97,1.339216,654926,29990
1336.33,1.335965,653727,30160
1339.69,1.331219,652497,30434
1343.04,1.331226,649913,30313
1346.39,1.334233,647671,30000
1349.73,1.332420,645338,30017
1354.18,1.334132,641175,29706
1357.52,1.328564,638376,29958
1360.85,1.336338,635805,29308
1364.17,1.331571,633413,29520
1367.49,1.330372,631026,29490
1370.81,1.325970,628050,29650
1374.12,1.330327,625034,29213
1378.54,1.330619,620272,28971
1381.84,1.334299,616892,28570
1385.14,1.331863,613613,28578
1388.43,1.328427,611526,28707
1391.72,1.327557,610663,28724
1395.01,1.329932,610634,28566
1398.29,1.329005,611700,28677
1402.66,1.333482,614051,28492
1405.93,1.328797,616268,28905
1409.2,1.334327,617795,28610
1412.46,1.336010,618872,28549
1415.72,1.330975,619795,28925
1418.98,1.331540,620495,28920
1422.23,1.331744,621087,28934
1426.56,1.333735,621375,28815
1429.8,1.329226,621616,29127
1433.04,1.335469,622129,28735
1436.27,1.334429,621526,28776
1439.5,1.328085,621113,29180
1442.72,1.332379,620921,28884
1445.94,1.335699,620270,28634
1450.23,1.337007,618860,28483
1453.44,1.335580,617697,28523
1456.64,1.335990,616264,28430
1459.85,1.337796,614413,28227
1463.04,1.341396,612307,27898
1466.24,1.334365,610032,28248
1469.43,1.333865,607345,28156
1473.67,1.338155,603789,27716
1476.85,1.342139,601175,27344
1480.02,1.339902,597737,27328
1483.19,1.334678,594479,27508
1486.36,1.343915,591232,26782
1489.52,1.344240,587853,26609
1492.68,1.340362,583875,26666
1496.89,1.341045,578062,26359
1500.03,1.345146,574159,25935
1503.18,1.336715,570285,26265
1506.32,1.340164,565444,25836
1509.45,1.336557,560571,25827
1512.58,1.342708,555821,25248
1515.71,1.338442,550344,25246
1519.87,1.339875,543983,24872
1522.99,1.345596,538764,24311
1526.1,1.347750,533692,23963
1529.21,1.340266,527902,24115
1532.32,1.350518,521886,23284
1535.42,1.345498,515888,23284
1538.51,1.337676,509987,23436
1541.6,1.345070,503936,22767
1545.72,1.338809,494694,22674
1548.8,1.350419,488378,21794
1551.88,1.340493,481832,21999
1554.95,1.335823,474989,21921
1558.02,1.341738,467818,21298
1561.08,1.342823,460730,20923
1564.15,1.335496,454170,20976
1568.22,1.339294,444181,20336
1571.27,1.340246,436947,19961
1574.32,1.335959,429598,19820
1577.36,1.340516,422039,19268
1580.4,1.335565,414375,19135
1583.43,1.333985,406354,18833
1586.46,1.333605,398475,18484
1590.49,1.336810,388982,17911
1593.51,1.340992,380708,17362
1596.53,1.334249,372727,17264
1599.54,1.342047,365060,16608
1602.55,1.347799,357543,16052
1605.55,1.332401,349495,16257
1608.55,1.342395,341154,15508
1612.54,1.335458,330877,15283
1615.53,1.328804,322904,15145
1618.51,1.336295,315116,14527
1621.49,1.334240,307217,14230
1624.47,1.328168,299481,14067
1627.44,1.324100,292112,13850
1630.41,1.335296,284245,13134
1634.36,1.322831,274079,13033
1637.32,1.321614,266916,12728
1640.27,1.326011,259612,12255
1643.22,1.312678,251804,12257
1646.16,1.329659,244348,11438
1649.1,1.323515,236703,11238
1652.04,1.331523,228171,10635
1655.95,1.310339,215408,10542
1658.88,1.325745,204937,9680
1661.8,1.329030,193395,9066
1664.72,1.332358,179728,8361
1667.63,1.318362,163642,7862
1670.54,1.296812,146312,7387
1673.44,1.328564,128451,6028
1677.31,1.282581,105080,5482
1680.21,1.308748,88906,4367
1683.1,1.321976,75033,3575
1685.99,1.339316,63520,2908
1688.87,1.322357,53714,2557
1691.75,1.290253,45653,2340
1694.62,1.278088,39137,2063
1697.49,1.243952,33776,1926
1701.31,1.315368,28175,1363