Folder: textile_sorting_NIRSCAN_/ML/samples/unknown (part 29)

File: Column 1_078191_20241121_164956.csv
Method:,Column 1,,
Host Date-Time:,21/11/24 @ 16:49:56,,
Header Version:,1,,
System Temp (C):,33.78,,
Detector Temp (C):,30.43,,
Humidity (%):,3.23,,
Lamp PD:,3803,,
Shift Vector Coefficients:,-10.5391,0.0761263,-0.000134223,,
Pixel to Wavelength Coefficients:,1775.68,-0.916766,-0.000235065,,
Serial Number:,5510004,,
Scan Config Name:,Column 1,,
Scan Config Type:,Slew,,
Section 1,,
Start wavelength (nm):,900,,
End wavelength (nm):,1700,,
Pattern Pixel Width (nm):,   7.03,,,,
Exposure (ms):,  0.635,,,,
Digital Resolution:,228,,
Num Repeats:,6,,
PGA Gain:,64,,
Total Measurement Time in sec:,  2.721,,
Wavelength (nm),Absorbance (AU),Reference Signal (unitless),Sample Signal (unitless)
901.51,1.290217,108485,5561
905.376,1.317841,121306,5835
909.237,1.302841,131909,6568
913.095,1.318465,143299,6883
916.948,1.321832,156982,7482
922.079,1.322038,179937,8572
925.923,1.319897,200504,9599
929.762,1.313535,222660,10817
933.597,1.317297,244426,11772
937.427,1.307514,263972,13003
941.254,1.315929,281845,13617
945.076,1.312294,297271,14483
950.165,1.309766,315605,15466
953.978,1.306826,328029,16184
957.786,1.313885,340470,16527
961.59,1.320385,352317,16848
965.389,1.315177,363056,17571
969.185,1.317494,373162,17964
972.976,1.303023,382632,19044
976.763,1.305990,391202,19338
981.806,1.311075,400190,19552
985.583,1.302517,406088,20235
989.355,1.302156,410162,20455
993.124,1.307652,412868,20331
996.888,1.305438,414263,20504
1000.65,1.313066,415476,20206
1004.4,1.314059,415479,20160
1009.41,1.306109,414358,20477
1013.15,1.307539,412923,20339
1016.89,1.315784,411526,19889
1020.63,1.309268,409066,20069
1024.36,1.308696,406777,19983
1028.09,1.310833,404427,19770
1031.82,1.316328,401911,19400
1036.78,1.309739,398410,19525
1040.49,1.313015,396204,19271
1044.2,1.316317,394236,19030
1047.91,1.317630,392042,18867
1051.61,1.312686,389823,18975
1055.31,1.317391,388234,18694
1059,1.302083,387599,19333
1063.92,1.306055,386688,19112
1067.61,1.306954,386598,19068
1071.29,1.313237,387377,18832
1074.96,1.313844,388536,18862
1078.63,1.315500,389855,18854
1082.3,1.313479,391215,19008
1085.96,1.311261,393215,19203
1090.84,1.313132,396270,19269
1094.49,1.318747,398760,19141
1098.14,1.320553,400987,19168
1101.79,1.323854,403477,19141
1105.43,1.317770,406116,19538
1109.06,1.314907,407701,19744
1112.7,1.319405,409859,19644
1117.53,1.314844,412494,19979
1121.15,1.321836,414909,19775
1124.77,1.307351,416559,20527
1128.38,1.319528,418532,20054
1131.99,1.320916,419956,20058
1135.6,1.325859,421946,19925
1139.2,1.319085,423881,20331
1143.99,1.322116,426786,20328
1147.58,1.309602,428617,21012
1151.17,1.324826,431169,20409
1154.75,1.314684,433579,21008
1158.33,1.315611,436264,21093
1161.91,1.315788,439132,21223
1165.48,1.317058,442389,21318
1169.04,1.319568,446101,21373
1173.79,1.314131,451929,21925
1177.34,1.325361,456026,21559
1180.9,1.318125,461306,22175
1184.44,1.318576,467657,22457
1187.99,1.317968,473969,22792
1191.52,1.324798,479856,22715
1195.06,1.317125,487372,23482
1199.76,1.321966,497347,23697
1203.29,1.320321,504311,24120
1206.81,1.323317,511507,24296
1210.33,1.328074,519078,24387
1213.84,1.324735,527163,24958
1217.35,1.327155,534208,25151
1220.85,1.319842,540472,25878
1225.51,1.326387,549929,25937
1229.01,1.321066,556888,26589
1232.5,1.328848,562180,26365
1235.98,1.326275,567975,26795
1239.46,1.321429,574815,27422
1242.94,1.323685,582782,27658
1246.41,1.321950,591476,28183
1251.03,1.322229,604016,28762
1254.5,1.325158,612289,28960
1257.96,1.330235,619125,28943
1261.41,1.330007,624551,29212
1264.86,1.326047,629900,29732
1268.31,1.324843,634345,30025
1271.75,1.330034,638574,29866
1276.33,1.332521,642499,29878
1279.76,1.328039,645905,30348
1283.19,1.327395,648307,30506
1286.61,1.326271,650446,30686
1290.03,1.330349,652132,30478
1293.44,1.325375,653907,30913
1296.85,1.329600,655963,30710
1301.39,1.330983,657349,30677
1304.8,1.330584,657558,30715
1308.19,1.332064,658515,30655
1311.58,1.328742,658804,30904
1314.97,1.334863,659011,30481
1318.36,1.334020,658272,30506
1321.73,1.336196,658022,30342
1326.23,1.332930,657870,30564
1329.6,1.331076,656482,30630
1332.97,1.336963,654926,30146
1336.33,1.334944,653727,30231
1339.69,1.330521,652497,30483
1343.04,1.334476,649913,30087
1346.39,1.326315,647671,30552
1349.73,1.330759,645338,30132
1354.18,1.329277,641175,30040
1357.52,1.332159,638376,29711
1360.85,1.326420,635805,29985
1364.17,1.327996,633413,29764
1367.49,1.331670,631026,29402
1370.81,1.334236,628050,29091
1374.12,1.331459,625034,29137
1378.54,1.330829,620272,28957
1381.84,1.331420,616892,28760
1385.14,1.328593,613613,28794
1388.43,1.329715,611526,28622
1391.72,1.331979,610663,28433
1395.01,1.326932,610634,28764
1398.29,1.333098,611700,28408
1402.66,1.330928,614051,28660
1405.93,1.329729,616268,28843
1409.2,1.329932,617795,28901
1412.46,1.338451,618872,28389
1415.72,1.331320,619795,28902
1418.98,1.335068,620495,28686
1422.23,1.331324,621087,28962
1426.56,1.332005,621375,28930
1429.8,1.331814,621616,28954
1433.04,1.341205,622129,28358
1436.27,1.335623,621526,28697
1439.5,1.334639,621113,28743
1442.72,1.336761,620921,28594
1445.94,1.335502,620270,28647
1450.23,1.332170,618860,28802
1453.44,1.335322,617697,28540
1456.64,1.335791,616264,28443
1459.85,1.334363,614413,28451
1463.04,1.336612,612307,28207
1466.24,1.341527,610032,27786
1469.43,1.337116,607345,27946
1473.67,1.337466,603789,27760
1476.85,1.334363,601175,27838
1480.02,1.337699,597737,27467
1483.19,1.337163,594479,27351
1486.36,1.341328,591232,26942
1489.52,1.340130,587853,26862
1492.68,1.341357,583875,26605
1496.89,1.339024,578062,26482
1500.03,1.345766,574159,25898
1503.18,1.331423,570285,26587
1506.32,1.341241,565444,25772
1509.45,1.343660,560571,25408
1512.58,1.337986,555821,25524
1515.71,1.334469,550344,25478
1519.87,1.335583,543983,25119
1522.99,1.337981,538764,24741
1526.1,1.337345,533692,24544
1529.21,1.342722,527902,23979
1532.32,1.340798,521886,23811
1535.42,1.341192,515888,23516
1538.51,1.335292,509987,23565
1541.6,1.333642,503936,23374
1545.72,1.332288,494694,23017
1548.8,1.332807,488378,22696
1551.88,1.341996,481832,21923
1554.95,1.336974,474989,21863
1558.02,1.341432,467818,21313
1561.08,1.335536,460730,21277
1564.15,1.337342,454170,20887
1568.22,1.340428,444181,20283
1571.27,1.332249,436947,20332
1574.32,1.335630,429598,19835
1577.36,1.339435,422039,19316
1580.4,1.335497,414375,19138
1583.43,1.337272,406354,18691
1586.46,1.334546,398475,18444
1590.49,1.327716,388982,18290
1593.51,1.333134,380708,17679
1596.53,1.321068,372727,17796
1599.54,1.325424,365060,17256
1602.55,1.344968,357543,16157
1605.55,1.334194,349495,16190
1608.55,1.314415,341154,16540
1612.54,1.330008,330877,15476
1615.53,1.322287,322904,15374
1618.51,1.323858,315116,14949
1621.49,1.329777,307217,14377
1624.47,1.324693,299481,14180
1627.44,1.326048,292112,13788
1630.41,1.317448,284245,13685
1634.36,1.319710,274079,13127
1637.32,1.307878,266916,13137
1640.27,1.314989,259612,12570
1643.22,1.321122,251804,12021
1646.16,1.300121,244348,12243
1649.1,1.308251,236703,11640
1652.04,1.325400,228171,10786
1655.95,1.311205,215408,10521
1658.88,1.310146,204937,10034
1661.8,1.286185,193395,10006
1664.72,1.301920,179728,8968
1667.63,1.288944,163642,8413
1670.54,1.265459,146312,7940
1673.44,1.277508,128451,6780
1677.31,1.209275,105080,6490
1680.21,1.244180,88906,5067
1683.1,1.231504,75033,4403
1685.99,1.230969,63520,3732
1688.87,1.198226,53714,3403
1691.75,1.288032,45653,2352
1694.62,1.193087,39137,2509
1697.49,1.231943,33776,1980
1701.31,1.312193,28175,1373

File: Column 1_078192_20241121_164959.csv
Method:,Column 1,,
Host Date-Time:,21/11/24 @ 16:49:59,,
Header Version:,1,,
System Temp (C):,33.74,,
Detector Temp (C):,30.43,,
Humidity (%):,3.23,,
Lamp PD:,3804,,
Shift Vector Coefficients:,-10.5391,0.0761263,-0.000134223,,
Pixel to Wavelength Coefficients:,1775.68,-0.916766,-0.000235065,,
Serial Number:,5510004,,
Scan Config Name:,Column 1,,
Scan Config Type:,Slew,,
Section 1,,
Start wavelength (nm):,900,,
End wavelength (nm):,1700,,
Pattern Pixel Width (nm):,   7.03,,,,
Exposure (ms):,  0.635,,,,
Digital Resolution:,228,,
Num Repeats:,6,,
PGA Gain:,64,,
Total Measurement Time in sec:,  2.721,,
Wavelength (nm),Absorbance (AU),Reference Signal (unitless),Sample Signal (unitless)
901.51,1.339363,108485,4966
905.376,1.323686,121306,5757
909.237,1.344882,131909,5962
913.095,1.311890,143299,6988
916.948,1.316639,156982,7572
922.079,1.321734,179937,8578
925.923,1.321030,200504,9574
929.762,1.334131,222660,10316
933.597,1.346005,244426,11019
937.427,1.318953,263972,12665
941.254,1.328024,281845,13243
945.076,1.325724,297271,14042
950.165,1.325870,315605,14903
953.978,1.318549,328029,15753
957.786,1.318057,340470,16369
961.59,1.307334,352317,17362
965.389,1.316142,363056,17532
969.185,1.319044,373162,17900
972.976,1.314110,382632,18564
976.763,1.310436,391202,19141
981.806,1.310431,400190,19581
985.583,1.318764,406088,19492
989.355,1.311079,410162,20039
993.124,1.318423,412868,19833
996.888,1.314967,414263,20059
1000.65,1.315263,415476,20104
1004.4,1.298777,415479,20882
1009.41,1.313791,414358,20118
1013.15,1.326102,412923,19488
1016.89,1.315282,411526,19912
1020.63,1.312351,409066,19927
1024.36,1.315618,406777,19667
1028.09,1.314651,404427,19597
1031.82,1.318033,401911,19324
1036.78,1.328907,398410,18682
1040.49,1.319234,396204,18997
1044.2,1.309682,394236,19323
1047.91,1.320216,392042,18755
1051.61,1.317126,389823,18782
1055.31,1.318648,388234,18640
1059,1.317424,387599,18662
1063.92,1.320072,386688,18505
1067.61,1.306431,386598,19091
1071.29,1.310662,387377,18944
1074.96,1.312143,388536,18936
1078.63,1.317717,389855,18758
1082.3,1.324259,391215,18542
1085.96,1.317640,393215,18923
1090.84,1.320588,396270,18941
1094.49,1.325838,398760,18831
1098.14,1.317843,400987,19288
1101.79,1.316966,403477,19447
1105.43,1.310999,406116,19845
1109.06,1.310486,407701,19946
1112.7,1.325639,409859,19364
1117.53,1.322630,412494,19624
1121.15,1.314411,414909,20116
1124.77,1.328952,416559,19531
1128.38,1.323356,418532,19878
1131.99,1.324700,419956,19884
1135.6,1.320831,421946,20157
1139.2,1.322797,423881,20158
1143.99,1.329919,426786,19966
1147.58,1.324488,428617,20304
1151.17,1.324953,431169,20403
1154.75,1.327672,433579,20389
1158.33,1.313536,436264,21194
1161.91,1.321660,439132,20938
1165.48,1.330653,442389,20661
1169.04,1.325995,446101,21059
1173.79,1.321341,451929,21564
1177.34,1.320553,456026,21799
1180.9,1.323307,461306,21912
1184.44,1.317996,467657,22487
1187.99,1.328810,473969,22230
1191.52,1.316954,479856,23129
1195.06,1.323948,487372,23116
1199.76,1.333650,497347,23068
1203.29,1.327199,504311,23741
1206.81,1.320218,511507,24470
1210.33,1.315715,519078,25091
1213.84,1.326182,527163,24875
1217.35,1.322945,534208,25396
1220.85,1.328692,540472,25356
1225.51,1.323916,549929,26085
1229.01,1.328994,556888,26108
1232.5,1.321886,562180,26791
1235.98,1.321216,567975,27109
1239.46,1.324225,574815,27246
1242.94,1.328327,582782,27364
1246.41,1.332494,591476,27507
1251.03,1.330538,604016,28217
1254.5,1.327006,612289,28837
1257.96,1.323091,619125,29423
1261.41,1.330438,624551,29183
1264.86,1.329553,629900,29493
1268.31,1.326335,634345,29922
1271.75,1.324199,638574,30270
1276.33,1.333132,642499,29836
1279.76,1.328311,645905,30329
1283.19,1.328193,648307,30450
1286.61,1.332701,650446,30235
1290.03,1.329765,652132,30519
1293.44,1.337961,653907,30030
1296.85,1.334864,655963,30340
1301.39,1.338451,657349,30154
1304.8,1.329200,657558,30813
1308.19,1.335135,658515,30439
1311.58,1.335354,658804,30437
1314.97,1.332434,659011,30652
1318.36,1.337006,658272,30297
1321.73,1.331810,658022,30650
1326.23,1.332475,657870,30596
1329.6,1.331956,656482,30568
1332.97,1.334979,654926,30284
1336.33,1.327975,653727,30720
1339.69,1.340187,652497,29812
1343.04,1.333683,649913,30142
1346.39,1.330629,647671,30250
1349.73,1.333072,645338,29972
1354.18,1.331102,641175,29914
1357.52,1.330700,638376,29811
1360.85,1.334239,635805,29450
1364.17,1.333961,633413,29358
1367.49,1.331419,631026,29419
1370.81,1.331735,628050,29259
1374.12,1.334510,625034,28933
1378.54,1.337006,620272,28548
1381.84,1.330711,616892,28807
1385.14,1.333141,613613,28494
1388.43,1.330368,611526,28579
1391.72,1.332560,610663,28395
1395.01,1.328944,610634,28631
1398.29,1.328687,611700,28698
1402.66,1.328480,614051,28822
1405.93,1.336405,616268,28403
1409.2,1.337511,617795,28401
1412.46,1.331771,618872,28829
1415.72,1.336216,619795,28578
1418.98,1.338336,620495,28471
1422.23,1.341136,621087,28315
1426.56,1.336532,621375,28630
1429.8,1.337414,621616,28583
1433.04,1.337757,622129,28584
1436.27,1.339362,621526,28451
1439.5,1.335364,621113,28695
1442.72,1.332755,620921,28859
1445.94,1.335305,620270,28660
1450.23,1.337984,618860,28419
1453.44,1.334516,617697,28593
1456.64,1.339056,616264,28230
1459.85,1.339646,614413,28107
1463.04,1.332551,612307,28472
1466.24,1.339639,610032,27907
1469.43,1.341520,607345,27664
1473.67,1.342042,603789,27469
1476.85,1.334129,601175,27853
1480.02,1.337209,597737,27498
1483.19,1.343691,594479,26943
1486.36,1.341796,591232,26913
1489.52,1.338726,587853,26949
1492.68,1.341569,583875,26592
1496.89,1.341276,578062,26345
1500.03,1.336163,574159,26477
1503.18,1.336318,570285,26289
1506.32,1.337717,565444,25982
1509.45,1.345047,560571,25327
1512.58,1.339606,555821,25429
1515.71,1.341220,550344,25085
1519.87,1.342168,543983,24741
1522.99,1.343955,538764,24403
1526.1,1.342812,533692,24237
1529.21,1.342577,527902,23987
1532.32,1.341017,521886,23799
1535.42,1.339294,515888,23619
1538.51,1.342389,509987,23183
1541.6,1.331825,503936,23472
1545.72,1.339249,494694,22651
1548.8,1.348610,488378,21885
1551.88,1.334435,481832,22308
1554.95,1.344084,474989,21508
1558.02,1.340496,467818,21359
1561.08,1.341103,460730,21006
1564.15,1.330575,454170,21215
1568.22,1.338569,444181,20370
1571.27,1.340486,436947,19950
1574.32,1.339744,429598,19648
1577.36,1.341644,422039,19218
1580.4,1.337225,414375,19062
1583.43,1.343167,406354,18439
1586.46,1.333652,398475,18482
1590.49,1.334681,388982,17999
1593.51,1.336439,380708,17545
1596.53,1.338344,372727,17102
1599.54,1.339258,365060,16715
1602.55,1.333430,357543,16592
1605.55,1.336669,349495,16098
1608.55,1.325370,341154,16128
1612.54,1.338423,330877,15179
1615.53,1.322908,322904,15352
1618.51,1.327417,315116,14827
1621.49,1.319833,307217,14710
1624.47,1.324754,299481,14178
1627.44,1.330703,292112,13641
1630.41,1.335991,284245,13113
1634.36,1.337092,274079,12612
1637.32,1.322024,266916,12716
1640.27,1.318842,259612,12459
1643.22,1.327564,251804,11844
1646.16,1.316606,244348,11787
1649.1,1.320818,236703,11308
1652.04,1.293503,228171,11608
1655.95,1.307956,215408,10600
1658.88,1.328084,204937,9628
1661.8,1.300346,193395,9685
1664.72,1.281211,179728,9406
1667.63,1.270054,163642,8787
1670.54,1.284009,146312,7608
1673.44,1.257785,128451,7095
1677.31,1.217040,105080,6375
1680.21,1.241787,88906,5095
1683.1,1.282853,75033,3912
1685.99,1.281249,63520,3324
1688.87,1.300335,53714,2690
1691.75,1.196622,45653,2903
1694.62,1.255128,39137,2175
1697.49,1.284084,33776,1756
1701.31,1.257296,28175,1558

File: Column 1_078200_20241121_165023.csv
Method:,Column 1,,
Host Date-Time:,21/11/24 @ 16:50:23,,
Header Version:,1,,
System Temp (C):,33.86,,
Detector Temp (C):,30.66,,
Humidity (%):,3.08,,
Lamp PD:,3803,,
Shift Vector Coefficients:,-10.5391,0.0761263,-0.000134223,,
Pixel to Wavelength Coefficients:,1775.68,-0.916766,-0.000235065,,
Serial Number:,5510004,,
Scan Config Name:,Column 1,,
Scan Config Type:,Slew,,
Section 1,,
Start wavelength (nm):,900,,
End wavelength (nm):,1700,,
Pattern Pixel Width (nm):,   7.03,,,,
Exposure (ms):,  0.635,,,,
Digital Resolution:,228,,
Num Repeats:,6,,
PGA Gain:,64,,
Total Measurement Time in sec:,  2.720,,
Wavelength (nm),Absorbance (AU),Reference Signal (unitless),Sample Signal (unitless)
901.51,1.315707,108485,5244
905.376,1.339276,121306,5554
909.237,1.337515,131909,6064
913.095,1.316765,143299,6910
916.948,1.327735,156982,7381
922.079,1.325599,179937,8502
925.923,1.322666,200504,9538
929.762,1.347121,222660,10012
933.597,1.317186,244426,11775
937.427,1.319570,263972,12647
941.254,1.314655,281845,13657
945.076,1.321507,297271,14179
950.165,1.306911,315605,15568
953.978,1.312417,328029,15977
957.786,1.312337,340470,16586
961.59,1.319047,352317,16900
965.389,1.308701,363056,17835
969.185,1.307528,373162,18381
972.976,1.308485,382632,18806
976.763,1.314380,391202,18968
981.806,1.314599,400190,19394
985.583,1.307503,406088,20004
989.355,1.311036,410162,20041
993.124,1.306032,412868,20407
996.888,1.314794,414263,20067
1000.65,1.313603,415476,20181
1004.4,1.310198,415479,20340
1009.41,1.311208,414358,20238
1013.15,1.310668,412923,20193
1016.89,1.314346,411526,19955
1020.63,1.311981,409066,19944
1024.36,1.313086,406777,19782
1028.09,1.308927,404427,19857
1031.82,1.301821,401911,20059
1036.78,1.301303,398410,19908
1040.49,1.314482,396204,19206
1044.2,1.315656,394236,19059
1047.91,1.311050,392042,19155
1051.61,1.304254,389823,19347
1055.31,1.315606,388234,18771
1059,1.313740,387599,18821
1063.92,1.310417,386688,18921
1067.61,1.314143,386598,18755
1071.29,1.312362,387377,18870
1074.96,1.312235,388536,18932
1078.63,1.319829,389855,18667
1082.3,1.313068,391215,19026
1085.96,1.315968,393215,18996
1090.84,1.320428,396270,18948
1094.49,1.324158,398760,18904
1098.14,1.322188,400987,19096
1101.79,1.315050,403477,19533
1105.43,1.323475,406116,19283
1109.06,1.312953,407701,19833
1112.7,1.314218,409859,19880
1117.53,1.323871,412494,19568
1121.15,1.318751,414909,19916
1124.77,1.322332,416559,19831
1128.38,1.320373,418532,20015
1131.99,1.323500,419956,19939
1135.6,1.314776,421946,20440
1139.2,1.323292,423881,20135
1143.99,1.316955,426786,20571
1147.58,1.324894,428617,20285
1151.17,1.315292,431169,20862
1154.75,1.322338,433579,20641
1158.33,1.320310,436264,20866
1161.91,1.316915,439132,21168
1165.48,1.320905,442389,21130
1169.04,1.319466,446101,21378
1173.79,1.325022,451929,21382
1177.34,1.314283,456026,22116
1180.9,1.321290,461306,22014
1184.44,1.319486,467657,22410
1187.99,1.331967,473969,22069
1191.52,1.318855,479856,23028
1195.06,1.318812,487372,23391
1199.76,1.322278,497347,23680
1203.29,1.331280,504311,23519
1206.81,1.323388,511507,24292
1210.33,1.327327,519078,24429
1213.84,1.325990,527163,24886
1217.35,1.325862,534208,25226
1220.85,1.325893,540472,25520
1225.51,1.320599,549929,26285
1229.01,1.331112,556888,25981
1232.5,1.328420,562180,26391
1235.98,1.323384,567975,26974
1239.46,1.324130,574815,27252
1242.94,1.322744,582782,27718
1246.41,1.321750,591476,28196
1251.03,1.326981,604016,28449
1254.5,1.328213,612289,28757
1257.96,1.328722,619125,29044
1261.41,1.328300,624551,29327
1264.86,1.328200,629900,29585
1268.31,1.328255,634345,29790
1271.75,1.335757,638574,29475
1276.33,1.326401,642499,30302
1279.76,1.331343,645905,30118
1283.19,1.327282,648307,30514
1286.61,1.328826,650446,30506
1290.03,1.326137,652132,30775
1293.44,1.335265,653907,30217
1296.85,1.334377,655963,30374
1301.39,1.329753,657349,30764
1304.8,1.333179,657558,30532
1308.19,1.336378,658515,30352
1311.58,1.333205,658804,30588
1314.97,1.333555,659011,30573
1318.36,1.331295,658272,30698
1321.73,1.332377,658022,30610
1326.23,1.333200,657870,30545
1329.6,1.330452,656482,30674
1332.97,1.331722,654926,30512
1336.33,1.329789,653727,30592
1339.69,1.338370,652497,29937
1343.04,1.338362,649913,29819
1346.39,1.329382,647671,30337
1349.73,1.333463,645338,29945
1354.18,1.330580,641175,29950
1357.52,1.331035,638376,29788
1360.85,1.326739,635805,29963
1364.17,1.325551,633413,29932
1367.49,1.331892,631026,29387
1370.81,1.329056,628050,29440
1374.12,1.329822,625034,29247
1378.54,1.331775,620272,28894
1381.84,1.330395,616892,28828
1385.14,1.328351,613613,28810
1388.43,1.328609,611526,28695
1391.72,1.328722,610663,28647
1395.01,1.328869,610634,28636
1398.29,1.331465,611700,28515
1402.66,1.327758,614051,28870
1405.93,1.331933,616268,28697
1409.2,1.326578,617795,29125
1412.46,1.334416,618872,28654
1415.72,1.330375,619795,28965
1418.98,1.334705,620495,28710
1422.23,1.336240,621087,28636
1426.56,1.335094,621375,28725
1429.8,1.335701,621616,28696
1433.04,1.337803,622129,28581
1436.27,1.335033,621526,28736
1439.5,1.335047,621113,28716
1442.72,1.339015,620921,28446
1445.94,1.338376,620270,28458
1450.23,1.336763,618860,28499
1453.44,1.332289,617697,28740
1456.64,1.343603,616264,27936
1459.85,1.341039,614413,28017
1463.04,1.338959,612307,28055
1466.24,1.332080,610032,28397
1469.43,1.335023,607345,28081
1473.67,1.339049,603789,27659
1476.85,1.337494,601175,27638
1480.02,1.334109,597737,27695
1483.19,1.339057,594479,27232
1486.36,1.337796,591232,27162
1489.52,1.339888,587853,26877
1492.68,1.339565,583875,26715
1496.89,1.336799,578062,26618
1500.03,1.333955,574159,26612
1503.18,1.342876,570285,25895
1506.32,1.332682,565444,26285
1509.45,1.344755,560571,25344
1512.58,1.335441,555821,25674
1515.71,1.339303,550344,25196
1519.87,1.338358,543983,24959
1522.99,1.346866,538764,24240
1526.1,1.341702,533692,24299
1529.21,1.347365,527902,23724
1532.32,1.334623,521886,24152
1535.42,1.336782,515888,23756
1538.51,1.337065,509987,23469
1541.6,1.340931,503936,22985
1545.72,1.340286,494694,22597
1548.8,1.334436,488378,22611
1551.88,1.334591,481832,22300
1554.95,1.338386,474989,21792
1558.02,1.336368,467818,21563
1561.08,1.336128,460730,21248
1564.15,1.336200,454170,20942
1568.22,1.334748,444181,20550
1571.27,1.334111,436947,20245
1574.32,1.332119,429598,19996
1577.36,1.338245,422039,19369
1580.4,1.338686,414375,18998
1583.43,1.335973,406354,18747
1586.46,1.339305,398475,18243
1590.49,1.337101,388982,17899
1593.51,1.330123,380708,17802
1596.53,1.328105,372727,17510
1599.54,1.330665,365060,17049
1602.55,1.332044,357543,16645
1605.55,1.322366,349495,16637
1608.55,1.330898,341154,15924
1612.54,1.330710,330877,15451
1615.53,1.332201,322904,15027
1618.51,1.332070,315116,14669
1621.49,1.327427,307217,14455
1624.47,1.322341,299481,14257
1627.44,1.318708,292112,14023
1630.41,1.324906,284245,13452
1634.36,1.337850,274079,12590
1637.32,1.307845,266916,13138
1640.27,1.308576,259612,12757
1643.22,1.323295,251804,11961
1646.16,1.319192,244348,11717
1649.1,1.313128,236703,11510
1652.04,1.321512,228171,10883
1655.95,1.305423,215408,10662
1658.88,1.301702,204937,10231
1661.8,1.290722,193395,9902
1664.72,1.305763,179728,8889
1667.63,1.283048,163642,8528
1670.54,1.280145,146312,7676
1673.44,1.299110,128451,6451
1677.31,1.251184,105080,5893
1680.21,1.279521,88906,4671
1683.1,1.217432,75033,4548
1685.99,1.242048,63520,3638
1688.87,1.264110,53714,2924
1691.75,1.235078,45653,2657
1694.62,1.140494,39137,2832
1697.49,1.101772,33776,2672
1701.31,1.246287,28175,1598