Folder: textile_sorting_NIRSCAN_/ML/samples/unknown (part 128)

File: Column 1_078947_20241121_172952.csv
Method:,Column 1,,
Host Date-Time:,21/11/24 @ 17:29:52,,
Header Version:,1,,
System Temp (C):,37.67,,
Detector Temp (C):,36.59,,
Humidity (%):,0.54,,
Lamp PD:,3795,,
Shift Vector Coefficients:,-10.5391,0.0761263,-0.000134223,,
Pixel to Wavelength Coefficients:,1775.68,-0.916766,-0.000235065,,
Serial Number:,5510004,,
Scan Config Name:,Column 1,,
Scan Config Type:,Slew,,
Section 1,,
Start wavelength (nm):,900,,
End wavelength (nm):,1700,,
Pattern Pixel Width (nm):,   7.03,,,,
Exposure (ms):,  0.635,,,,
Digital Resolution:,228,,
Num Repeats:,6,,
PGA Gain:,64,,
Total Measurement Time in sec:,  2.714,,
Wavelength (nm),Absorbance (AU),Reference Signal (unitless),Sample Signal (unitless)
901.51,1.312571,108485,5282
905.376,1.336082,121306,5595
909.237,1.320865,131909,6301
913.095,1.337621,143299,6586
916.948,1.331636,156982,7315
922.079,1.303637,179937,8943
925.923,1.339233,200504,9181
929.762,1.322951,222660,10585
933.597,1.300331,244426,12241
937.427,1.323884,263972,12522
941.254,1.332010,281845,13122
945.076,1.320834,297271,14201
950.165,1.310975,315605,15423
953.978,1.315417,328029,15867
957.786,1.312835,340470,16567
961.59,1.308887,352317,17300
965.389,1.303448,363056,18052
969.185,1.309446,373162,18300
972.976,1.307401,382632,18853
976.763,1.305406,391202,19364
981.806,1.310298,400190,19587
985.583,1.307677,406088,19996
989.355,1.303091,410162,20411
993.124,1.305224,412868,20445
996.888,1.311645,414263,20213
1000.65,1.310708,415476,20316
1004.4,1.304513,415479,20608
1009.41,1.309431,414358,20321
1013.15,1.313062,412923,20082
1016.89,1.311050,411526,20107
1020.63,1.304554,409066,20288
1024.36,1.306982,406777,20062
1028.09,1.303990,404427,20084
1031.82,1.302384,401911,20033
1036.78,1.308052,398410,19601
1040.49,1.307417,396204,19521
1044.2,1.301268,394236,19701
1047.91,1.301032,392042,19602
1051.61,1.314658,389823,18889
1055.31,1.312586,388234,18902
1059,1.306055,387599,19157
1063.92,1.304807,386688,19167
1067.61,1.304955,386598,19156
1071.29,1.304177,387377,19229
1074.96,1.313521,388536,18876
1078.63,1.312241,389855,18996
1082.3,1.307399,391215,19276
1085.96,1.310335,393215,19244
1090.84,1.307267,396270,19531
1094.49,1.317908,398760,19178
1098.14,1.312650,400987,19520
1101.79,1.317928,403477,19404
1105.43,1.312270,406116,19787
1109.06,1.301308,407701,20372
1112.7,1.317639,409859,19724
1117.53,1.317417,412494,19861
1121.15,1.312537,414909,20203
1124.77,1.320998,416559,19892
1128.38,1.316635,418532,20188
1131.99,1.317229,419956,20229
1135.6,1.314882,421946,20435
1139.2,1.317252,423881,20417
1143.99,1.318139,426786,20515
1147.58,1.323420,428617,20354
1151.17,1.320211,431169,20627
1154.75,1.310528,433579,21210
1158.33,1.314891,436264,21128
1161.91,1.316239,439132,21201
1165.48,1.314640,442389,21437
1169.04,1.316773,446101,21511
1173.79,1.318811,451929,21690
1177.34,1.312480,456026,22208
1180.9,1.316698,461306,22248
1184.44,1.316916,467657,22543
1187.99,1.317777,473969,22802
1191.52,1.316297,479856,23164
1195.06,1.323591,487372,23135
1199.76,1.322792,497347,23652
1203.29,1.315415,504311,24394
1206.81,1.315382,511507,24744
1210.33,1.319889,519078,24851
1213.84,1.319013,527163,25289
1217.35,1.320387,534208,25546
1220.85,1.321692,540472,25768
1225.51,1.318752,549929,26397
1229.01,1.323326,556888,26451
1232.5,1.319671,562180,26928
1235.98,1.321921,567975,27065
1239.46,1.321176,574815,27438
1242.94,1.323042,582782,27699
1246.41,1.322922,591476,28120
1251.03,1.319385,604016,28951
1254.5,1.321648,612289,29195
1257.96,1.322089,619125,29491
1261.41,1.323763,624551,29635
1264.86,1.321846,629900,30021
1268.31,1.322721,634345,30172
1271.75,1.323453,638574,30322
1276.33,1.327233,642499,30244
1279.76,1.320491,645905,30880
1283.19,1.326571,648307,30564
1286.61,1.326795,650446,30649
1290.03,1.327650,652132,30668
1293.44,1.325473,653907,30906
1296.85,1.326513,655963,30929
1301.39,1.330643,657349,30701
1304.8,1.327512,657558,30933
1308.19,1.328748,658515,30890
1311.58,1.329388,658804,30858
1314.97,1.327405,659011,31009
1318.36,1.329869,658272,30799
1321.73,1.331088,658022,30701
1326.23,1.327816,657870,30926
1329.6,1.331871,656482,30574
1332.97,1.334463,654926,30320
1336.33,1.328584,653727,30677
1339.69,1.326042,652497,30799
1343.04,1.328712,649913,30489
1346.39,1.335930,647671,29883
1349.73,1.335280,645338,29820
1354.18,1.324804,641175,30351
1357.52,1.331385,638376,29764
1360.85,1.328816,635805,29820
1364.17,1.328375,633413,29738
1367.49,1.329372,631026,29558
1370.81,1.322715,628050,29873
1374.12,1.329674,625034,29257
1378.54,1.323866,620272,29425
1381.84,1.322705,616892,29343
1385.14,1.320790,613613,29316
1388.43,1.324406,611526,28974
1391.72,1.324288,610663,28941
1395.01,1.325485,610634,28860
1398.29,1.325686,611700,28897
1402.66,1.325612,614051,29013
1405.93,1.330543,616268,28789
1409.2,1.330067,617795,28892
1412.46,1.329398,618872,28987
1415.72,1.323163,619795,29450
1418.98,1.330670,620495,28978
1422.23,1.332179,621087,28905
1426.56,1.328849,621375,29141
1429.8,1.328988,621616,29143
1433.04,1.331602,622129,28992
1436.27,1.333660,621526,28827
1439.5,1.329830,621113,29063
1442.72,1.326287,620921,29292
1445.94,1.329659,620270,29035
1450.23,1.337541,618860,28448
1453.44,1.335489,617697,28529
1456.64,1.329320,616264,28870
1459.85,1.329883,614413,28746
1463.04,1.327924,612307,28777
1466.24,1.332325,610032,28381
1469.43,1.335797,607345,28031
1473.67,1.335468,603789,27888
1476.85,1.333117,601175,27918
1480.02,1.337051,597737,27508
1483.19,1.329936,594479,27810
1486.36,1.332125,591232,27519
1489.52,1.333695,587853,27263
1492.68,1.333960,583875,27062
1496.89,1.330257,578062,27022
1500.03,1.333938,574159,26613
1503.18,1.331145,570285,26604
1506.32,1.327051,565444,26628
1509.45,1.338630,560571,25704
1512.58,1.342742,555821,25246
1515.71,1.333941,550344,25509
1519.87,1.333083,543983,25264
1522.99,1.337946,538764,24743
1526.1,1.334875,533692,24684
1529.21,1.332502,527902,24550
1532.32,1.329741,521886,24425
1535.42,1.337679,515888,23707
1538.51,1.327583,509987,23987
1541.6,1.331474,503936,23491
1545.72,1.324935,494694,23410
1548.8,1.327009,488378,23001
1551.88,1.336817,481832,22186
1554.95,1.329627,474989,22236
1558.02,1.334940,467818,21634
1561.08,1.330181,460730,21541
1564.15,1.330309,454170,21228
1568.22,1.325051,444181,21014
1571.27,1.330905,436947,20395
1574.32,1.326273,429598,20267
1577.36,1.334295,422039,19546
1580.4,1.327314,414375,19502
1583.43,1.334816,406354,18797
1586.46,1.325389,398475,18837
1590.49,1.327692,388982,18291
1593.51,1.325609,380708,17988
1596.53,1.320240,372727,17830
1599.54,1.319227,365060,17504
1602.55,1.310961,357543,17473
1605.55,1.326405,349495,16483
1608.55,1.316283,341154,16469
1612.54,1.319720,330877,15847
1615.53,1.324268,322904,15304
1618.51,1.317514,315116,15169
1621.49,1.326557,307217,14484
1624.47,1.323500,299481,14219
1627.44,1.312192,292112,14235
1630.41,1.314475,284245,13779
1634.36,1.314449,274079,13287
1637.32,1.312298,266916,13004
1640.27,1.299680,259612,13021
1643.22,1.306661,251804,12428
1646.16,1.305942,244348,12080
1649.1,1.317147,236703,11404
1652.04,1.291413,228171,11664
1655.95,1.302500,215408,10734
1658.88,1.290721,204937,10493
1661.8,1.279082,193395,10171
1664.72,1.285060,179728,9323
1667.63,1.246768,163642,9271
1670.54,1.213845,146312,8942
1673.44,1.201004,128451,8086
1677.31,1.165154,105080,7184
1680.21,1.152704,88906,6255
1683.1,1.152207,75033,5285
1685.99,1.149312,63520,4504
1688.87,1.092898,53714,4337
1691.75,1.155679,45653,3190
1694.62,1.169178,39137,2651
1697.49,1.137320,33776,2462
1701.31,1.083628,28175,2324

File: Column 1_078950_20241121_173000.csv
Method:,Column 1,,
Host Date-Time:,21/11/24 @ 17:30:0,,
Header Version:,1,,
System Temp (C):,37.78,,
Detector Temp (C):,36.72,,
Humidity (%):,0.48,,
Lamp PD:,3795,,
Shift Vector Coefficients:,-10.5391,0.0761263,-0.000134223,,
Pixel to Wavelength Coefficients:,1775.68,-0.916766,-0.000235065,,
Serial Number:,5510004,,
Scan Config Name:,Column 1,,
Scan Config Type:,Slew,,
Section 1,,
Start wavelength (nm):,900,,
End wavelength (nm):,1700,,
Pattern Pixel Width (nm):,   7.03,,,,
Exposure (ms):,  0.635,,,,
Digital Resolution:,228,,
Num Repeats:,6,,
PGA Gain:,64,,
Total Measurement Time in sec:,  2.729,,
Wavelength (nm),Absorbance (AU),Reference Signal (unitless),Sample Signal (unitless)
901.51,1.343228,108485,4922
905.376,1.301553,121306,6058
909.237,1.327743,131909,6202
913.095,1.349046,143299,6415
916.948,1.337493,156982,7217
922.079,1.316501,179937,8682
925.923,1.332661,200504,9321
929.762,1.330943,222660,10392
933.597,1.322232,244426,11639
937.427,1.318678,263972,12673
941.254,1.319516,281845,13505
945.076,1.308978,297271,14594
950.165,1.301450,315605,15765
953.978,1.317420,328029,15794
957.786,1.323611,340470,16161
961.59,1.311001,352317,17216
965.389,1.310262,363056,17771
969.185,1.307056,373162,18401
972.976,1.303137,382632,19039
976.763,1.312438,391202,19053
981.806,1.298056,400190,20147
985.583,1.314705,406088,19675
989.355,1.303070,410162,20412
993.124,1.316217,412868,19934
996.888,1.305734,414263,20490
1000.65,1.301340,415476,20759
1004.4,1.305441,415479,20564
1009.41,1.308833,414358,20349
1013.15,1.307497,412923,20341
1016.89,1.305470,411526,20367
1020.63,1.294085,409066,20783
1024.36,1.314890,406777,19700
1028.09,1.306636,404427,19962
1031.82,1.310193,401911,19676
1036.78,1.309784,398410,19523
1040.49,1.298695,396204,19917
1044.2,1.304921,394236,19536
1047.91,1.308924,392042,19249
1051.61,1.306414,389823,19251
1055.31,1.308424,388234,19084
1059,1.313578,387599,18828
1063.92,1.308813,386688,18991
1067.61,1.321522,386598,18439
1071.29,1.302509,387377,19303
1074.96,1.309764,388536,19040
1078.63,1.312424,389855,18988
1082.3,1.311792,391215,19082
1085.96,1.306940,393215,19395
1090.84,1.312366,396270,19303
1094.49,1.312149,398760,19434
1098.14,1.310276,400987,19627
1101.79,1.320171,403477,19304
1105.43,1.313171,406116,19746
1109.06,1.317222,407701,19639
1112.7,1.317639,409859,19724
1117.53,1.314127,412494,20012
1121.15,1.325941,414909,19589
1124.77,1.317931,416559,20033
1128.38,1.314468,418532,20289
1131.99,1.310265,419956,20556
1135.6,1.323294,421946,20043
1139.2,1.311988,423881,20666
1143.99,1.315606,426786,20635
1147.58,1.308055,428617,21087
1151.17,1.312801,431169,20982
1154.75,1.314849,433579,21000
1158.33,1.313024,436264,21219
1161.91,1.312060,439132,21406
1165.48,1.314883,442389,21425
1169.04,1.314337,446101,21632
1173.79,1.313280,451929,21968
1177.34,1.317061,456026,21975
1180.9,1.314750,461306,22348
1184.44,1.320961,467657,22334
1187.99,1.316370,473969,22876
1191.52,1.312415,479856,23372
1195.06,1.318125,487372,23428
1199.76,1.313077,497347,24187
1203.29,1.315273,504311,24402
1206.81,1.318924,511507,24543
1210.33,1.321833,519078,24740
1213.84,1.325414,527163,24919
1217.35,1.319997,534208,25569
1220.85,1.319691,540472,25887
1225.51,1.321823,549929,26211
1229.01,1.316743,556888,26855
1232.5,1.327039,562180,26475
1235.98,1.320911,567975,27128
1239.46,1.319501,574815,27544
1242.94,1.311943,582782,28416
1246.41,1.325105,591476,27979
1251.03,1.322184,604016,28765
1254.5,1.320549,612289,29269
1257.96,1.325875,619125,29235
1261.41,1.321731,624551,29774
1264.86,1.322295,629900,29990
1268.31,1.321816,634345,30235
1271.75,1.321310,638574,30472
1276.33,1.325213,642499,30385
1279.76,1.322437,645905,30742
1283.19,1.323061,648307,30812
1286.61,1.325380,650446,30749
1290.03,1.328018,652132,30642
1293.44,1.325024,653907,30938
1296.85,1.326865,655963,30904
1301.39,1.327683,657349,30911
1304.8,1.321835,657558,31340
1308.19,1.325680,658515,31109
1311.58,1.334072,658804,30527
1314.97,1.329075,659011,30890
1318.36,1.326302,658272,31053
1321.73,1.335896,658022,30363
1326.23,1.333044,657870,30556
1329.6,1.330580,656482,30665
1332.97,1.329323,654926,30681
1336.33,1.332223,653727,30421
1339.69,1.330678,652497,30472
1343.04,1.324784,649913,30766
1346.39,1.324244,647671,30698
1349.73,1.324250,645338,30587
1354.18,1.329928,641175,29995
1357.52,1.323992,638376,30275
1360.85,1.325754,635805,30031
1364.17,1.330351,633413,29603
1367.49,1.328125,631026,29643
1370.81,1.327996,628050,29512
1374.12,1.321381,625034,29821
1378.54,1.318410,620272,29797
1381.84,1.327452,616892,29024
1385.14,1.326066,613613,28962
1388.43,1.330581,611526,28565
1391.72,1.327632,610663,28719
1395.01,1.326569,610634,28788
1398.29,1.331663,611700,28502
1402.66,1.326346,614051,28964
1405.93,1.333054,616268,28623
1409.2,1.327414,617795,29069
1412.46,1.325252,618872,29265
1415.72,1.325974,619795,29260
1418.98,1.335492,620495,28658
1422.23,1.331819,621087,28929
1426.56,1.328656,621375,29154
1429.8,1.329182,621616,29130
1433.04,1.336044,622129,28697
1436.27,1.333313,621526,28850
1439.5,1.328487,621113,29153
1442.72,1.328651,620921,29133
1445.94,1.330407,620270,28985
1450.23,1.333015,618860,28746
1453.44,1.332909,617697,28699
1456.64,1.330088,616264,28819
1459.85,1.331503,614413,28639
1463.04,1.334907,612307,28318
1466.24,1.324951,610032,28867
1469.43,1.333248,607345,28196
1473.67,1.338155,603789,27716
1476.85,1.335769,601175,27748
1480.02,1.329290,597737,28004
1483.19,1.330498,594479,27774
1486.36,1.336375,591232,27251
1489.52,1.336572,587853,27083
1492.68,1.335568,583875,26962
1496.89,1.349245,578062,25866
1500.03,1.335377,574159,26525
1503.18,1.338222,570285,26174
1506.32,1.336215,565444,26072
1509.45,1.328708,560571,26298
1512.58,1.331836,555821,25888
1515.71,1.331852,550344,25632
1519.87,1.339473,543983,24895
1522.99,1.339582,538764,24650
1526.1,1.340221,533692,24382
1529.21,1.330138,527902,24684
1532.32,1.326976,521886,24581
1535.42,1.333921,515888,23913
1538.51,1.330253,509987,23840
1541.6,1.326090,503936,23784
1545.72,1.326273,494694,23338
1548.8,1.330231,488378,22831
1551.88,1.324390,481832,22830
1554.95,1.328379,474989,22300
1558.02,1.329078,467818,21928
1561.08,1.330826,460730,21509
1564.15,1.333595,454170,21068
1568.22,1.328308,444181,20857
1571.27,1.333532,436947,20272
1574.32,1.334122,429598,19904
1577.36,1.324670,422039,19984
1580.4,1.333618,414375,19221
1583.43,1.328918,406354,19054
1586.46,1.326636,398475,18783
1590.49,1.329238,388982,18226
1593.51,1.324163,380708,18048
1596.53,1.335282,372727,17223
1599.54,1.320022,365060,17472
1602.55,1.321400,357543,17058
1605.55,1.319841,349495,16734
1608.55,1.329836,341154,15963
1612.54,1.325819,330877,15626
1615.53,1.325974,322904,15244
1618.51,1.316056,315116,15220
1621.49,1.312281,307217,14968
1624.47,1.314074,299481,14531
1627.44,1.306494,292112,14423
1630.41,1.306357,284245,14039
1634.36,1.310544,274079,13407
1637.32,1.315650,266916,12904
1640.27,1.323749,259612,12319
1643.22,1.307186,251804,12413
1646.16,1.324038,244348,11587
1649.1,1.308886,236703,11623
1652.04,1.312351,228171,11115
1655.95,1.279454,215408,11319
1658.88,1.277514,204937,10817
1661.8,1.289583,193395,9928
1664.72,1.280934,179728,9412
1667.63,1.252474,163642,9150
1670.54,1.220649,146312,8803
1673.44,1.218932,128451,7759
1677.31,1.150473,105080,7431
1680.21,1.151871,88906,6267
1683.1,1.151715,75033,5291
1685.99,1.140342,63520,4598
1688.87,1.141256,53714,3880
1691.75,1.130553,45653,3380
1694.62,1.187412,39137,2542
1697.49,1.202068,33776,2121
1701.31,1.154077,28175,1976

File: Column 1_078951_20241121_173003.csv
Method:,Column 1,,
Host Date-Time:,21/11/24 @ 17:30:3,,
Header Version:,1,,
System Temp (C):,37.83,,
Detector Temp (C):,36.7,,
Humidity (%):,0.48,,
Lamp PD:,3795,,
Shift Vector Coefficients:,-10.5391,0.0761263,-0.000134223,,
Pixel to Wavelength Coefficients:,1775.68,-0.916766,-0.000235065,,
Serial Number:,5510004,,
Scan Config Name:,Column 1,,
Scan Config Type:,Slew,,
Section 1,,
Start wavelength (nm):,900,,
End wavelength (nm):,1700,,
Pattern Pixel Width (nm):,   7.03,,,,
Exposure (ms):,  0.635,,,,
Digital Resolution:,228,,
Num Repeats:,6,,
PGA Gain:,64,,
Total Measurement Time in sec:,  2.721,,
Wavelength (nm),Absorbance (AU),Reference Signal (unitless),Sample Signal (unitless)
901.51,1.325252,108485,5130
905.376,1.335307,121306,5605
909.237,1.329778,131909,6173
913.095,1.331662,143299,6677
916.948,1.336231,156982,7238
922.079,1.326315,179937,8488
925.923,1.334809,200504,9275
929.762,1.322582,222660,10594
933.597,1.329759,244426,11439
937.427,1.321256,263972,12598
941.254,1.314941,281845,13648
945.076,1.324581,297271,14079
950.165,1.321232,315605,15063
953.978,1.324014,328029,15556
957.786,1.311892,340470,16603
961.59,1.310976,352317,17217
965.389,1.314362,363056,17604
969.185,1.309185,373162,18311
972.976,1.310406,382632,18723
976.763,1.301254,391202,19550
981.806,1.304659,400190,19843
985.583,1.308003,406088,19981
989.355,1.310841,410162,20050
993.124,1.311860,412868,20135
996.888,1.314145,414263,20097
1000.65,1.307725,415476,20456
1004.4,1.303692,415479,20647
1009.41,1.305389,414358,20511
1013.15,1.307668,412923,20333
1016.89,1.300614,411526,20596
1020.63,1.298538,409066,20571
1024.36,1.309152,406777,19962
1028.09,1.311779,404427,19727
1031.82,1.314051,401911,19502
1036.78,1.312394,398410,19406
1040.49,1.311036,396204,19359
1044.2,1.311190,394236,19256
1047.91,1.317262,392042,18883
1051.61,1.314613,389823,18891
1055.31,1.308697,388234,19072
1059,1.314179,387599,18802
1063.92,1.312626,386688,18825
1067.61,1.309719,386598,18947
1071.29,1.310456,387377,18953
1074.96,1.306062,388536,19203
1078.63,1.321017,389855,18616
1082.3,1.305488,391215,19361
1085.96,1.311872,393215,19176
1090.84,1.319238,396270,19000
1094.49,1.309032,398760,19574
1098.14,1.318474,400987,19260
1101.79,1.307861,403477,19859
1105.43,1.318549,406116,19503
1109.06,1.324155,407701,19328
1112.7,1.319670,409859,19632
1117.53,1.317657,412494,19850
1121.15,1.322188,414909,19759
1124.77,1.317389,416559,20058
1128.38,1.318878,418532,20084
1131.99,1.321545,419956,20029
1135.6,1.316991,421946,20336
1139.2,1.312051,423881,20663
1143.99,1.317462,426786,20547
1147.58,1.314445,428617,20779
1151.17,1.313484,431169,20949
1154.75,1.313754,433579,21053
1158.33,1.315570,436264,21095
1161.91,1.321266,439132,20957
1165.48,1.320864,442389,21132
1169.04,1.316732,446101,21513
1173.79,1.320215,451929,21620
1177.34,1.319220,456026,21866
1180.9,1.320561,461306,22051
1184.44,1.315954,467657,22593
1187.99,1.318597,473969,22759
1191.52,1.310727,479856,23463
1195.06,1.319444,487372,23357
1199.76,1.324042,497347,23584
1203.29,1.320051,504311,24135
1206.81,1.323835,511507,24267
1210.33,1.325801,519078,24515
1213.84,1.320010,527163,25231
1217.35,1.314394,534208,25901
1220.85,1.320935,540472,25813
1225.51,1.326772,549929,25914
1229.01,1.316290,556888,26883
1232.5,1.319607,562180,26932
1235.98,1.323835,567975,26946
1239.46,1.324895,574815,27204
1242.94,1.314211,582782,28268
1246.41,1.317702,591476,28460
1251.03,1.324941,604016,28583
1254.5,1.321514,612289,29204
1257.96,1.325994,619125,29227
1261.41,1.326689,624551,29436
1264.86,1.317414,629900,30329
1268.31,1.322707,634345,30173
1271.75,1.328032,638574,30004
1276.33,1.325256,642499,30382
1279.76,1.318933,645905,30991
1283.19,1.320419,648307,31000
1286.61,1.320968,650446,31063
1290.03,1.332893,652132,30300
1293.44,1.324533,653907,30973
1296.85,1.331044,655963,30608
1301.39,1.323711,657349,31195
1304.8,1.330428,657558,30726
1308.19,1.331569,658515,30690
1311.58,1.327493,658804,30993
1314.97,1.329455,659011,30863
1318.36,1.326750,658272,31021
1321.73,1.319324,658022,31544
1326.23,1.329364,657870,30816
1329.6,1.331558,656482,30596
1332.97,1.328079,654926,30769
1336.33,1.331267,653727,30488
1339.69,1.333122,652497,30301
1343.04,1.328228,649913,30523
1346.39,1.330098,647671,30287
1349.73,1.328187,645338,30311
1354.18,1.328352,641175,30104
1357.52,1.328303,638376,29976
1360.85,1.326565,635805,29975
1364.17,1.326466,633413,29869
1367.49,1.325205,631026,29843
1370.81,1.329381,628050,29418
1374.12,1.325905,625034,29512
1378.54,1.330034,620272,29010
1381.84,1.329176,616892,28909
1385.14,1.325272,613613,29015
1388.43,1.329290,611526,28650
1391.72,1.328132,610663,28686
1395.01,1.331897,610634,28437
1398.29,1.329171,611700,28666
1402.66,1.326616,614051,28946
1405.93,1.328992,616268,28892
1409.2,1.331090,617795,28824
1412.46,1.331726,618872,28832
1415.72,1.332388,619795,28831
1418.98,1.338564,620495,28456
1422.23,1.329304,621087,29097
1426.56,1.334067,621375,28793
1429.8,1.333452,621616,28845
1433.04,1.335046,622129,28763
1436.27,1.333976,621526,28806
1439.5,1.334095,621113,28779
1442.72,1.337948,620921,28516
1445.94,1.337431,620270,28520
1450.23,1.332819,618860,28759
1453.44,1.334121,617697,28619
1456.64,1.334937,616264,28499
1459.85,1.327277,614413,28919
1463.04,1.334569,612307,28340
1466.24,1.336986,610032,28078
1469.43,1.335983,607345,28019
1473.67,1.332736,603789,28064
1476.85,1.335394,601175,27772
1480.02,1.332075,597737,27825
1483.19,1.331155,594479,27732
1486.36,1.332836,591232,27474
1489.52,1.336332,587853,27098
1492.68,1.336261,583875,26919
1496.89,1.336114,578062,26660
1500.03,1.340383,574159,26221
1503.18,1.328265,570285,26781
1506.32,1.331906,565444,26332
1509.45,1.337938,560571,25745
1512.58,1.334765,555821,25714
1515.71,1.332564,550344,25590
1519.87,1.330923,543983,25390
1522.99,1.336247,538764,24840
1526.1,1.336886,533692,24570
1529.21,1.340915,527902,24079
1532.32,1.336804,521886,24031
1535.42,1.338743,515888,23649
1538.51,1.336196,509987,23516
1541.6,1.335187,503936,23291
1545.72,1.334368,494694,22907
1548.8,1.332501,488378,22712
1551.88,1.340295,481832,22009
1554.95,1.332350,474989,22097
1558.02,1.333257,467818,21718
1561.08,1.329516,460730,21574
1564.15,1.338633,454170,20825
1568.22,1.329873,444181,20782
1571.27,1.331566,436947,20364
1574.32,1.330558,429598,20068
1577.36,1.329588,422039,19759
1580.4,1.326625,414375,19533
1583.43,1.327530,406354,19115
1586.46,1.323939,398475,18900
1590.49,1.335792,388982,17953
1593.51,1.328954,380708,17850
1596.53,1.326644,372727,17569
1599.54,1.317222,365060,17585
1602.55,1.332776,357543,16617
1605.55,1.328942,349495,16387
1608.55,1.325963,341154,16106
1612.54,1.317424,330877,15931
1615.53,1.320933,322904,15422
1618.51,1.324004,315116,14944
1621.49,1.316216,307217,14833
1624.47,1.322037,299481,14267
1627.44,1.316176,292112,14105
1630.41,1.325682,284245,13428
1634.36,1.313339,274079,13321
1637.32,1.312064,266916,13011
1640.27,1.310521,259612,12700
1643.22,1.307396,251804,12407
1646.16,1.317306,244348,11768
1649.1,1.292532,236703,12069
1652.04,1.309663,228171,11184
1655.95,1.284199,215408,11196
1658.88,1.284965,204937,10633
1661.8,1.265628,193395,10491
1664.72,1.271802,179728,9612
1667.63,1.246487,163642,9277
1670.54,1.234586,146312,8525
1673.44,1.201703,128451,8073
1677.31,1.162082,105080,7235
1680.21,1.167391,88906,6047
1683.1,1.167682,75033,5100
1685.99,1.146716,63520,4531
1688.87,1.141144,53714,3881
1691.75,1.135983,45653,3338
1694.62,1.145895,39137,2797
1697.49,1.167069,33776,2299
1701.31,1.175937,28175,1879