Folder: textile_sorting_NIRSCAN_/ML/samples/unknown (part 56)

File: Column 1_078377_20241121_165942.csv
Method:,Column 1,,
Host Date-Time:,21/11/24 @ 16:59:42,,
Header Version:,1,,
System Temp (C):,34.58,,
Detector Temp (C):,33.77,,
Humidity (%):,1.81,,
Lamp PD:,3803,,
Shift Vector Coefficients:,-10.5391,0.0761263,-0.000134223,,
Pixel to Wavelength Coefficients:,1775.68,-0.916766,-0.000235065,,
Serial Number:,5510004,,
Scan Config Name:,Column 1,,
Scan Config Type:,Slew,,
Section 1,,
Start wavelength (nm):,900,,
End wavelength (nm):,1700,,
Pattern Pixel Width (nm):,   7.03,,,,
Exposure (ms):,  0.635,,,,
Digital Resolution:,228,,
Num Repeats:,6,,
PGA Gain:,64,,
Total Measurement Time in sec:,  2.726,,
Wavelength (nm),Absorbance (AU),Reference Signal (unitless),Sample Signal (unitless)
901.51,1.307828,108485,5340
905.376,1.312736,121306,5904
909.237,1.317364,131909,6352
913.095,1.331142,143299,6685
916.948,1.325446,156982,7420
922.079,1.352085,179937,7999
925.923,1.308070,200504,9864
929.762,1.316517,222660,10743
933.597,1.335146,244426,11298
937.427,1.319227,263972,12657
941.254,1.317815,281845,13558
945.076,1.320864,297271,14200
950.165,1.323922,315605,14970
953.978,1.308197,328029,16133
957.786,1.311500,340470,16618
961.59,1.316945,352317,16982
965.389,1.323059,363056,17255
969.185,1.316311,373162,18013
972.976,1.316126,382632,18478
976.763,1.319353,391202,18752
981.806,1.315294,400190,19363
985.583,1.310772,406088,19854
989.355,1.312556,410162,19971
993.124,1.312183,412868,20120
996.888,1.314210,414263,20094
1000.65,1.303815,415476,20641
1004.4,1.310861,415479,20309
1009.41,1.316346,414358,20000
1013.15,1.313343,412923,20069
1016.89,1.309778,411526,20166
1020.63,1.307260,409066,20162
1024.36,1.314295,406777,19727
1028.09,1.319845,404427,19364
1031.82,1.317561,401911,19345
1036.78,1.308185,398410,19595
1040.49,1.316363,396204,19123
1044.2,1.312591,394236,19194
1047.91,1.318090,392042,18847
1051.61,1.310745,389823,19060
1055.31,1.313046,388234,18882
1059,1.305149,387599,19197
1063.92,1.306919,386688,19074
1067.61,1.321334,386598,18447
1071.29,1.307328,387377,19090
1074.96,1.316940,388536,18728
1078.63,1.322325,389855,18560
1082.3,1.314165,391215,18978
1085.96,1.321559,393215,18753
1090.84,1.314713,396270,19199
1094.49,1.313739,398760,19363
1098.14,1.316988,400987,19326
1101.79,1.313563,403477,19600
1105.43,1.316106,406116,19613
1109.06,1.309203,407701,20005
1112.7,1.314022,409859,19889
1117.53,1.319960,412494,19745
1121.15,1.320367,414909,19842
1124.77,1.307055,416559,20541
1128.38,1.311715,418532,20418
1131.99,1.321588,419956,20027
1135.6,1.325009,421946,19964
1139.2,1.317273,423881,20416
1143.99,1.323185,426786,20278
1147.58,1.317339,428617,20641
1151.17,1.318384,431169,20714
1154.75,1.320637,433579,20722
1158.33,1.319499,436264,20905
1161.91,1.313849,439132,21318
1165.48,1.324454,442389,20958
1169.04,1.312473,446101,21725
1173.79,1.316713,451929,21795
1177.34,1.316587,456026,21999
1180.9,1.321428,461306,22007
1184.44,1.316107,467657,22585
1187.99,1.320394,473969,22665
1191.52,1.320290,479856,22952
1195.06,1.328632,487372,22868
1199.76,1.321142,497347,23742
1203.29,1.320591,504311,24105
1206.81,1.315522,511507,24736
1210.33,1.325659,519078,24523
1213.84,1.320028,527163,25230
1217.35,1.331110,534208,24923
1220.85,1.331183,540472,25211
1225.51,1.329310,549929,25763
1229.01,1.325251,556888,26334
1232.5,1.326384,562180,26515
1235.98,1.326389,567975,26788
1239.46,1.327329,574815,27052
1242.94,1.326252,582782,27495
1246.41,1.323586,591476,28077
1251.03,1.323894,604016,28652
1254.5,1.328757,612289,28721
1257.96,1.328199,619125,29079
1261.41,1.328982,624551,29281
1264.86,1.325099,629900,29797
1268.31,1.325088,634345,30008
1271.75,1.328351,638574,29982
1276.33,1.331432,642499,29953
1279.76,1.326097,645905,30484
1283.19,1.332854,648307,30125
1286.61,1.329353,650446,30469
1290.03,1.328472,652132,30610
1293.44,1.336877,653907,30105
1296.85,1.328653,655963,30777
1301.39,1.330912,657349,30682
1304.8,1.332553,657558,30576
1308.19,1.331583,658515,30689
1311.58,1.338074,658804,30247
1314.97,1.328288,659011,30946
1318.36,1.332358,658272,30623
1321.73,1.329845,658022,30789
1326.23,1.338277,657870,30190
1329.6,1.334192,656482,30411
1332.97,1.331465,654926,30530
1336.33,1.336051,653727,30154
1339.69,1.332048,652497,30376
1343.04,1.324587,649913,30780
1346.39,1.339637,647671,29629
1349.73,1.327671,645338,30347
1354.18,1.332585,641175,29812
1357.52,1.332013,638376,29721
1360.85,1.332018,635805,29601
1364.17,1.325580,633413,29930
1367.49,1.327379,631026,29694
1370.81,1.333028,628050,29172
1374.12,1.329258,625034,29285
1378.54,1.328316,620272,29125
1381.84,1.333009,616892,28655
1385.14,1.330543,613613,28665
1388.43,1.329472,611526,28638
1391.72,1.330013,610663,28562
1395.01,1.331394,610634,28470
1398.29,1.324890,611700,28950
1402.66,1.338911,614051,28138
1405.93,1.330784,616268,28773
1409.2,1.331663,617795,28786
1412.46,1.326575,618872,29176
1415.72,1.333308,619795,28770
1418.98,1.333165,620495,28812
1422.23,1.332164,621087,28906
1426.56,1.330821,621375,29009
1429.8,1.337171,621616,28599
1433.04,1.340165,622129,28426
1436.27,1.337093,621526,28600
1439.5,1.332213,621113,28904
1442.72,1.330803,620921,28989
1445.94,1.328136,620270,29137
1450.23,1.331868,618860,28822
1453.44,1.337794,617697,28378
1456.64,1.333294,616264,28607
1459.85,1.336122,614413,28336
1463.04,1.337198,612307,28169
1466.24,1.340060,610032,27880
1469.43,1.330714,607345,28361
1473.67,1.341426,603789,27508
1476.85,1.338249,601175,27590
1480.02,1.337004,597737,27511
1483.19,1.341311,594479,27091
1486.36,1.340990,591232,26963
1489.52,1.336444,587853,27091
1492.68,1.340183,583875,26677
1496.89,1.336196,578062,26655
1500.03,1.342259,574159,26108
1503.18,1.342993,570285,25888
1506.32,1.329898,565444,26454
1509.45,1.341733,560571,25521
1512.58,1.331853,555821,25887
1515.71,1.336468,550344,25361
1519.87,1.337350,543983,25017
1522.99,1.344222,538764,24388
1526.1,1.334365,533692,24713
1529.21,1.340753,527902,24088
1532.32,1.336695,521886,24037
1535.42,1.341432,515888,23503
1538.51,1.338176,509987,23409
1541.6,1.335374,503936,23281
1545.72,1.339077,494694,22660
1548.8,1.331775,488378,22750
1551.88,1.334591,481832,22300
1554.95,1.326474,474989,22398
1558.02,1.339602,467818,21403
1561.08,1.340009,460730,21059
1564.15,1.336906,454170,20908
1568.22,1.340449,444181,20282
1571.27,1.340965,436947,19928
1574.32,1.338508,429598,19704
1577.36,1.334584,422039,19533
1580.4,1.326825,414375,19524
1583.43,1.339719,406354,18586
1586.46,1.341285,398475,18160
1590.49,1.326459,388982,18343
1593.51,1.334907,380708,17607
1596.53,1.331791,372727,17362
1599.54,1.321191,365060,17425
1602.55,1.331210,357543,16677
1605.55,1.326826,349495,16467
1608.55,1.333470,341154,15830
1612.54,1.328747,330877,15521
1615.53,1.330269,322904,15094
1618.51,1.323249,315116,14970
1621.49,1.325180,307217,14530
1624.47,1.331484,299481,13960
1627.44,1.337053,292112,13443
1630.41,1.321786,284245,13549
1634.36,1.329074,274079,12847
1637.32,1.329326,266916,12504
1640.27,1.326898,259612,12230
1643.22,1.335259,251804,11636
1646.16,1.298386,244348,12292
1649.1,1.308437,236703,11635
1652.04,1.313329,228171,11090
1655.95,1.329629,215408,10084
1658.88,1.303191,204937,10196
1661.8,1.278825,193395,10177
1664.72,1.262106,179728,9829
1667.63,1.259990,163642,8993
1670.54,1.262244,146312,7999
1673.44,1.220727,128451,7727
1677.31,1.206274,105080,6535
1680.21,1.187229,88906,5777
1683.1,1.178285,75033,4977
1685.99,1.178113,63520,4215
1688.87,1.143388,53714,3861
1691.75,1.243828,45653,2604
1694.62,1.176447,39137,2607
1697.49,1.289309,33776,1735
1701.31,1.260093,28175,1548

File: Column 1_078380_20241121_165950.csv
Method:,Column 1,,
Host Date-Time:,21/11/24 @ 16:59:50,,
Header Version:,1,,
System Temp (C):,34.62,,
Detector Temp (C):,33.95,,
Humidity (%):,1.86,,
Lamp PD:,3803,,
Shift Vector Coefficients:,-10.5391,0.0761263,-0.000134223,,
Pixel to Wavelength Coefficients:,1775.68,-0.916766,-0.000235065,,
Serial Number:,5510004,,
Scan Config Name:,Column 1,,
Scan Config Type:,Slew,,
Section 1,,
Start wavelength (nm):,900,,
End wavelength (nm):,1700,,
Pattern Pixel Width (nm):,   7.03,,,,
Exposure (ms):,  0.635,,,,
Digital Resolution:,228,,
Num Repeats:,6,,
PGA Gain:,64,,
Total Measurement Time in sec:,  2.732,,
Wavelength (nm),Absorbance (AU),Reference Signal (unitless),Sample Signal (unitless)
901.51,1.317533,108485,5222
905.376,1.317618,121306,5838
909.237,1.343573,131909,5980
913.095,1.355801,143299,6316
916.948,1.329622,156982,7349
922.079,1.314007,179937,8732
925.923,1.334061,200504,9291
929.762,1.324884,222660,10538
933.597,1.318553,244426,11738
937.427,1.330419,263972,12335
941.254,1.330787,281845,13159
945.076,1.322151,297271,14158
950.165,1.319879,315605,15110
953.978,1.318053,328029,15771
957.786,1.314490,340470,16504
961.59,1.307059,352317,17373
965.389,1.312393,363056,17684
969.185,1.319287,373162,17890
972.976,1.313152,382632,18605
976.763,1.316998,391202,18854
981.806,1.322599,400190,19040
985.583,1.307525,406088,20003
989.355,1.326095,410162,19358
993.124,1.308230,412868,20304
996.888,1.308754,414263,20348
1000.65,1.310986,415476,20303
1004.4,1.314597,415479,20135
1009.41,1.303466,414358,20602
1013.15,1.307049,412923,20362
1016.89,1.311698,411526,20077
1020.63,1.316754,409066,19726
1024.36,1.313504,406777,19763
1028.09,1.313677,404427,19641
1031.82,1.317449,401911,19350
1036.78,1.305886,398410,19699
1040.49,1.316885,396204,19100
1044.2,1.318032,394236,18955
1047.91,1.320262,392042,18753
1051.61,1.306911,389823,19229
1055.31,1.310866,388234,18977
1059,1.308944,387599,19030
1063.92,1.318970,386688,18552
1067.61,1.310798,386598,18900
1071.29,1.312776,387377,18852
1074.96,1.316361,388536,18753
1078.63,1.321414,389855,18599
1082.3,1.313982,391215,18986
1085.96,1.313369,393215,19110
1090.84,1.314599,396270,19204
1094.49,1.322095,398760,18994
1098.14,1.314635,400987,19431
1101.79,1.321433,403477,19248
1105.43,1.313809,406116,19717
1109.06,1.316935,407701,19652
1112.7,1.322399,409859,19509
1117.53,1.325494,412494,19495
1121.15,1.309623,414909,20339
1124.77,1.320780,416559,19902
1128.38,1.329340,418532,19606
1131.99,1.314810,419956,20342
1135.6,1.317932,421946,20292
1139.2,1.315363,423881,20506
1143.99,1.316976,426786,20570
1147.58,1.333675,428617,19879
1151.17,1.325017,431169,20400
1154.75,1.324447,433579,20541
1158.33,1.326241,436264,20583
1161.91,1.319013,439132,21066
1165.48,1.320802,442389,21135
1169.04,1.324143,446101,21149
1173.79,1.318570,451929,21702
1177.34,1.322610,456026,21696
1180.9,1.323109,461306,21922
1184.44,1.324005,467657,22178
1187.99,1.319571,473969,22708
1191.52,1.321940,479856,22865
1195.06,1.321270,487372,23259
1199.76,1.322149,497347,23687
1203.29,1.321349,504311,24063
1206.81,1.325898,511507,24152
1210.33,1.323099,519078,24668
1213.84,1.331381,527163,24579
1217.35,1.324058,534208,25331
1220.85,1.327512,540472,25425
1225.51,1.327527,549929,25869
1229.01,1.324559,556888,26376
1232.5,1.333202,562180,26102
1235.98,1.323497,567975,26967
1239.46,1.325039,574815,27195
1242.94,1.325542,582782,27540
1246.41,1.322027,591476,28178
1251.03,1.325640,604016,28537
1254.5,1.328258,612289,28754
1257.96,1.326901,619125,29166
1261.41,1.327960,624551,29350
1264.86,1.330142,629900,29453
1268.31,1.328328,634345,29785
1271.75,1.326832,638574,30087
1276.33,1.330317,642499,30030
1279.76,1.337558,645905,29690
1283.19,1.330854,648307,30264
1286.61,1.328655,650446,30518
1290.03,1.334084,652132,30217
1293.44,1.331715,653907,30465
1296.85,1.331044,655963,30608
1301.39,1.336052,657349,30321
1304.8,1.335060,657558,30400
1308.19,1.336164,658515,30367
1311.58,1.331137,658804,30734
1314.97,1.338670,659011,30215
1318.36,1.336204,658272,30353
1321.73,1.336798,658022,30300
1326.23,1.331554,657870,30661
1329.6,1.341784,656482,29884
1332.97,1.332405,654926,30464
1336.33,1.336815,653727,30101
1339.69,1.333208,652497,30295
1343.04,1.338158,649913,29833
1346.39,1.331837,647671,30166
1349.73,1.329637,645338,30210
1354.18,1.327632,641175,30154
1357.52,1.328100,638376,29990
1360.85,1.331622,635805,29628
1364.17,1.328580,633413,29724
1367.49,1.330417,631026,29487
1370.81,1.328894,628050,29451
1374.12,1.328532,625034,29334
1378.54,1.329945,620272,29016
1381.84,1.327242,616892,29038
1385.14,1.330452,613613,28671
1388.43,1.326766,611526,28817
1391.72,1.331155,610663,28487
1395.01,1.329430,610634,28599
1398.29,1.329005,611700,28677
1402.66,1.328887,614051,28795
1405.93,1.333373,616268,28602
1409.2,1.331633,617795,28788
1412.46,1.331997,618872,28814
1415.72,1.334608,619795,28684
1418.98,1.340093,620495,28356
1422.23,1.330141,621087,29041
1426.56,1.335835,621375,28676
1429.8,1.340418,621616,28386
1433.04,1.340226,622129,28422
1436.27,1.335532,621526,28703
1439.5,1.333793,621113,28799
1442.72,1.336003,620921,28644
1445.94,1.338926,620270,28422
1450.23,1.334150,618860,28671
1453.44,1.333742,617697,28644
1456.64,1.331461,616264,28728
1459.85,1.332125,614413,28598
1463.04,1.338170,612307,28106
1466.24,1.336106,610032,28135
1469.43,1.337411,607345,27927
1473.67,1.333030,603789,28045
1476.85,1.337856,601175,27615
1480.02,1.334171,597737,27691
1483.19,1.343787,594479,26937
1486.36,1.333485,591232,27433
1489.52,1.331486,587853,27402
1492.68,1.336858,583875,26882
1496.89,1.345517,578062,26089
1500.03,1.332098,574159,26726
1503.18,1.340634,570285,26029
1506.32,1.335267,565444,26129
1509.45,1.331940,560571,26103
1512.58,1.339811,555821,25417
1515.71,1.337068,550344,25326
1519.87,1.331162,543983,25376
1522.99,1.339458,538764,24657
1526.1,1.345815,533692,24070
1529.21,1.334470,527902,24439
1532.32,1.341894,521886,23751
1535.42,1.334703,515888,23870
1538.51,1.339980,509987,23312
1541.6,1.341214,503936,22970
1545.72,1.333952,494694,22929
1548.8,1.340276,488378,22309
1551.88,1.342690,481832,21888
1554.95,1.333176,474989,22055
1558.02,1.335462,467818,21608
1561.08,1.336435,460730,21233
1564.15,1.342993,454170,20617
1568.22,1.345966,444181,20026
1571.27,1.334304,436947,20236
1574.32,1.339987,429598,19637
1577.36,1.339166,422039,19328
1580.4,1.332196,414375,19284
1583.43,1.333893,406354,18837
1586.46,1.331987,398475,18553
1590.49,1.334705,388982,17998
1593.51,1.335425,380708,17586
1596.53,1.341658,372727,16972
1599.54,1.328379,365060,17139
1602.55,1.336687,357543,16468
1605.55,1.333096,349495,16231
1608.55,1.323355,341154,16203
1612.54,1.327294,330877,15573
1615.53,1.334548,322904,14946
1618.51,1.323975,315116,14945
1621.49,1.328390,307217,14423
1624.47,1.325920,299481,14140
1627.44,1.322066,292112,13915
1630.41,1.314948,284245,13764
1634.36,1.330225,274079,12813
1637.32,1.325660,266916,12610
1640.27,1.321569,259612,12381
1643.22,1.309220,251804,12355
1646.16,1.329507,244348,11442
1649.1,1.307133,236703,11670
1652.04,1.319919,228171,10923
1655.95,1.290647,215408,11031
1658.88,1.303830,204937,10181
1661.8,1.283675,193395,10064
1664.72,1.289555,179728,9227
1667.63,1.277783,163642,8632
1670.54,1.233517,146312,8546
1673.44,1.216643,128451,7800
1677.31,1.182860,105080,6897
1680.21,1.225558,88906,5289
1683.1,1.188527,75033,4861
1685.99,1.191081,63520,4091
1688.87,1.188134,53714,3483
1691.75,1.174316,45653,3056
1694.62,1.186218,39137,2549
1697.49,1.229755,33776,1990
1701.31,1.292709,28175,1436

File: Column 1_078382_20241121_165956.csv
Method:,Column 1,,
Host Date-Time:,21/11/24 @ 16:59:56,,
Header Version:,1,,
System Temp (C):,34.57,,
Detector Temp (C):,33.98,,
Humidity (%):,1.95,,
Lamp PD:,3803,,
Shift Vector Coefficients:,-10.5391,0.0761263,-0.000134223,,
Pixel to Wavelength Coefficients:,1775.68,-0.916766,-0.000235065,,
Serial Number:,5510004,,
Scan Config Name:,Column 1,,
Scan Config Type:,Slew,,
Section 1,,
Start wavelength (nm):,900,,
End wavelength (nm):,1700,,
Pattern Pixel Width (nm):,   7.03,,,,
Exposure (ms):,  0.635,,,,
Digital Resolution:,228,,
Num Repeats:,6,,
PGA Gain:,64,,
Total Measurement Time in sec:,  2.729,,
Wavelength (nm),Absorbance (AU),Reference Signal (unitless),Sample Signal (unitless)
901.51,1.308235,108485,5335
905.376,1.313988,121306,5887
909.237,1.337086,131909,6070
913.095,1.329262,143299,6714
916.948,1.309924,156982,7690
922.079,1.327545,179937,8464
925.923,1.320712,200504,9581
929.762,1.324472,222660,10548
933.597,1.332922,244426,11356
937.427,1.317412,263972,12710
941.254,1.323781,281845,13373
945.076,1.313134,297271,14455
950.165,1.319219,315605,15133
953.978,1.319543,328029,15717
957.786,1.315438,340470,16468
961.59,1.301742,352317,17587
965.389,1.309285,363056,17811
969.185,1.316480,373162,18006
972.976,1.301816,382632,19097
976.763,1.305518,391202,19359
981.806,1.306523,400190,19758
985.583,1.308351,406088,19965
989.355,1.315173,410162,19851
993.124,1.304227,412868,20492
996.888,1.307369,414263,20413
1000.65,1.307492,415476,20467
1004.4,1.307325,415479,20475
1009.41,1.303150,414358,20617
1013.15,1.311745,412923,20143
1016.89,1.310597,411526,20128
1020.63,1.308230,409066,20117
1024.36,1.304543,406777,20175
1028.09,1.314606,404427,19599
1031.82,1.309708,401911,19698
1036.78,1.315719,398410,19258
1040.49,1.304910,396204,19634
1044.2,1.299837,394236,19766
1047.91,1.308744,392042,19257
1051.61,1.303895,389823,19363
1055.31,1.307424,388234,19128
1059,1.312496,387599,18875
1063.92,1.320025,386688,18507
1067.61,1.306385,386598,19093
1071.29,1.316223,387377,18703
1074.96,1.316314,388536,18755
1078.63,1.310416,389855,19076
1082.3,1.316115,391215,18893
1085.96,1.312779,393215,19136
1090.84,1.308625,396270,19470
1094.49,1.310989,398760,19486
1098.14,1.313764,400987,19470
1101.79,1.320982,403477,19268
1105.43,1.315487,406116,19641
1109.06,1.312188,407701,19868
1112.7,1.322867,409859,19488
1117.53,1.315453,412494,19951
1121.15,1.322672,414909,19737
1124.77,1.311625,416559,20326
1128.38,1.314896,418532,20269
1131.99,1.312426,419956,20454
1135.6,1.321327,421946,20134
1139.2,1.314940,423881,20526
1143.99,1.314828,426786,20672
1147.58,1.311757,428617,20908
1151.17,1.322174,431169,20534
1154.75,1.321644,433579,20674
1158.33,1.324913,436264,20646
1161.91,1.320231,439132,21007
1165.48,1.304548,442389,21941
1169.04,1.313454,446101,21676
1173.79,1.310874,451929,22090
1177.34,1.314715,456026,22094
1180.9,1.315684,461306,22300
1184.44,1.318092,467657,22482
1187.99,1.319475,473969,22713
1191.52,1.320101,479856,22962
1195.06,1.321064,487372,23270
1199.76,1.322700,497347,23657
1203.29,1.319835,504311,24147
1206.81,1.328695,511507,23997
1210.33,1.322729,519078,24689
1213.84,1.320424,527163,25207
1217.35,1.326931,534208,25164
1220.85,1.342775,540472,24547
1225.51,1.324599,549929,26044
1229.01,1.323901,556888,26416
1232.5,1.325353,562180,26578
1235.98,1.323513,567975,26966
1239.46,1.322873,574815,27331
1242.94,1.320089,582782,27888
1246.41,1.323958,591476,28053
1251.03,1.320030,604016,28908
1254.5,1.327820,612289,28783
1257.96,1.326589,619125,29187
1261.41,1.327901,624551,29354
1264.86,1.332567,629900,29289
1268.31,1.327061,634345,29872
1271.75,1.322695,638574,30375
1276.33,1.331650,642499,29938
1279.76,1.331242,645905,30125
1283.19,1.333084,648307,30109
1286.61,1.330052,650446,30420
1290.03,1.326095,652132,30778
1293.44,1.333114,653907,30367
1296.85,1.329034,655963,30750
1301.39,1.329993,657349,30747
1304.8,1.335218,657558,30389
1308.19,1.332121,658515,30651
1311.58,1.337027,658804,30320
1314.97,1.336476,659011,30368
1318.36,1.330829,658272,30731
1321.73,1.330862,658022,30717
1326.23,1.328280,657870,30893
1329.6,1.337173,656482,30203
1332.97,1.327910,654926,30781
1336.33,1.330428,653727,30547
1339.69,1.333279,652497,30290
1343.04,1.330654,649913,30353
1346.39,1.329253,647671,30346
1349.73,1.330745,645338,30133
1354.18,1.328858,641175,30069
1357.52,1.329972,638376,29861
1360.85,1.325393,635805,30056
1364.17,1.329004,633413,29695
1367.49,1.324260,631026,29908
1370.81,1.325267,628050,29698
1374.12,1.324597,625034,29601
1378.54,1.329915,620272,29018
1381.84,1.331179,616892,28776
1385.14,1.321828,613613,29246
1388.43,1.319325,611526,29315
1391.72,1.327209,610663,28747
1395.01,1.330129,610634,28553
1398.29,1.321171,611700,29199
1402.66,1.331747,614051,28606
1405.93,1.326773,616268,29040
1409.2,1.330067,617795,28892
1412.46,1.326932,618872,29152
1415.72,1.337038,619795,28524
1418.98,1.331931,620495,28894
1422.23,1.324023,621087,29453
1426.56,1.328164,621375,29187
1429.8,1.332925,621616,28880
1433.04,1.331423,622129,29004
1436.27,1.332171,621526,28926
1439.5,1.338753,621113,28472
1442.72,1.335578,620921,28672
1445.94,1.331548,620270,28909
1450.23,1.338978,618860,28354
1453.44,1.335809,617697,28508
1456.64,1.332036,616264,28690
1459.85,1.334974,614413,28411
1463.04,1.338325,612307,28096
1466.24,1.335319,610032,28186
1469.43,1.331358,607345,28319
1473.67,1.339002,603789,27662
1476.85,1.337746,601175,27622
1480.02,1.331981,597737,27831
1483.19,1.337974,594479,27300
1486.36,1.337668,591232,27170
1489.52,1.333743,587853,27260
1492.68,1.333639,583875,27082
1496.89,1.335528,578062,26696
1500.03,1.338961,574159,26307
1503.18,1.334159,570285,26420
1506.32,1.330030,565444,26446
1509.45,1.339205,560571,25670
1512.58,1.339281,555821,25448
1515.71,1.339803,550344,25167
1519.87,1.337402,543983,25014
1522.99,1.335635,538764,24875
1526.1,1.334611,533692,24699
1529.21,1.337806,527902,24252
1532.32,1.335360,521886,24111
1535.42,1.335413,515888,23831
1538.51,1.334500,509987,23608
1541.6,1.335019,503936,23300
1545.72,1.340190,494694,22602
1548.8,1.334398,488378,22613
1551.88,1.334610,481832,22299
1554.95,1.332743,474989,22077
1558.02,1.335704,467818,21596
1561.08,1.332789,460730,21412
1564.15,1.331641,454170,21163
1568.22,1.327663,444181,20888
1571.27,1.334841,436947,20211
1574.32,1.335455,429598,19843
1577.36,1.333895,422039,19564
1580.4,1.338709,414375,18997
1583.43,1.330425,406354,18988
1586.46,1.329676,398475,18652
1590.49,1.330360,388982,18179
1593.51,1.327763,380708,17899
1596.53,1.326644,372727,17569
1599.54,1.320046,365060,17471
1602.55,1.322343,357543,17021
1605.55,1.331733,349495,16282
1608.55,1.324214,341154,16171
1612.54,1.318707,330877,15884
1615.53,1.320905,322904,15423
1618.51,1.322350,315116,15001
1621.49,1.317683,307217,14783
1624.47,1.306049,299481,14802
1627.44,1.328480,292112,13711
1630.41,1.322877,284245,13515
1634.36,1.330496,274079,12805
1637.32,1.320150,266916,12771
1640.27,1.301452,259612,12968
1643.22,1.307816,251804,12395
1646.16,1.317934,244348,11751
1649.1,1.309596,236703,11604
1652.04,1.317579,228171,10982
1655.95,1.292146,215408,10993
1658.88,1.288533,204937,10546
1661.8,1.281995,193395,10103
1664.72,1.280565,179728,9420
1667.63,1.263725,163642,8916
1670.54,1.222231,146312,8771
1673.44,1.217981,128451,7776
1677.31,1.197590,105080,6667
1680.21,1.191535,88906,5720
1683.1,1.175501,75033,5009
1685.99,1.177598,63520,4220
1688.87,1.220347,53714,3234
1691.75,1.148656,45653,3242
1694.62,1.179288,39137,2590
1697.49,1.197181,33776,2145
1701.31,1.130758,28175,2085