Folder: textile_sorting_NIRSCAN_/ML/samples/unknown (part 20)

File: Column 1_078136_20241121_164714.csv
Method:,Column 1,,
Host Date-Time:,21/11/24 @ 16:47:14,,
Header Version:,1,,
System Temp (C):,33.06,,
Detector Temp (C):,28.84,,
Humidity (%):,3.52,,
Lamp PD:,3806,,
Shift Vector Coefficients:,-10.5391,0.0761263,-0.000134223,,
Pixel to Wavelength Coefficients:,1775.68,-0.916766,-0.000235065,,
Serial Number:,5510004,,
Scan Config Name:,Column 1,,
Scan Config Type:,Slew,,
Section 1,,
Start wavelength (nm):,900,,
End wavelength (nm):,1700,,
Pattern Pixel Width (nm):,   7.03,,,,
Exposure (ms):,  0.635,,,,
Digital Resolution:,228,,
Num Repeats:,6,,
PGA Gain:,64,,
Total Measurement Time in sec:,  2.690,,
Wavelength (nm),Absorbance (AU),Reference Signal (unitless),Sample Signal (unitless)
901.51,1.344731,108485,4905
905.376,1.305080,121306,6009
909.237,1.353341,131909,5847
913.095,1.337292,143299,6591
916.948,1.328854,156982,7362
922.079,1.311428,179937,8784
925.923,1.316068,200504,9684
929.762,1.309022,222660,10930
933.597,1.314429,244426,11850
937.427,1.323018,263972,12547
941.254,1.325408,281845,13323
945.076,1.319917,297271,14231
950.165,1.319133,315605,15136
953.978,1.307847,328029,16146
957.786,1.310769,340470,16646
961.59,1.314929,352317,17061
965.389,1.307436,363056,17887
969.185,1.312065,373162,18190
972.976,1.305722,382632,18926
976.763,1.303682,391202,19441
981.806,1.320597,400190,19128
985.583,1.317407,406088,19553
989.355,1.316751,410162,19779
993.124,1.312918,412868,20086
996.888,1.313907,414263,20108
1000.65,1.312872,415476,20215
1004.4,1.315353,415479,20100
1009.41,1.317694,414358,19938
1013.15,1.306985,412923,20365
1016.89,1.310403,411526,20137
1020.63,1.301546,409066,20429
1024.36,1.317278,406777,19592
1028.09,1.307725,404427,19912
1031.82,1.312384,401911,19577
1036.78,1.308008,398410,19603
1040.49,1.310744,396204,19372
1044.2,1.312048,394236,19218
1047.91,1.305039,392042,19422
1051.61,1.312388,389823,18988
1055.31,1.318089,388234,18664
1059,1.320718,387599,18521
1063.92,1.318035,386688,18592
1067.61,1.318191,386598,18581
1071.29,1.315457,387377,18736
1074.96,1.316013,388536,18768
1078.63,1.318945,389855,18705
1082.3,1.320969,391215,18683
1085.96,1.318559,393215,18883
1090.84,1.319993,396270,18967
1094.49,1.321570,398760,19017
1098.14,1.311806,400987,19558
1101.79,1.312876,403477,19631
1105.43,1.323746,406116,19271
1109.06,1.315083,407701,19736
1112.7,1.318168,409859,19700
1117.53,1.322652,412494,19623
1121.15,1.323685,414909,19691
1124.77,1.325321,416559,19695
1128.38,1.313719,418532,20324
1131.99,1.326341,419956,19809
1135.6,1.316394,421946,20364
1139.2,1.318253,423881,20370
1143.99,1.319305,426786,20460
1147.58,1.332192,428617,19947
1151.17,1.313754,431169,20936
1154.75,1.322001,433579,20657
1158.33,1.328547,436264,20474
1161.91,1.323656,439132,20842
1165.48,1.323875,442389,20986
1169.04,1.317965,446101,21452
1173.79,1.315142,451929,21874
1177.34,1.326935,456026,21481
1180.9,1.322475,461306,21954
1184.44,1.316107,467657,22585
1187.99,1.325327,473969,22409
1191.52,1.330204,479856,22434
1195.06,1.324305,487372,23097
1199.76,1.315617,497347,24046
1203.29,1.329639,504311,23608
1206.81,1.317088,511507,24647
1210.33,1.321166,519078,24778
1213.84,1.323259,527163,25043
1217.35,1.333119,534208,24808
1220.85,1.321642,540472,25771
1225.51,1.325400,549929,25996
1229.01,1.327533,556888,26196
1232.5,1.331690,562180,26193
1235.98,1.324061,567975,26932
1239.46,1.318761,574815,27591
1242.94,1.331640,582782,27156
1246.41,1.331532,591476,27568
1251.03,1.327394,604016,28422
1254.5,1.325743,612289,28921
1257.96,1.328677,619125,29047
1261.41,1.325510,624551,29516
1264.86,1.331664,629900,29350
1268.31,1.327018,634345,29875
1271.75,1.333714,638574,29614
1276.33,1.330404,642499,30024
1279.76,1.332570,645905,30033
1283.19,1.329365,648307,30368
1286.61,1.328015,650446,30563
1290.03,1.331019,652132,30431
1293.44,1.332771,653907,30391
1296.85,1.333149,655963,30460
1301.39,1.329570,657349,30777
1304.8,1.333876,657558,30483
1308.19,1.334266,658515,30500
1311.58,1.329684,658804,30837
1314.97,1.335377,659011,30445
1318.36,1.332939,658272,30582
1321.73,1.335510,658022,30390
1326.23,1.333470,657870,30526
1329.6,1.329886,656482,30714
1332.97,1.335237,654926,30266
1336.33,1.333180,653727,30354
1339.69,1.333193,652497,30296
1343.04,1.336342,649913,29958
1346.39,1.327710,647671,30454
1349.73,1.323470,645338,30642
1354.18,1.331436,641175,29891
1357.52,1.329725,638376,29878
1360.85,1.324902,635805,30090
1364.17,1.327879,633413,29772
1367.49,1.335036,631026,29175
1370.81,1.333669,628050,29129
1374.12,1.332743,625034,29051
1378.54,1.330799,620272,28959
1381.84,1.336555,616892,28422
1385.14,1.329680,613613,28722
1388.43,1.334874,611526,28284
1391.72,1.330804,610663,28510
1395.01,1.327823,610634,28705
1398.29,1.330841,611700,28556
1402.66,1.331065,614051,28651
1405.93,1.325459,616268,29128
1409.2,1.333932,617795,28636
1412.46,1.331289,618872,28861
1415.72,1.339297,619795,28376
1418.98,1.329443,620495,29060
1422.23,1.332886,621087,28858
1426.56,1.331600,621375,28957
1429.8,1.336701,621616,28630
1433.04,1.331363,622129,29008
1436.27,1.333690,621526,28825
1439.5,1.329531,621113,29083
1442.72,1.335790,620921,28658
1445.94,1.336640,620270,28572
1450.23,1.336565,618860,28512
1453.44,1.332833,617697,28704
1456.64,1.335395,616264,28469
1459.85,1.341877,614413,27963
1463.04,1.338974,612307,28054
1466.24,1.334380,610032,28247
1469.43,1.331266,607345,28325
1473.67,1.339017,603789,27661
1476.85,1.338533,601175,27572
1480.02,1.341207,597737,27246
1483.19,1.336751,594479,27377
1486.36,1.340813,591232,26974
1489.52,1.339872,587853,26878
1492.68,1.340639,583875,26649
1496.89,1.343739,578062,26196
1500.03,1.342941,574159,26067
1503.18,1.343144,570285,25879
1506.32,1.340804,565444,25798
1509.45,1.342022,560571,25504
1512.58,1.337221,555821,25569
1515.71,1.339354,550344,25193
1519.87,1.339351,543983,24902
1522.99,1.337736,538764,24755
1526.1,1.336691,533692,24581
1529.21,1.334150,527902,24457
1532.32,1.343947,521886,23639
1535.42,1.333722,515888,23924
1538.51,1.342034,509987,23202
1541.6,1.337749,503936,23154
1545.72,1.334615,494694,22894
1548.8,1.338237,488378,22414
1551.88,1.343245,481832,21860
1554.95,1.334281,474989,21999
1558.02,1.337053,467818,21529
1561.08,1.339988,460730,21060
1564.15,1.336719,454170,20917
1568.22,1.334748,444181,20550
1571.27,1.336068,436947,20154
1574.32,1.330688,429598,20062
1577.36,1.339053,422039,19333
1580.4,1.327248,414375,19505
1583.43,1.331708,406354,18932
1586.46,1.344454,398475,18028
1590.49,1.337829,388982,17869
1593.51,1.333355,380708,17670
1596.53,1.325755,372727,17605
1599.54,1.331532,365060,17015
1602.55,1.318406,357543,17176
1605.55,1.336669,349495,16098
1608.55,1.324052,341154,16177
1612.54,1.316199,330877,15976
1615.53,1.337172,322904,14856
1618.51,1.328502,315116,14790
1621.49,1.333539,307217,14253
1624.47,1.326904,299481,14108
1627.44,1.327405,292112,13745
1630.41,1.323070,284245,13509
1634.36,1.326950,274079,12910
1637.32,1.338097,266916,12254
1640.27,1.320763,259612,12404
1643.22,1.325187,251804,11909
1646.16,1.323214,244348,11609
1649.1,1.328216,236703,11117
1652.04,1.319243,228171,10940
1655.95,1.311494,215408,10514
1658.88,1.314715,204937,9929
1661.8,1.299629,193395,9701
1664.72,1.289179,179728,9235
1667.63,1.291689,163642,8360
1670.54,1.290972,146312,7487
1673.44,1.284091,128451,6678
1677.31,1.266179,105080,5693
1680.21,1.242128,88906,5091
1683.1,1.249015,75033,4229
1685.99,1.250607,63520,3567
1688.87,1.279684,53714,2821
1691.75,1.270658,45653,2448
1694.62,1.275988,39137,2073
1697.49,1.259796,33776,1857
1701.31,1.163407,28175,1934

File: Column 1_078137_20241121_164717.csv
Method:,Column 1,,
Host Date-Time:,21/11/24 @ 16:47:17,,
Header Version:,1,,
System Temp (C):,33.04,,
Detector Temp (C):,28.84,,
Humidity (%):,3.47,,
Lamp PD:,3806,,
Shift Vector Coefficients:,-10.5391,0.0761263,-0.000134223,,
Pixel to Wavelength Coefficients:,1775.68,-0.916766,-0.000235065,,
Serial Number:,5510004,,
Scan Config Name:,Column 1,,
Scan Config Type:,Slew,,
Section 1,,
Start wavelength (nm):,900,,
End wavelength (nm):,1700,,
Pattern Pixel Width (nm):,   7.03,,,,
Exposure (ms):,  0.635,,,,
Digital Resolution:,228,,
Num Repeats:,6,,
PGA Gain:,64,,
Total Measurement Time in sec:,  2.701,,
Wavelength (nm),Absorbance (AU),Reference Signal (unitless),Sample Signal (unitless)
901.51,1.328993,108485,5086
905.376,1.315540,121306,5866
909.237,1.304830,131909,6538
913.095,1.341996,143299,6520
916.948,1.306716,156982,7747
922.079,1.334684,179937,8326
925.923,1.337204,200504,9224
929.762,1.316557,222660,10742
933.597,1.311107,244426,11941
937.427,1.319570,263972,12647
941.254,1.327598,281845,13256
945.076,1.315605,297271,14373
950.165,1.320253,315605,15097
953.978,1.310464,328029,16049
957.786,1.317606,340470,16386
961.59,1.322426,352317,16769
965.389,1.313032,363056,17658
969.185,1.319433,373162,17884
972.976,1.308531,382632,18804
976.763,1.302857,391202,19478
981.806,1.313257,400190,19454
985.583,1.311144,406088,19837
989.355,1.308013,410162,20181
993.124,1.313134,412868,20076
996.888,1.311516,414263,20219
1000.65,1.306094,415476,20533
1004.4,1.308323,415479,20428
1009.41,1.316150,414358,20009
1013.15,1.311616,412923,20149
1016.89,1.317973,411526,19789
1020.63,1.312243,409066,19932
1024.36,1.311115,406777,19872
1028.09,1.310109,404427,19803
1031.82,1.310767,401911,19650
1036.78,1.310207,398410,19504
1040.49,1.317819,396204,19059
1044.2,1.308201,394236,19389
1047.91,1.313597,392042,19043
1051.61,1.314773,389823,18884
1055.31,1.312724,388234,18896
1059,1.315613,387599,18740
1063.92,1.313804,386688,18774
1067.61,1.313818,386598,18769
1071.29,1.320165,387377,18534
1074.96,1.311914,388536,18946
1078.63,1.314924,389855,18879
1082.3,1.308278,391215,19237
1085.96,1.322696,393215,18704
1090.84,1.319901,396270,18971
1094.49,1.318997,398760,19130
1098.14,1.322165,400987,19097
1101.79,1.313629,403477,19597
1105.43,1.314162,406116,19701
1109.06,1.323638,407701,19351
1112.7,1.317067,409859,19750
1117.53,1.322409,412494,19634
1121.15,1.326273,414909,19574
1124.77,1.323538,416559,19776
1128.38,1.324318,418532,19834
1131.99,1.316500,419956,20263
1135.6,1.327431,421946,19853
1139.2,1.315850,423881,20483
1143.99,1.322821,426786,20295
1147.58,1.321227,428617,20457
1151.17,1.322407,431169,20523
1154.75,1.322359,433579,20640
1158.33,1.321811,436264,20794
1161.91,1.322158,439132,20914
1165.48,1.312196,442389,21558
1169.04,1.317177,446101,21491
1173.79,1.310344,451929,22117
1177.34,1.318585,456026,21898
1180.9,1.316269,461306,22270
1184.44,1.326263,467657,22063
1187.99,1.325773,473969,22386
1191.52,1.321446,479856,22891
1195.06,1.322560,487372,23190
1199.76,1.322186,497347,23685
1203.29,1.324773,504311,23874
1206.81,1.327773,511507,24048
1210.33,1.322729,519078,24689
1213.84,1.325432,527163,24918
1217.35,1.327431,534208,25135
1220.85,1.326012,540472,25513
1225.51,1.327628,549929,25863
1229.01,1.331798,556888,25940
1232.5,1.323559,562180,26688
1235.98,1.326097,567975,26806
1239.46,1.323700,574815,27279
1242.94,1.330825,582782,27207
1246.41,1.327986,591476,27794
1251.03,1.327409,604016,28421
1254.5,1.324828,612289,28982
1257.96,1.325163,619125,29283
1261.41,1.333185,624551,28999
1264.86,1.334008,629900,29192
1268.31,1.328095,634345,29801
1271.75,1.328945,638574,29941
1276.33,1.330303,642499,30031
1279.76,1.326154,645905,30480
1283.19,1.327182,648307,30521
1286.61,1.332701,650446,30235
1290.03,1.332349,652132,30338
1293.44,1.329738,653907,30604
1296.85,1.338500,655963,30087
1301.39,1.336970,657349,30257
1304.8,1.329553,657558,30788
1308.19,1.328537,658515,30905
1311.58,1.329557,658804,30846
1314.97,1.331415,659011,30724
1318.36,1.333977,658272,30509
1321.73,1.332221,658022,30621
1326.23,1.337027,657870,30277
1329.6,1.333194,656482,30481
1332.97,1.332633,654926,30448
1336.33,1.337841,653727,30030
1339.69,1.327214,652497,30716
1343.04,1.332776,649913,30205
1346.39,1.338466,647671,29709
1349.73,1.332275,645338,30027
1354.18,1.333475,641175,29751
1357.52,1.330380,638376,29833
1360.85,1.324974,635805,30085
1364.17,1.332911,633413,29429
1367.49,1.330004,631026,29515
1370.81,1.331631,628050,29266
1374.12,1.333461,625034,29003
1378.54,1.334564,620272,28709
1381.84,1.327661,616892,29010
1385.14,1.331483,613613,28603
1388.43,1.331281,611526,28519
1391.72,1.329056,610663,28625
1395.01,1.328687,610634,28648
1398.29,1.329414,611700,28650
1402.66,1.333542,614051,28488
1405.93,1.332281,616268,28674
1409.2,1.336686,617795,28455
1412.46,1.325980,618872,29216
1415.72,1.331801,619795,28870
1418.98,1.336828,620495,28570
1422.23,1.326003,621087,29319
1426.56,1.339287,621375,28449
1429.8,1.336216,621616,28662
1433.04,1.338472,622129,28537
1436.27,1.332321,621526,28916
1439.5,1.340955,621113,28328
1442.72,1.327520,620921,29209
1445.94,1.334593,620270,28707
1450.23,1.332200,618860,28800
1453.44,1.333772,617697,28642
1456.64,1.340504,616264,28136
1459.85,1.337258,614413,28262
1463.04,1.330118,612307,28632
1466.24,1.340933,610032,27824
1469.43,1.340172,607345,27750
1473.67,1.341442,603789,27507
1476.85,1.338737,601175,27559
1480.02,1.342357,597737,27174
1483.19,1.338913,594479,27241
1486.36,1.341102,591232,26956
1489.52,1.340923,587853,26813
1492.68,1.339613,583875,26712
1496.89,1.337142,578062,26597
1500.03,1.336623,574159,26449
1503.18,1.343867,570285,25836
1506.32,1.342034,565444,25725
1509.45,1.335364,560571,25898
1512.58,1.335137,555821,25692
1515.71,1.340355,550344,25135
1519.87,1.345994,543983,24524
1522.99,1.337473,538764,24770
1526.1,1.344679,533692,24133
1529.21,1.338290,527902,24225
1532.32,1.332488,521886,24271
1535.42,1.344846,515888,23319
1538.51,1.335919,509987,23531
1541.6,1.341990,503936,22929
1545.72,1.335146,494694,22866
1548.8,1.339362,488378,22356
1551.88,1.337816,481832,22135
1554.95,1.341466,474989,21638
1558.02,1.341820,467818,21294
1561.08,1.333927,460730,21356
1564.15,1.338529,454170,20830
1568.22,1.334727,444181,20551
1571.27,1.335637,436947,20174
1574.32,1.333969,429598,19911
1577.36,1.338223,422039,19370
1580.4,1.334432,414375,19185
1583.43,1.336529,406354,18723
1586.46,1.339662,398475,18228
1590.49,1.327360,388982,18305
1593.51,1.332840,380708,17691
1596.53,1.330842,372727,17400
1599.54,1.332094,365060,16993
1602.55,1.332985,357543,16609
1605.55,1.335645,349495,16136
1608.55,1.328505,341154,16012
1612.54,1.333926,330877,15337
1615.53,1.321891,322904,15388
1618.51,1.319522,315116,15099
1621.49,1.324135,307217,14565
1624.47,1.331111,299481,13972
1627.44,1.321723,292112,13926
1630.41,1.328667,284245,13336
1634.36,1.330666,274079,12800
1637.32,1.320830,266916,12751
1640.27,1.322025,259612,12368
1643.22,1.338218,251804,11557
1646.16,1.314914,244348,11833
1649.1,1.314489,236703,11474
1652.04,1.311999,228171,11124
1655.95,1.305464,215408,10661
1658.88,1.318714,204937,9838
1661.8,1.306715,193395,9544
1664.72,1.283572,179728,9355
1667.63,1.284425,163642,8501
1670.54,1.290856,146312,7489
1673.44,1.297095,128451,6481
1677.31,1.275977,105080,5566
1680.21,1.289110,88906,4569
1683.1,1.232491,75033,4393
1685.99,1.263458,63520,3463
1688.87,1.249362,53714,3025
1691.75,1.267124,45653,2468
1694.62,1.305907,39137,1935
1697.49,1.243276,33776,1929
1701.31,1.327320,28175,1326

File: Column 1_078138_20241121_164720.csv
Method:,Column 1,,
Host Date-Time:,21/11/24 @ 16:47:20,,
Header Version:,1,,
System Temp (C):,33.13,,
Detector Temp (C):,28.87,,
Humidity (%):,3.42,,
Lamp PD:,3806,,
Shift Vector Coefficients:,-10.5391,0.0761263,-0.000134223,,
Pixel to Wavelength Coefficients:,1775.68,-0.916766,-0.000235065,,
Serial Number:,5510004,,
Scan Config Name:,Column 1,,
Scan Config Type:,Slew,,
Section 1,,
Start wavelength (nm):,900,,
End wavelength (nm):,1700,,
Pattern Pixel Width (nm):,   7.03,,,,
Exposure (ms):,  0.635,,,,
Digital Resolution:,228,,
Num Repeats:,6,,
PGA Gain:,64,,
Total Measurement Time in sec:,  2.702,,
Wavelength (nm),Absorbance (AU),Reference Signal (unitless),Sample Signal (unitless)
901.51,1.303137,108485,5398
905.376,1.321804,121306,5782
909.237,1.310042,131909,6460
913.095,1.320553,143299,6850
916.948,1.322995,156982,7462
922.079,1.342367,179937,8180
925.923,1.319174,200504,9615
929.762,1.310415,222660,10895
933.597,1.324214,244426,11586
937.427,1.303790,263972,13115
941.254,1.326289,281845,13296
945.076,1.314639,297271,14405
950.165,1.319650,315605,15118
953.978,1.316953,328029,15811
957.786,1.314016,340470,16522
961.59,1.310371,352317,17241
965.389,1.314288,363056,17607
969.185,1.314411,373162,18092
972.976,1.310499,382632,18719
976.763,1.301855,391202,19523
981.806,1.317407,400190,19269
985.583,1.324912,406088,19218
989.355,1.310711,410162,20056
993.124,1.320002,412868,19761
996.888,1.308733,414263,20349
1000.65,1.314443,415476,20142
1004.4,1.321511,415479,19817
1009.41,1.310265,414358,20282
1013.15,1.325567,412923,19512
1016.89,1.318742,411526,19754
1020.63,1.312068,409066,19940
1024.36,1.314273,406777,19728
1028.09,1.318010,404427,19446
1031.82,1.312939,401911,19552
1036.78,1.313290,398410,19366
1040.49,1.323715,396204,18802
1044.2,1.314450,394236,19112
1047.91,1.313574,392042,19044
1051.61,1.313189,389823,18953
1055.31,1.306041,388234,19189
1059,1.321375,387599,18493
1063.92,1.319251,386688,18540
1067.61,1.315790,386598,18684
1071.29,1.320798,387377,18507
1074.96,1.329097,388536,18211
1078.63,1.319433,389855,18684
1082.3,1.318651,391215,18783
1085.96,1.311781,393215,19180
1090.84,1.323118,396270,18831
1094.49,1.321821,398760,19006
1098.14,1.318181,400987,19273
1101.79,1.324263,403477,19123
1105.43,1.321834,406116,19356
1109.06,1.324672,407701,19305
1112.7,1.320002,409859,19617
1117.53,1.324560,412494,19537
1121.15,1.319536,414909,19880
1124.77,1.320017,416559,19937
1128.38,1.331850,418532,19493
1131.99,1.321978,419956,20009
1135.6,1.319476,421946,20220
1139.2,1.328500,423881,19895
1143.99,1.333348,426786,19809
1147.58,1.319575,428617,20535
1151.17,1.326147,431169,20347
1154.75,1.321056,433579,20702
1158.33,1.319728,436264,20894
1161.91,1.325493,439132,20754
1165.48,1.319571,442389,21195
1169.04,1.327938,446101,20965
1173.79,1.327568,451929,21257
1177.34,1.318070,456026,21924
1180.9,1.325652,461306,21794
1184.44,1.328394,467657,21955
1187.99,1.326531,473969,22347
1191.52,1.325640,479856,22671
1195.06,1.324249,487372,23100
1199.76,1.322590,497347,23663
1203.29,1.321367,504311,24062
1206.81,1.329764,511507,23938
1210.33,1.332387,519078,24146
1213.84,1.324822,527163,24953
1217.35,1.322518,534208,25421
1220.85,1.323364,540472,25669
1225.51,1.328081,549929,25836
1229.01,1.330544,556888,26015
1232.5,1.327893,562180,26423
1235.98,1.321312,567975,27103
1239.46,1.328341,574815,26989
1242.94,1.321477,582782,27799
1246.41,1.333347,591476,27453
1251.03,1.325427,604016,28551
1254.5,1.325878,612289,28912
1257.96,1.334927,619125,28632
1261.41,1.331049,624551,29142
1264.86,1.330201,629900,29449
1268.31,1.330828,634345,29614
1271.75,1.330049,638574,29865
1276.33,1.331461,642499,29951
1279.76,1.331501,645905,30107
1283.19,1.332177,648307,30172
1286.61,1.331726,650446,30303
1290.03,1.335293,652132,30133
1293.44,1.336445,653907,30135
1296.85,1.335838,655963,30272
1301.39,1.339446,657349,30085
1304.8,1.334347,657558,30450
1308.19,1.335721,658515,30398
1311.58,1.337572,658804,30282
1314.97,1.329075,659011,30890
1318.36,1.336891,658272,30305
1321.73,1.331527,658022,30670
1326.23,1.338104,657870,30202
1329.6,1.343356,656482,29776
1332.97,1.332790,654926,30437
1336.33,1.330286,653727,30557
1339.69,1.333954,652497,30243
1343.04,1.336096,649913,29975
1346.39,1.327682,647671,30456
1349.73,1.335935,645338,29775
1354.18,1.336302,641175,29558
1357.52,1.337602,638376,29341
1360.85,1.334121,635805,29458
1364.17,1.338287,633413,29067
1367.49,1.329504,631026,29549
1370.81,1.325413,628050,29688
1374.12,1.335637,625034,28858
1378.54,1.334307,620272,28726
1381.84,1.329386,616892,28895
1385.14,1.334790,613613,28386
1388.43,1.324751,611526,28951
1391.72,1.330363,610663,28539
1395.01,1.335439,610634,28206
1398.29,1.333465,611700,28384
1402.66,1.336986,614051,28263
1405.93,1.328496,616268,28925
1409.2,1.329361,617795,28939
1412.46,1.333447,618872,28718
1415.72,1.332449,619795,28827
1418.98,1.344480,620495,28071
1422.23,1.335649,621087,28675
1426.56,1.331510,621375,28963
1429.8,1.331319,621616,28987
1433.04,1.332697,622129,28919
1436.27,1.337245,621526,28590
1439.5,1.336865,621113,28596
1442.72,1.338298,620921,28493
1445.94,1.336625,620270,28573
1450.23,1.338549,618860,28382
1453.44,1.342208,617697,28091
1456.64,1.339857,616264,28178
1459.85,1.338257,614413,28197
1463.04,1.340122,612307,27980
1466.24,1.333290,610032,28318
1469.43,1.335518,607345,28049
1473.67,1.336684,603789,27810
1476.85,1.346625,601175,27063
1480.02,1.343525,597737,27101
1483.19,1.337243,594479,27346
1486.36,1.345849,591232,26663
1489.52,1.338936,587853,26936
1492.68,1.346827,583875,26272
1496.89,1.346684,578062,26019
1500.03,1.340433,574159,26218
1503.18,1.338438,570285,26161
1506.32,1.340972,565444,25788
1509.45,1.344550,560571,25356
1512.58,1.346717,555821,25016
1515.71,1.343059,550344,24979
1519.87,1.340591,543983,24831
1522.99,1.341117,538764,24563
1526.1,1.344230,533692,24158
1529.21,1.343665,527902,23927
1532.32,1.339541,521886,23880
1535.42,1.341303,515888,23510
1538.51,1.347155,509987,22930
1541.6,1.338914,503936,23092
1545.72,1.345837,494694,22310
1548.8,1.334168,488378,22625
1551.88,1.337698,481832,22141
1554.95,1.335209,474989,21952
1558.02,1.342330,467818,21269
1561.08,1.342989,460730,20915
1564.15,1.342004,454170,20664
1568.22,1.336845,444181,20451
1571.27,1.343522,436947,19811
1574.32,1.344657,429598,19427
1577.36,1.346439,422039,19007
1580.4,1.337932,414375,19031
1583.43,1.336970,406354,18704
1586.46,1.335630,398475,18398
1590.49,1.334006,388982,18027
1593.51,1.330514,380708,17786
1596.53,1.335913,372727,17198
1599.54,1.333323,365060,16945
1602.55,1.337664,357543,16431
1605.55,1.332882,349495,16239
1608.55,1.330271,341154,15947
1612.54,1.336881,330877,15233
1615.53,1.328862,322904,15143
1618.51,1.331597,315116,14685
1621.49,1.335065,307217,14203
1624.47,1.336711,299481,13793
1627.44,1.325324,292112,13811
1630.41,1.333580,284245,13186
1634.36,1.322665,274079,13038
1637.32,1.332638,266916,12409
1640.27,1.324420,259612,12300
1643.22,1.326173,251804,11882
1646.16,1.333971,244348,11325
1649.1,1.313091,236703,11511
1652.04,1.319124,228171,10943
1655.95,1.325471,215408,10181
1658.88,1.306654,204937,10115
1661.8,1.308310,193395,9509
1664.72,1.311765,179728,8767
1667.63,1.310642,163642,8003
1670.54,1.321611,146312,6977
1673.44,1.273554,128451,6842
1677.31,1.284487,105080,5458
1680.21,1.317589,88906,4279
1683.1,1.325146,75033,3549
1685.99,1.322904,63520,3020
1688.87,1.267689,53714,2900
1691.75,1.183218,45653,2994
1694.62,1.339977,39137,1789
1697.49,1.339680,33776,1545
1701.31,1.218904,28175,1702