Folder: textile_sorting_NIRSCAN_/ML/samples/unknown (part 88)

File: Column 1_078618_20241121_171134.csv
Method:,Column 1,,
Host Date-Time:,21/11/24 @ 17:11:34,,
Header Version:,1,,
System Temp (C):,36.49,,
Detector Temp (C):,35.15,,
Humidity (%):,0.58,,
Lamp PD:,3798,,
Shift Vector Coefficients:,-10.5391,0.0761263,-0.000134223,,
Pixel to Wavelength Coefficients:,1775.68,-0.916766,-0.000235065,,
Serial Number:,5510004,,
Scan Config Name:,Column 1,,
Scan Config Type:,Slew,,
Section 1,,
Start wavelength (nm):,900,,
End wavelength (nm):,1700,,
Pattern Pixel Width (nm):,   7.03,,,,
Exposure (ms):,  0.635,,,,
Digital Resolution:,228,,
Num Repeats:,6,,
PGA Gain:,64,,
Total Measurement Time in sec:,  2.727,,
Wavelength (nm),Absorbance (AU),Reference Signal (unitless),Sample Signal (unitless)
901.51,1.318365,108485,5212
905.376,1.324063,121306,5752
909.237,1.303702,131909,6555
913.095,1.339803,143299,6553
916.948,1.312416,156982,7646
922.079,1.327647,179937,8462
925.923,1.321483,200504,9564
929.762,1.341048,222660,10153
933.597,1.324064,244426,11590
937.427,1.327017,263972,12432
941.254,1.317079,281845,13581
945.076,1.321293,297271,14186
950.165,1.324561,315605,14948
953.978,1.309518,328029,16084
957.786,1.315728,340470,16457
961.59,1.305462,352317,17437
965.389,1.313204,363056,17651
969.185,1.307883,373162,18366
972.976,1.312662,382632,18626
976.763,1.310800,391202,19125
981.806,1.304506,400190,19850
985.583,1.305943,406088,20076
989.355,1.305780,410162,20285
993.124,1.314000,412868,20036
996.888,1.304781,414263,20535
1000.65,1.312786,415476,20219
1004.4,1.294452,415479,21091
1009.41,1.307341,414358,20419
1013.15,1.301791,412923,20610
1016.89,1.303704,411526,20450
1020.63,1.311502,409066,19966
1024.36,1.307914,406777,20019
1028.09,1.307507,404427,19922
1031.82,1.306588,401911,19840
1036.78,1.311567,398410,19443
1040.49,1.307172,396204,19532
1044.2,1.304210,394236,19568
1047.91,1.304592,392042,19442
1051.61,1.305513,389823,19291
1055.31,1.312058,388234,18925
1059,1.314017,387599,18809
1063.92,1.307397,386688,19053
1067.61,1.314281,386598,18749
1071.29,1.307601,387377,19078
1074.96,1.321743,388536,18522
1078.63,1.307014,389855,19226
1082.3,1.300581,391215,19581
1085.96,1.315785,393215,19004
1090.84,1.312997,396270,19275
1094.49,1.306025,398760,19710
1098.14,1.307717,400987,19743
1101.79,1.314317,403477,19566
1105.43,1.315929,406116,19621
1109.06,1.314753,407701,19751
1112.7,1.313912,409859,19894
1117.53,1.318204,412494,19825
1121.15,1.314692,414909,20103
1124.77,1.318212,416559,20020
1128.38,1.318079,418532,20121
1131.99,1.312044,419956,20472
1135.6,1.301716,421946,21064
1139.2,1.317742,423881,20394
1143.99,1.316364,426786,20599
1147.58,1.313756,428617,20812
1151.17,1.318677,431169,20700
1154.75,1.321455,433579,20683
1158.33,1.315529,436264,21097
1161.91,1.307438,439132,21635
1165.48,1.314580,442389,21440
1169.04,1.308018,446101,21949
1173.79,1.309187,451929,22176
1177.34,1.308683,456026,22403
1180.9,1.315373,461306,22316
1184.44,1.316974,467657,22540
1187.99,1.313041,473969,23052
1191.52,1.317706,479856,23089
1195.06,1.320542,487372,23298
1199.76,1.311858,497347,24255
1203.29,1.324210,504311,23905
1206.81,1.319172,511507,24529
1210.33,1.323962,519078,24619
1213.84,1.321528,527163,25143
1217.35,1.317963,534208,25689
1220.85,1.321053,540472,25806
1225.51,1.320830,549929,26271
1229.01,1.320658,556888,26614
1232.5,1.323364,562180,26700
1235.98,1.322098,567975,27054
1239.46,1.319470,574815,27546
1242.94,1.319653,582782,27916
1246.41,1.321919,591476,28185
1251.03,1.322516,604016,28743
1254.5,1.320578,612289,29267
1257.96,1.325178,619125,29282
1261.41,1.326645,624551,29439
1264.86,1.327247,629900,29650
1268.31,1.328342,634345,29784
1271.75,1.322381,638574,30397
1276.33,1.321896,642499,30618
1279.76,1.325328,645905,30538
1283.19,1.322385,648307,30860
1286.61,1.320646,650446,31086
1290.03,1.328572,652132,30603
1293.44,1.324098,653907,31004
1296.85,1.329246,655963,30735
1301.39,1.330842,657349,30687
1304.8,1.332085,657558,30609
1308.19,1.329015,658515,30871
1311.58,1.325954,658804,31103
1314.97,1.333143,659011,30602
1318.36,1.331706,658272,30669
1321.73,1.327229,658022,30975
1326.23,1.328407,657870,30884
1329.6,1.330268,656482,30687
1332.97,1.332719,654926,30442
1336.33,1.330428,653727,30547
1339.69,1.337081,652497,30026
1343.04,1.335011,649913,30050
1346.39,1.331808,647671,30168
1349.73,1.325587,645338,30493
1354.18,1.325419,641175,30308
1357.52,1.325573,638376,30165
1360.85,1.323777,635805,30168
1364.17,1.327179,633413,29820
1367.49,1.325394,631026,29830
1370.81,1.325955,628050,29651
1374.12,1.331146,625034,29158
1378.54,1.323011,620272,29483
1381.84,1.325437,616892,29159
1385.14,1.319488,613613,29404
1388.43,1.316578,611526,29501
1391.72,1.320969,610663,29163
1395.01,1.322336,610634,29070
1398.29,1.327553,611700,28773
1402.66,1.324461,614051,29090
1405.93,1.323926,616268,29231
1409.2,1.329646,617795,28920
1412.46,1.323593,618872,29377
1415.72,1.328908,619795,29063
1418.98,1.333090,620495,28817
1422.23,1.330126,621087,29042
1426.56,1.337337,621375,28577
1429.8,1.331979,621616,28943
1433.04,1.327933,622129,29238
1436.27,1.331211,621526,28990
1439.5,1.332950,621113,28855
1442.72,1.332469,620921,28878
1445.94,1.331127,620270,28937
1450.23,1.327416,618860,29119
1453.44,1.332047,617697,28756
1456.64,1.332248,616264,28676
1459.85,1.328119,614413,28863
1463.04,1.329769,612307,28655
1466.24,1.333720,610032,28290
1469.43,1.336355,607345,27995
1473.67,1.334332,603789,27961
1476.85,1.331331,601175,28033
1480.02,1.337241,597737,27496
1483.19,1.336180,594479,27413
1486.36,1.339334,591232,27066
1489.52,1.335403,587853,27156
1492.68,1.338023,583875,26810
1496.89,1.327997,578062,27163
1500.03,1.332179,574159,26721
1503.18,1.335245,570285,26354
1506.32,1.334238,565444,26191
1509.45,1.332656,560571,26060
1512.58,1.336525,555821,25610
1515.71,1.329857,550344,25750
1519.87,1.337802,543983,24991
1522.99,1.327164,538764,25365
1526.1,1.330830,533692,24915
1529.21,1.334950,527902,24412
1532.32,1.333689,521886,24204
1535.42,1.330178,515888,24120
1538.51,1.335181,509987,23571
1541.6,1.330053,503936,23568
1545.72,1.334236,494694,22914
1548.8,1.335071,488378,22578
1551.88,1.327502,481832,22667
1554.95,1.340424,474989,21690
1558.02,1.333157,467818,21723
1561.08,1.332526,460730,21425
1564.15,1.329676,454170,21259
1568.22,1.329267,444181,20811
1571.27,1.327406,436947,20560
1574.32,1.326530,429598,20255
1577.36,1.333873,422039,19565
1580.4,1.330466,414375,19361
1583.43,1.326963,406354,19140
1586.46,1.330375,398475,18622
1590.49,1.330527,388982,18172
1593.51,1.323346,380708,18082
1596.53,1.322315,372727,17745
1599.54,1.326735,365060,17204
1602.55,1.327451,357543,16822
1605.55,1.315863,349495,16888
1608.55,1.321216,341154,16283
1612.54,1.332993,330877,15370
1615.53,1.322004,322904,15384
1618.51,1.319120,315116,15113
1621.49,1.322795,307217,14610
1624.47,1.318188,299481,14394
1627.44,1.322785,292112,13892
1630.41,1.310428,284245,13908
1634.36,1.320306,274079,13109
1637.32,1.317336,266916,12854
1640.27,1.310829,259612,12691
1643.22,1.309783,251804,12339
1646.16,1.312462,244348,11900
1649.1,1.300009,236703,11863
1652.04,1.311492,228171,11137
1655.95,1.299115,215408,10818
1658.88,1.303233,204937,10195
1661.8,1.291029,193395,9895
1664.72,1.288568,179728,9248
1667.63,1.257534,163642,9044
1670.54,1.231641,146312,8583
1673.44,1.204455,128451,8022
1677.31,1.184121,105080,6877
1680.21,1.168038,88906,6038
1683.1,1.177500,75033,4986
1685.99,1.155528,63520,4440
1688.87,1.157100,53714,3741
1691.75,1.159370,45653,3163
1694.62,1.073547,39137,3304
1697.49,1.209919,33776,2083
1701.31,1.223522,28175,1684

File: Column 1_078619_20241121_171137.csv
Method:,Column 1,,
Host Date-Time:,21/11/24 @ 17:11:37,,
Header Version:,1,,
System Temp (C):,36.56,,
Detector Temp (C):,35.12,,
Humidity (%):,0.58,,
Lamp PD:,3798,,
Shift Vector Coefficients:,-10.5391,0.0761263,-0.000134223,,
Pixel to Wavelength Coefficients:,1775.68,-0.916766,-0.000235065,,
Serial Number:,5510004,,
Scan Config Name:,Column 1,,
Scan Config Type:,Slew,,
Section 1,,
Start wavelength (nm):,900,,
End wavelength (nm):,1700,,
Pattern Pixel Width (nm):,   7.03,,,,
Exposure (ms):,  0.635,,,,
Digital Resolution:,228,,
Num Repeats:,6,,
PGA Gain:,64,,
Total Measurement Time in sec:,  2.726,,
Wavelength (nm),Absorbance (AU),Reference Signal (unitless),Sample Signal (unitless)
901.51,1.286484,108485,5609
905.376,1.328465,121306,5694
909.237,1.328163,131909,6196
913.095,1.295606,143299,7255
916.948,1.301755,156982,7836
922.079,1.318908,179937,8634
925.923,1.308643,200504,9851
929.762,1.309499,222660,10918
933.597,1.316376,244426,11797
937.427,1.309489,263972,12944
941.254,1.323911,281845,13369
945.076,1.303537,297271,14778
950.165,1.309682,315605,15469
953.978,1.310032,328029,16065
957.786,1.302525,340470,16965
961.59,1.307834,352317,17342
965.389,1.302175,363056,18105
969.185,1.301149,373162,18653
972.976,1.310012,382632,18740
976.763,1.302991,391202,19472
981.806,1.314509,400190,19398
985.583,1.306311,406088,20059
989.355,1.302517,410162,20438
993.124,1.303507,412868,20526
996.888,1.304570,414263,20545
1000.65,1.304405,415476,20613
1004.4,1.300381,415479,20805
1009.41,1.301196,414358,20710
1013.15,1.304115,412923,20500
1016.89,1.311180,411526,20101
1020.63,1.299553,409066,20523
1024.36,1.300195,406777,20378
1028.09,1.310943,404427,19765
1031.82,1.304318,401911,19944
1036.78,1.300257,398410,19956
1040.49,1.303386,396204,19703
1044.2,1.310717,394236,19277
1047.91,1.302297,392042,19545
1051.61,1.304905,389823,19318
1055.31,1.312425,388234,18909
1059,1.308921,387599,19031
1063.92,1.307169,386688,19063
1067.61,1.306818,386598,19074
1071.29,1.301700,387377,19339
1074.96,1.308261,388536,19106
1078.63,1.305841,389855,19278
1082.3,1.303116,391215,19467
1085.96,1.307635,393215,19364
1090.84,1.312254,396270,19308
1094.49,1.311056,398760,19483
1098.14,1.305917,400987,19825
1101.79,1.311794,403477,19680
1105.43,1.306882,406116,20034
1109.06,1.316559,407701,19669
1112.7,1.317441,409859,19733
1117.53,1.314627,412494,19989
1121.15,1.321529,414909,19789
1124.77,1.308898,416559,20454
1128.38,1.314939,418532,20267
1131.99,1.308010,419956,20663
1135.6,1.311917,421946,20575
1139.2,1.318125,423881,20376
1143.99,1.315122,426786,20658
1147.58,1.310140,428617,20986
1151.17,1.318467,431169,20710
1154.75,1.313899,433579,21046
1158.33,1.316147,436264,21067
1161.91,1.312852,439132,21367
1165.48,1.311532,442389,21591
1169.04,1.309803,446101,21859
1173.79,1.314131,451929,21925
1177.34,1.315443,456026,22057
1180.9,1.308959,461306,22648
1184.44,1.317031,467657,22537
1187.99,1.306980,473969,23376
1191.52,1.311061,479856,23445
1195.06,1.315575,487372,23566
1199.76,1.319408,497347,23837
1203.29,1.314224,504311,24461
1206.81,1.315066,511507,24762
1210.33,1.310211,519078,25411
1213.84,1.313824,527163,25593
1217.35,1.315536,534208,25833
1220.85,1.324754,540472,25587
1225.51,1.322519,549929,26169
1229.01,1.318395,556888,26753
1232.5,1.318978,562180,26971
1235.98,1.320479,567975,27155
1239.46,1.319722,574815,27530
1242.94,1.310783,582782,28492
1246.41,1.318176,591476,28429
1251.03,1.317126,604016,29102
1254.5,1.321544,612289,29202
1257.96,1.313992,619125,30046
1261.41,1.319693,624551,29914
1264.86,1.315827,629900,30440
1268.31,1.321041,634345,30289
1271.75,1.320413,638574,30535
1276.33,1.323914,642499,30476
1279.76,1.326453,645905,30459
1283.19,1.326173,648307,30592
1286.61,1.323872,650446,30856
1290.03,1.324461,652132,30894
1293.44,1.322770,653907,31099
1296.85,1.326780,655963,30910
1301.39,1.324840,657349,31114
1304.8,1.325495,657558,31077
1308.19,1.331201,658515,30716
1311.58,1.326289,658804,31079
1314.97,1.326537,659011,31071
1318.36,1.329714,658272,30810
1321.73,1.323947,658022,31210
1326.23,1.324975,657870,31129
1329.6,1.328249,656482,30830
1332.97,1.326234,654926,30900
1336.33,1.329093,653727,30641
1339.69,1.325154,652497,30862
1343.04,1.322658,649913,30917
1346.39,1.323976,647671,30717
1349.73,1.324691,645338,30556
1354.18,1.321411,641175,30589
1357.52,1.319838,638376,30566
1360.85,1.324772,635805,30099
1364.17,1.316207,633413,30583
1367.49,1.322796,631026,30009
1370.81,1.323763,628050,29801
1374.12,1.325038,625034,29571
1378.54,1.320440,620272,29658
1381.84,1.324633,616892,29213
1385.14,1.323733,613613,29118
1388.43,1.320750,611526,29219
1391.72,1.322581,610663,29055
1395.01,1.326283,610634,28807
1398.29,1.323676,611700,29031
1402.66,1.328721,614051,28806
1405.93,1.334072,616268,28556
1409.2,1.329916,617795,28902
1412.46,1.327693,618872,29101
1415.72,1.328952,619795,29060
1418.98,1.325767,620495,29307
1422.23,1.328395,621087,29158
1426.56,1.333675,621375,28819
1429.8,1.332369,621616,28917
1433.04,1.329301,622129,29146
1436.27,1.330582,621526,29032
1439.5,1.323820,621113,29468
1442.72,1.331628,620921,28934
1445.94,1.328479,620270,29114
1450.23,1.328297,618860,29060
1453.44,1.329352,617697,28935
1456.64,1.334617,616264,28520
1459.85,1.329400,614413,28778
1463.04,1.331820,612307,28520
1466.24,1.327365,610032,28707
1469.43,1.328987,607345,28474
1473.67,1.332596,603789,28073
1476.85,1.325407,601175,28418
1480.02,1.329042,597737,28020
1483.19,1.328299,594479,27915
1486.36,1.335866,591232,27283
1489.52,1.327982,587853,27624
1492.68,1.332102,583875,27178
1496.89,1.329759,578062,27053
1500.03,1.332066,574159,26728
1503.18,1.328460,570285,26769
1506.32,1.327916,565444,26575
1509.45,1.332590,560571,26064
1512.58,1.333315,555821,25800
1515.71,1.329503,550344,25771
1519.87,1.329011,543983,25502
1522.99,1.324586,538764,25516
1526.1,1.332629,533692,24812
1529.21,1.327804,527902,24817
1532.32,1.329172,521886,24457
1535.42,1.336435,515888,23775
1538.51,1.328598,509987,23931
1541.6,1.321911,503936,24014
1545.72,1.335507,494694,22847
1548.8,1.331603,488378,22759
1551.88,1.330906,481832,22490
1554.95,1.332999,474989,22064
1558.02,1.332618,467818,21750
1561.08,1.329053,460730,21597
1564.15,1.333801,454170,21058
1568.22,1.333229,444181,20622
1571.27,1.323369,436947,20752
1574.32,1.337583,429598,19746
1577.36,1.324888,422039,19974
1580.4,1.333234,414375,19238
1583.43,1.319405,406354,19476
1586.46,1.328931,398475,18684
1590.49,1.326364,388982,18347
1593.51,1.327375,380708,17915
1596.53,1.322952,372727,17719
1599.54,1.326382,365060,17218
1602.55,1.329962,357543,16725
1605.55,1.326695,349495,16472
1608.55,1.320869,341154,16296
1612.54,1.333049,330877,15368
1615.53,1.304872,322904,16003
1618.51,1.322003,315116,15013
1621.49,1.311238,307217,15004
1624.47,1.303737,299481,14881
1627.44,1.318523,292112,14029
1630.41,1.299421,284245,14265
1634.36,1.310512,274079,13408
1637.32,1.312031,266916,13012
1640.27,1.312509,259612,12642
1643.22,1.309818,251804,12338
1646.16,1.310568,244348,11952
1649.1,1.303612,236703,11765
1652.04,1.299303,228171,11454
1655.95,1.309023,215408,10574
1658.88,1.282237,204937,10700
1661.8,1.284063,193395,10055
1664.72,1.262902,179728,9811
1667.63,1.250438,163642,9193
1670.54,1.227562,146312,8664
1673.44,1.214366,128451,7841
1677.31,1.189458,105080,6793
1680.21,1.127221,88906,6633
1683.1,1.131743,75033,5540
1685.99,1.127315,63520,4738
1688.87,1.107770,53714,4191
1691.75,1.121524,45653,3451
1694.62,1.126016,39137,2928
1697.49,1.273819,33776,1798
1701.31,1.217376,28175,1708

File: Column 1_078623_20241121_171149.csv
Method:,Column 1,,
Host Date-Time:,21/11/24 @ 17:11:49,,
Header Version:,1,,
System Temp (C):,36.69,,
Detector Temp (C):,35.12,,
Humidity (%):,0.68,,
Lamp PD:,3798,,
Shift Vector Coefficients:,-10.5391,0.0761263,-0.000134223,,
Pixel to Wavelength Coefficients:,1775.68,-0.916766,-0.000235065,,
Serial Number:,5510004,,
Scan Config Name:,Column 1,,
Scan Config Type:,Slew,,
Section 1,,
Start wavelength (nm):,900,,
End wavelength (nm):,1700,,
Pattern Pixel Width (nm):,   7.03,,,,
Exposure (ms):,  0.635,,,,
Digital Resolution:,228,,
Num Repeats:,6,,
PGA Gain:,64,,
Total Measurement Time in sec:,  2.723,,
Wavelength (nm),Absorbance (AU),Reference Signal (unitless),Sample Signal (unitless)
901.51,1.343669,108485,4917
905.376,1.279266,121306,6377
909.237,1.323839,131909,6258
913.095,1.323479,143299,6804
916.948,1.320152,156982,7511
922.079,1.331359,179937,8390
925.923,1.324399,200504,9500
929.762,1.330609,222660,10400
933.597,1.321188,244426,11667
937.427,1.316184,263972,12746
941.254,1.319323,281845,13511
945.076,1.318881,297271,14265
950.165,1.312527,315605,15368
953.978,1.308251,328029,16131
957.786,1.316626,340470,16423
961.59,1.308135,352317,17330
965.389,1.308189,363056,17856
969.185,1.308403,373162,18344
972.976,1.319145,382632,18350
976.763,1.309303,391202,19191
981.806,1.302345,400190,19949
985.583,1.308525,406088,19957
989.355,1.310192,410162,20080
993.124,1.308165,412868,20307
996.888,1.306010,414263,20477
1000.65,1.305924,415476,20541
1004.4,1.295958,415479,21018
1009.41,1.307746,414358,20400
1013.15,1.305792,412923,20421
1016.89,1.309412,411526,20183
1020.63,1.318232,409066,19659
1024.36,1.303296,406777,20233
1028.09,1.304488,404427,20061
1031.82,1.303904,401911,19963
1036.78,1.301346,398410,19906
1040.49,1.307061,396204,19537
1044.2,1.308425,394236,19379
1047.91,1.306741,392042,19346
1051.61,1.310335,389823,19078
1055.31,1.305724,388234,19203
1059,1.309401,387599,19010
1063.92,1.314406,386688,18748
1067.61,1.302491,386598,19265
1071.29,1.313445,387377,18823
1074.96,1.303941,388536,19297
1078.63,1.316884,389855,18794
1082.3,1.308798,391215,19214
1085.96,1.311465,393215,19194
1090.84,1.315777,396270,19152
1094.49,1.318747,398760,19141
1098.14,1.311118,400987,19589
1101.79,1.316029,403477,19489
1105.43,1.306969,406116,20030
1109.06,1.318840,407701,19566
1112.7,1.315180,409859,19836
1117.53,1.318818,412494,19797
1121.15,1.308813,414909,20377
1124.77,1.312266,416559,20296
1128.38,1.317238,418532,20160
1131.99,1.320721,419956,20067
1135.6,1.308804,421946,20723
1139.2,1.317316,423881,20414
1143.99,1.314471,426786,20689
1147.58,1.315784,428617,20715
1151.17,1.320886,431169,20595
1154.75,1.320658,433579,20721
1158.33,1.311615,436264,21288
1161.91,1.310743,439132,21471
1165.48,1.319120,442389,21217
1169.04,1.310220,446101,21838
1173.79,1.314626,451929,21900
1177.34,1.315463,456026,22056
1180.9,1.314284,461306,22372
1184.44,1.319059,467657,22432
1187.99,1.321430,473969,22611
1191.52,1.315398,479856,23212
1195.06,1.316941,487372,23492
1199.76,1.318298,497347,23898
1203.29,1.319045,504311,24191
1206.81,1.321053,511507,24423
1210.33,1.318023,519078,24958
1213.84,1.315422,527163,25499
1217.35,1.322791,534208,25405
1220.85,1.329172,540472,25328
1225.51,1.315507,549929,26595
1229.01,1.321295,556888,26575
1232.5,1.319655,562180,26929
1235.98,1.322082,567975,27055
1239.46,1.324800,574815,27210
1242.94,1.318845,582782,27968
1246.41,1.319507,591476,28342
1251.03,1.316768,604016,29126
1254.5,1.332661,612289,28464
1257.96,1.320648,619125,29589
1261.41,1.320856,624551,29834
1264.86,1.321572,629900,30040
1268.31,1.323283,634345,30133
1271.75,1.327237,638574,30059
1276.33,1.330129,642499,30043
1279.76,1.327009,645905,30420
1283.19,1.326059,648307,30600
1286.61,1.320493,650446,31097
1290.03,1.324855,652132,30866
1293.44,1.327473,653907,30764
1296.85,1.324538,655963,31070
1301.39,1.334080,657349,30459
1304.8,1.327470,657558,30936
1308.19,1.325847,658515,31097
1311.58,1.331123,658804,30735
1314.97,1.326551,659011,31070
1318.36,1.327394,658272,30975
1321.73,1.326949,658022,30995
1326.23,1.326961,657870,30987
1329.6,1.332126,656482,30556
1332.97,1.330059,654926,30629
1336.33,1.329093,653727,30641
1339.69,1.327907,652497,30667
1343.04,1.326113,649913,30672
1346.39,1.332644,647671,30110
1349.73,1.326542,645338,30426
1354.18,1.327646,641175,30153
1357.52,1.325026,638376,30203
1360.85,1.318554,635805,30533
1364.17,1.324696,633413,29991
1367.49,1.322290,631026,30044
1370.81,1.325794,628050,29662
1374.12,1.326199,625034,29492
1378.54,1.322628,620272,29509
1381.84,1.323668,616892,29278
1385.14,1.326816,613613,28912
1388.43,1.320631,611526,29227
1391.72,1.325280,610663,28875
1395.01,1.324267,610634,28941
1398.29,1.324425,611700,28981
1402.66,1.325402,614051,29027
1405.93,1.325668,616268,29114
1409.2,1.327549,617795,29060
1412.46,1.325119,618872,29274
1415.72,1.331606,619795,28883
1418.98,1.326241,620495,29275
1422.23,1.331444,621087,28954
1426.56,1.327183,621375,29253
1429.8,1.335852,621616,28686
1433.04,1.329406,622129,29139
1436.27,1.332081,621526,28932
1439.5,1.328607,621113,29145
1442.72,1.332845,620921,28853
1445.94,1.329479,620270,29047
1450.23,1.332879,618860,28755
1453.44,1.332168,617697,28748
1456.64,1.332839,616264,28637
1459.85,1.335111,614413,28402
1463.04,1.329981,612307,28641
1466.24,1.336492,610032,28110
1469.43,1.331895,607345,28284
1473.67,1.330297,603789,28222
1476.85,1.336553,601175,27698
1480.02,1.328515,597737,28054
1483.19,1.328003,594479,27934
1486.36,1.334547,591232,27366
1489.52,1.326695,587853,27706
1492.68,1.335310,583875,26978
1496.89,1.335268,578062,26712
1500.03,1.334657,574159,26569
1503.18,1.334916,570285,26374
1506.32,1.331592,565444,26351
1509.45,1.332157,560571,26090
1512.58,1.329044,555821,26055
1515.71,1.333192,550344,25553
1519.87,1.331830,543983,25337
1522.99,1.331708,538764,25101
1526.1,1.331126,533692,24898
1529.21,1.337824,527902,24251
1532.32,1.339359,521886,23890
1535.42,1.332616,515888,23985
1538.51,1.335384,509987,23560
1541.6,1.325087,503936,23839
1545.72,1.331722,494694,23047
1548.8,1.331069,488378,22787
1551.88,1.328557,481832,22612
1554.95,1.326765,474989,22383
1558.02,1.334479,467818,21657
1561.08,1.330503,460730,21525
1564.15,1.332052,454170,21143
1568.22,1.338143,444181,20390
1571.27,1.326772,436947,20590
1574.32,1.330234,429598,20083
1577.36,1.319271,422039,20234
1580.4,1.327025,414375,19515
1583.43,1.330242,406354,18996
1586.46,1.330795,398475,18604
1590.49,1.323627,388982,18463
1593.51,1.325657,380708,17986
1596.53,1.327708,372727,17526
1599.54,1.325047,365060,17271
1602.55,1.323109,357543,16991
1605.55,1.329339,349495,16372
1608.55,1.320071,341154,16326
1612.54,1.320707,330877,15811
1615.53,1.319892,322904,15459
1618.51,1.319292,315116,15107
1621.49,1.330412,307217,14356
1624.47,1.313626,299481,14546
1627.44,1.324759,292112,13829
1630.41,1.316687,284245,13709
1634.36,1.323398,274079,13016
1637.32,1.316391,266916,12882
1640.27,1.308610,259612,12756
1643.22,1.320256,251804,12045
1646.16,1.304650,244348,12116
1649.1,1.308139,236703,11643
1652.04,1.299417,228171,11451
1655.95,1.299155,215408,10817
1658.88,1.310536,204937,10025
1661.8,1.272639,193395,10323
1664.72,1.266637,179728,9727
1667.63,1.253281,163642,9133
1670.54,1.249933,146312,8229
1673.44,1.201487,128451,8077
1677.31,1.191638,105080,6759
1680.21,1.199581,88906,5615
1683.1,1.165643,75033,5124
1685.99,1.147292,63520,4525
1688.87,1.255434,53714,2983
1691.75,1.196772,45653,2902
1694.62,1.198662,39137,2477
1697.49,1.154961,33776,2364
1701.31,1.157386,28175,1961