Folder: textile_sorting_NIRSCAN_/ML/samples/unknown (part 18)

File: Column 1_078122_20241121_164632.csv
Method:,Column 1,,
Host Date-Time:,21/11/24 @ 16:46:32,,
Header Version:,1,,
System Temp (C):,32.78,,
Detector Temp (C):,28.24,,
Humidity (%):,3.81,,
Lamp PD:,3806,,
Shift Vector Coefficients:,-10.5391,0.0761263,-0.000134223,,
Pixel to Wavelength Coefficients:,1775.68,-0.916766,-0.000235065,,
Serial Number:,5510004,,
Scan Config Name:,Column 1,,
Scan Config Type:,Slew,,
Section 1,,
Start wavelength (nm):,900,,
End wavelength (nm):,1700,,
Pattern Pixel Width (nm):,   7.03,,,,
Exposure (ms):,  0.635,,,,
Digital Resolution:,228,,
Num Repeats:,6,,
PGA Gain:,64,,
Total Measurement Time in sec:,  2.725,,
Wavelength (nm),Absorbance (AU),Reference Signal (unitless),Sample Signal (unitless)
901.51,1.298177,108485,5460
905.376,1.315688,121306,5864
909.237,1.299482,131909,6619
913.095,1.320743,143299,6847
916.948,1.307951,156982,7725
922.079,1.311675,179937,8779
925.923,1.328441,200504,9412
929.762,1.310056,222660,10904
933.597,1.313660,244426,11871
937.427,1.313297,263972,12831
941.254,1.312751,281845,13717
945.076,1.310588,297271,14540
950.165,1.316929,315605,15213
953.978,1.310518,328029,16047
957.786,1.320611,340470,16273
961.59,1.305736,352317,17426
965.389,1.317358,363056,17483
969.185,1.309755,373162,18287
972.976,1.303799,382632,19010
976.763,1.312369,391202,19056
981.806,1.310210,400190,19591
985.583,1.312416,406088,19779
989.355,1.322542,410162,19517
993.124,1.311967,412868,20130
996.888,1.314339,414263,20088
1000.65,1.306898,415476,20495
1004.4,1.311867,415479,20262
1009.41,1.318021,414358,19923
1013.15,1.313365,412923,20068
1016.89,1.304746,411526,20401
1020.63,1.305819,409066,20229
1024.36,1.309044,406777,19967
1028.09,1.308927,404427,19857
1031.82,1.315590,401911,19433
1036.78,1.313784,398410,19344
1040.49,1.313714,396204,19240
1044.2,1.307328,394236,19428
1047.91,1.300634,392042,19620
1051.61,1.316987,389823,18788
1055.31,1.313621,388234,18857
1059,1.308761,387599,19038
1063.92,1.318151,386688,18587
1067.61,1.320887,386598,18466
1071.29,1.323269,387377,18402
1074.96,1.323364,388536,18453
1078.63,1.319015,389855,18702
1082.3,1.329537,391215,18318
1085.96,1.311442,393215,19195
1090.84,1.321598,396270,18897
1094.49,1.316123,398760,19257
1098.14,1.322256,400987,19093
1101.79,1.322721,403477,19191
1105.43,1.322710,406116,19317
1109.06,1.320508,407701,19491
1112.7,1.328023,409859,19258
1117.53,1.312308,412494,20096
1121.15,1.314131,414909,20129
1124.77,1.315552,416559,20143
1128.38,1.312780,418532,20368
1131.99,1.319101,419956,20142
1135.6,1.324314,421946,19996
1139.2,1.319299,423881,20321
1143.99,1.326928,426786,20104
1147.58,1.314403,428617,20781
1151.17,1.319328,431169,20669
1154.75,1.316714,433579,20910
1158.33,1.321060,436264,20830
1161.91,1.318931,439132,21070
1165.48,1.323895,442389,20985
1169.04,1.312533,446101,21722
1173.79,1.320375,451929,21612
1177.34,1.317041,456026,21976
1180.9,1.310284,461306,22579
1184.44,1.324044,467657,22176
1187.99,1.312928,473969,23058
1191.52,1.323405,479856,22788
1195.06,1.329031,487372,22847
1199.76,1.323233,497347,23628
1203.29,1.327108,504311,23746
1206.81,1.326889,511507,24097
1210.33,1.327274,519078,24432
1213.84,1.327546,527163,24797
1217.35,1.323715,534208,25351
1220.85,1.322620,540472,25713
1225.51,1.326236,549929,25946
1229.01,1.331346,556888,25967
1232.5,1.327515,562180,26446
1235.98,1.323191,567975,26986
1239.46,1.326495,574815,27104
1242.94,1.326790,582782,27461
1246.41,1.322382,591476,28155
1251.03,1.324045,604016,28642
1254.5,1.325773,612289,28919
1257.96,1.324629,619125,29319
1261.41,1.335543,624551,28842
1264.86,1.324269,629900,29854
1268.31,1.329730,634345,29689
1271.75,1.335242,638574,29510
1276.33,1.329104,642499,30114
1279.76,1.329371,645905,30255
1283.19,1.328679,648307,30416
1286.61,1.331396,650446,30326
1290.03,1.330534,652132,30465
1293.44,1.338062,653907,30023
1296.85,1.327033,655963,30892
1301.39,1.326308,657349,31009
1304.8,1.338071,657558,30190
1308.19,1.331994,658515,30660
1311.58,1.336369,658804,30366
1314.97,1.335177,659011,30459
1318.36,1.334647,658272,30462
1321.73,1.331258,658022,30689
1326.23,1.335138,657870,30409
1329.6,1.331785,656482,30580
1332.97,1.329563,654926,30664
1336.33,1.330769,653727,30523
1339.69,1.334040,652497,30237
1343.04,1.339573,649913,29736
1346.39,1.332254,647671,30137
1349.73,1.332333,645338,30023
1354.18,1.337184,641175,29498
1357.52,1.333184,638376,29641
1360.85,1.326724,635805,29964
1364.17,1.332793,633413,29437
1367.49,1.325846,631026,29799
1370.81,1.331601,628050,29268
1374.12,1.325038,625034,29571
1378.54,1.332181,620272,28867
1381.84,1.328936,616892,28925
1385.14,1.331255,613613,28618
1388.43,1.332501,611526,28439
1391.72,1.329815,610663,28575
1395.01,1.328035,610634,28691
1398.29,1.329641,611700,28635
1402.66,1.333466,614051,28493
1405.93,1.335336,616268,28473
1409.2,1.337755,617795,28385
1412.46,1.335189,618872,28603
1415.72,1.334533,619795,28689
1418.98,1.337376,620495,28534
1422.23,1.335452,621087,28688
1426.56,1.336487,621375,28633
1429.8,1.332504,621616,28908
1433.04,1.338381,622129,28543
1436.27,1.334172,621526,28793
1439.5,1.338143,621113,28512
1442.72,1.337598,620921,28539
1445.94,1.336169,620270,28603
1450.23,1.339024,618860,28351
1453.44,1.340958,617697,28172
1456.64,1.333993,616264,28561
1459.85,1.335371,614413,28385
1463.04,1.337784,612307,28131
1466.24,1.343014,610032,27691
1469.43,1.343093,607345,27564
1473.67,1.341253,603789,27519
1476.85,1.340791,601175,27429
1480.02,1.336404,597737,27549
1483.19,1.339616,594479,27197
1486.36,1.330739,591232,27607
1489.52,1.344632,587853,26585
1492.68,1.340378,583875,26665
1496.89,1.342382,578062,26278
1500.03,1.341810,574159,26135
1503.18,1.342775,570285,25901
1506.32,1.340669,565444,25806
1509.45,1.342159,560571,25496
1512.58,1.339896,555821,25412
1515.71,1.346148,550344,24802
1519.87,1.335825,543983,25105
1522.99,1.350844,538764,24019
1526.1,1.339527,533692,24421
1529.21,1.338487,527902,24214
1532.32,1.339996,521886,23855
1535.42,1.332761,515888,23977
1538.51,1.342446,509987,23180
1541.6,1.343565,503936,22846
1545.72,1.333970,494694,22928
1548.8,1.337153,488378,22470
1551.88,1.335039,481832,22277
1554.95,1.336835,474989,21870
1558.02,1.331362,467818,21813
1561.08,1.338218,460730,21146
1564.15,1.328167,454170,21333
1568.22,1.341586,444181,20229
1571.27,1.340116,436947,19967
1574.32,1.344902,429598,19416
1577.36,1.332609,422039,19622
1580.4,1.335974,414375,19117
1583.43,1.331341,406354,18948
1586.46,1.333699,398475,18480
1590.49,1.331340,388982,18138
1593.51,1.339270,380708,17431
1596.53,1.346263,372727,16793
1599.54,1.334735,365060,16890
1602.55,1.323851,357543,16962
1605.55,1.329605,349495,16362
1608.55,1.329754,341154,15966
1612.54,1.325235,330877,15647
1615.53,1.325064,322904,15276
1618.51,1.337372,315116,14491
1621.49,1.319419,307217,14724
1624.47,1.327551,299481,14087
1627.44,1.332426,292112,13587
1630.41,1.322588,284245,13524
1634.36,1.317598,274079,13191
1637.32,1.322332,266916,12707
1640.27,1.311206,259612,12680
1643.22,1.327161,251804,11855
1646.16,1.320417,244348,11684
1649.1,1.338174,236703,10865
1652.04,1.316749,228171,11003
1655.95,1.302379,215408,10737
1658.88,1.296303,204937,10359
1661.8,1.311887,193395,9431
1664.72,1.297823,179728,9053
1667.63,1.289822,163642,8396
1670.54,1.293299,146312,7447
1673.44,1.312302,128451,6258
1677.31,1.271629,105080,5622
1680.21,1.267057,88906,4807
1683.1,1.273410,75033,3998
1685.99,1.273865,63520,3381
1688.87,1.367982,53714,2302
1691.75,1.332315,45653,2124
1694.62,1.314291,39137,1898
1697.49,1.243051,33776,1930
1701.31,1.309042,28175,1383

File: Column 1_078123_20241121_164635.csv
Method:,Column 1,,
Host Date-Time:,21/11/24 @ 16:46:35,,
Header Version:,1,,
System Temp (C):,32.79,,
Detector Temp (C):,28.32,,
Humidity (%):,3.81,,
Lamp PD:,3806,,
Shift Vector Coefficients:,-10.5391,0.0761263,-0.000134223,,
Pixel to Wavelength Coefficients:,1775.68,-0.916766,-0.000235065,,
Serial Number:,5510004,,
Scan Config Name:,Column 1,,
Scan Config Type:,Slew,,
Section 1,,
Start wavelength (nm):,900,,
End wavelength (nm):,1700,,
Pattern Pixel Width (nm):,   7.03,,,,
Exposure (ms):,  0.635,,,,
Digital Resolution:,228,,
Num Repeats:,6,,
PGA Gain:,64,,
Total Measurement Time in sec:,  2.723,,
Wavelength (nm),Absorbance (AU),Reference Signal (unitless),Sample Signal (unitless)
901.51,1.308724,108485,5329
905.376,1.308272,121306,5965
909.237,1.280796,131909,6910
913.095,1.303215,143299,7129
916.948,1.304201,156982,7792
922.079,1.304853,179937,8918
925.923,1.319309,200504,9612
929.762,1.307832,222660,10960
933.597,1.312199,244426,11911
937.427,1.314653,263972,12791
941.254,1.313068,281845,13707
945.076,1.312324,297271,14482
950.165,1.302885,315605,15713
953.978,1.304872,328029,16257
957.786,1.312259,340470,16589
961.59,1.310800,352317,17224
965.389,1.313869,363056,17624
969.185,1.309993,373162,18277
972.976,1.308901,382632,18788
976.763,1.308490,391202,19227
981.806,1.303653,400190,19889
985.583,1.298501,406088,20423
989.355,1.305952,410162,20277
993.124,1.301438,412868,20624
996.888,1.310380,414263,20272
1000.65,1.300712,415476,20789
1004.4,1.304324,415479,20617
1009.41,1.313403,414358,20136
1013.15,1.313711,412923,20052
1016.89,1.305492,411526,20366
1020.63,1.310373,409066,20018
1024.36,1.317233,406777,19594
1028.09,1.309255,404427,19842
1031.82,1.311298,401911,19626
1036.78,1.302701,398410,19844
1040.49,1.297258,396204,19983
1044.2,1.309974,394236,19310
1047.91,1.314328,392042,19011
1051.61,1.309811,389823,19101
1055.31,1.303356,388234,19308
1059,1.311668,387599,18911
1063.92,1.309660,386688,18954
1067.61,1.306567,386598,19085
1071.29,1.317269,387377,18658
1074.96,1.312120,388536,18937
1078.63,1.310097,389855,19090
1082.3,1.311769,391215,19083
1085.96,1.322347,393215,18719
1090.84,1.314057,396270,19228
1094.49,1.317682,398760,19188
1098.14,1.311251,400987,19583
1101.79,1.319340,403477,19341
1105.43,1.316860,406116,19579
1109.06,1.310747,407701,19934
1112.7,1.319626,409859,19634
1117.53,1.314670,412494,19987
1121.15,1.319602,414909,19877
1124.77,1.327398,416559,19601
1128.38,1.313399,418532,20339
1131.99,1.319101,419956,20142
1135.6,1.316735,421946,20348
1139.2,1.317699,423881,20396
1143.99,1.311625,426786,20825
1147.58,1.324039,428617,20325
1151.17,1.316897,431169,20785
1154.75,1.315988,433579,20945
1158.33,1.319208,436264,20919
1161.91,1.310743,439132,21471
1165.48,1.331916,442389,20601
1169.04,1.317217,446101,21489
1173.79,1.324819,451929,21392
1177.34,1.318526,456026,21901
1180.9,1.314323,461306,22370
1184.44,1.315492,467657,22617
1187.99,1.319724,473969,22700
1191.52,1.317349,479856,23108
1195.06,1.323985,487372,23114
1199.76,1.320740,497347,23764
1203.29,1.314473,504311,24447
1206.81,1.325449,511507,24177
1210.33,1.322887,519078,24680
1213.84,1.326234,527163,24872
1217.35,1.320404,534208,25545
1220.85,1.325620,540472,25536
1225.51,1.320301,549929,26303
1229.01,1.326126,556888,26281
1232.5,1.316842,562180,27104
1235.98,1.322146,567975,27051
1239.46,1.324385,574815,27236
1242.94,1.320151,582782,27884
1246.41,1.321288,591476,28226
1251.03,1.321897,604016,28784
1254.5,1.324214,612289,29023
1257.96,1.333791,619125,28707
1261.41,1.330408,624551,29185
1264.86,1.324953,629900,29807
1268.31,1.326306,634345,29924
1271.75,1.323425,638574,30324
1276.33,1.325571,642499,30360
1279.76,1.329932,645905,30216
1283.19,1.331486,648307,30220
1286.61,1.331754,650446,30301
1290.03,1.326293,652132,30764
1293.44,1.335854,653907,30176
1296.85,1.333249,655963,30453
1301.39,1.324924,657349,31108
1304.8,1.327512,657558,30933
1308.19,1.331229,658515,30714
1311.58,1.331335,658804,30720
1314.97,1.324376,659011,31226
1318.36,1.333551,658272,30539
1321.73,1.326543,658022,31024
1326.23,1.333257,657870,30541
1329.6,1.333479,656482,30461
1332.97,1.333733,654926,30371
1336.33,1.330030,653727,30575
1339.69,1.328956,652497,30593
1343.04,1.329083,649913,30463
1346.39,1.326770,647671,30520
1349.73,1.336534,645338,29734
1354.18,1.328684,641175,30081
1357.52,1.332891,638376,29661
1360.85,1.329064,635805,29803
1364.17,1.324986,633413,29971
1367.49,1.331227,631026,29432
1370.81,1.325135,628050,29707
1374.12,1.323396,625034,29683
1378.54,1.328868,620272,29088
1381.84,1.329582,616892,28882
1385.14,1.328487,613613,28801
1388.43,1.325697,611526,28888
1391.72,1.332973,610663,28368
1395.01,1.330464,610634,28531
1398.29,1.326679,611700,28831
1402.66,1.323670,614051,29143
1405.93,1.330498,616268,28792
1409.2,1.332494,617795,28731
1412.46,1.330613,618872,28906
1415.72,1.335321,619795,28637
1418.98,1.329129,620495,29081
1422.23,1.335513,621087,28684
1426.56,1.335472,621375,28700
1429.8,1.331184,621616,28996
1433.04,1.334337,622129,28810
1436.27,1.335018,621526,28737
1439.5,1.330413,621113,29024
1442.72,1.327728,620921,29195
1445.94,1.332872,620270,28821
1450.23,1.334059,618860,28677
1453.44,1.333848,617697,28637
1456.64,1.335410,616264,28468
1459.85,1.337842,614413,28224
1463.04,1.341381,612307,27899
1466.24,1.339313,610032,27928
1469.43,1.341850,607345,27643
1473.67,1.339709,603789,27617
1476.85,1.335660,601175,27755
1480.02,1.332200,597737,27817
1483.19,1.338786,594479,27249
1486.36,1.338709,591232,27105
1489.52,1.334939,587853,27185
1492.68,1.335471,583875,26968
1496.89,1.332400,578062,26889
1500.03,1.334118,574159,26602
1503.18,1.334916,570285,26374
1506.32,1.333989,565444,26206
1509.45,1.337803,560571,25753
1512.58,1.332525,555821,25847
1515.71,1.341688,550344,25058
1519.87,1.339526,543983,24892
1522.99,1.337192,538764,24786
1526.1,1.335791,533692,24632
1529.21,1.341565,527902,24043
1532.32,1.325882,521886,24643
1535.42,1.336362,515888,23779
1538.51,1.338938,509987,23368
1541.6,1.335728,503936,23262
1545.72,1.339806,494694,22622
1548.8,1.327274,488378,22987
1551.88,1.330752,481832,22498
1554.95,1.338367,474989,21793
1558.02,1.325429,467818,22113
1561.08,1.333418,460730,21381
1564.15,1.334090,454170,21044
1568.22,1.339871,444181,20309
1571.27,1.324542,436947,20696
1574.32,1.327926,429598,20190
1577.36,1.336924,422039,19428
1580.4,1.331634,414375,19309
1583.43,1.319226,406354,19484
1586.46,1.335914,398475,18386
1590.49,1.329667,388982,18208
1593.51,1.332422,380708,17708
1596.53,1.330318,372727,17421
1599.54,1.328531,365060,17133
1602.55,1.323902,357543,16960
1605.55,1.312558,349495,17017
1608.55,1.328369,341154,16017
1612.54,1.328579,330877,15527
1615.53,1.324865,322904,15283
1618.51,1.325109,315116,14906
1621.49,1.320808,307217,14677
1624.47,1.320699,299481,14311
1627.44,1.319328,292112,14003
1630.41,1.313845,284245,13799
1634.36,1.326277,274079,12930
1637.32,1.316054,266916,12892
1640.27,1.307183,259612,12798
1643.22,1.318313,251804,12099
1646.16,1.301435,244348,12206
1649.1,1.310833,236703,11571
1652.04,1.321472,228171,10884
1655.95,1.316228,215408,10400
1658.88,1.303745,204937,10183
1661.8,1.290547,193395,9906
1664.72,1.289555,179728,9227
1667.63,1.281878,163642,8551
1670.54,1.300650,146312,7322
1673.44,1.288733,128451,6607
1677.31,1.263593,105080,5727
1680.21,1.275634,88906,4713
1683.1,1.261728,75033,4107
1685.99,1.278514,63520,3345
1688.87,1.260855,53714,2946
1691.75,1.231821,45653,2677
1694.62,1.213826,39137,2392
1697.49,1.204120,33776,2111
1701.31,1.191706,28175,1812

File: Column 1_078125_20241121_164641.csv
Method:,Column 1,,
Host Date-Time:,21/11/24 @ 16:46:41,,
Header Version:,1,,
System Temp (C):,32.89,,
Detector Temp (C):,28.34,,
Humidity (%):,3.76,,
Lamp PD:,3806,,
Shift Vector Coefficients:,-10.5391,0.0761263,-0.000134223,,
Pixel to Wavelength Coefficients:,1775.68,-0.916766,-0.000235065,,
Serial Number:,5510004,,
Scan Config Name:,Column 1,,
Scan Config Type:,Slew,,
Section 1,,
Start wavelength (nm):,900,,
End wavelength (nm):,1700,,
Pattern Pixel Width (nm):,   7.03,,,,
Exposure (ms):,  0.635,,,,
Digital Resolution:,228,,
Num Repeats:,6,,
PGA Gain:,64,,
Total Measurement Time in sec:,  2.730,,
Wavelength (nm),Absorbance (AU),Reference Signal (unitless),Sample Signal (unitless)
901.51,1.296668,108485,5479
905.376,1.306238,121306,5993
909.237,1.295043,131909,6687
913.095,1.297706,143299,7220
916.948,1.314636,156982,7607
922.079,1.330273,179937,8411
925.923,1.313297,200504,9746
929.762,1.315023,222660,10780
933.597,1.293746,244426,12428
937.427,1.316218,263972,12745
941.254,1.308498,281845,13852
945.076,1.313375,297271,14447
950.165,1.312951,315605,15353
953.978,1.304925,328029,16255
957.786,1.311840,340470,16605
961.59,1.309943,352317,17258
965.389,1.310555,363056,17759
969.185,1.311707,373162,18205
972.976,1.310708,382632,18710
976.763,1.310981,391202,19117
981.806,1.302715,400190,19932
985.583,1.300162,406088,20345
989.355,1.311231,410162,20032
993.124,1.301480,412868,20622
996.888,1.303304,414263,20605
1000.65,1.309789,415476,20359
1004.4,1.299360,415479,20854
1009.41,1.305685,414358,20497
1013.15,1.309830,412923,20232
1016.89,1.306773,411526,20306
1020.63,1.306593,409066,20193
1024.36,1.305405,406777,20135
1028.09,1.308533,404427,19875
1031.82,1.312029,401911,19593
1036.78,1.304499,398410,19762
1040.49,1.309424,396204,19431
1044.2,1.310244,394236,19298
1047.91,1.311958,392042,19115
1051.61,1.304725,389823,19326
1055.31,1.302300,388234,19355
1059,1.307372,387599,19099
1063.92,1.302141,386688,19285
1067.61,1.309307,386598,18965
1071.29,1.319860,387377,18547
1074.96,1.314581,388536,18830
1078.63,1.304492,389855,19338
1082.3,1.313868,391215,18991
1085.96,1.305599,393215,19455
1090.84,1.311019,396270,19363
1094.49,1.312574,398760,19415
1098.14,1.315978,400987,19371
1101.79,1.314739,403477,19547
1105.43,1.314162,406116,19701
1109.06,1.309833,407701,19976
1112.7,1.313476,409859,19914
1117.53,1.318709,412494,19802
1121.15,1.316597,414909,20015
1124.77,1.319560,416559,19958
1128.38,1.317303,418532,20157
1131.99,1.318670,419956,20162
1135.6,1.315776,421946,20393
1139.2,1.315130,423881,20517
1143.99,1.319538,426786,20449
1147.58,1.315428,428617,20732
1151.17,1.319959,431169,20639
1154.75,1.325357,433579,20498
1158.33,1.313577,436264,21192
1161.91,1.322761,439132,20885
1165.48,1.321028,442389,21124
1169.04,1.308553,446101,21922
1173.79,1.311859,451929,22040
1177.34,1.314656,456026,22097
1180.9,1.314090,461306,22382
1184.44,1.313366,467657,22728
1187.99,1.320682,473969,22650
1191.52,1.312136,479856,23387
1195.06,1.323835,487372,23122
1199.76,1.320667,497347,23768
1203.29,1.311869,504311,24594
1206.81,1.321889,511507,24376
1210.33,1.319627,519078,24866
1213.84,1.318155,527163,25339
1217.35,1.323578,534208,25359
1220.85,1.321827,540472,25760
1225.51,1.324899,549929,26026
1229.01,1.321818,556888,26543
1232.5,1.315338,562180,27198
1235.98,1.323432,567975,26971
1239.46,1.319832,574815,27523
1242.94,1.321821,582782,27777
1246.41,1.321673,591476,28201
1251.03,1.327424,604016,28420
1254.5,1.324558,612289,29000
1257.96,1.325296,619125,29274
1261.41,1.321833,624551,29767
1264.86,1.329435,629900,29501
1268.31,1.321729,634345,30241
1271.75,1.328090,638574,30000
1276.33,1.324242,642499,30453
1279.76,1.329386,645905,30254
1283.19,1.328165,648307,30452
1286.61,1.329838,650446,30435
1290.03,1.329509,652132,30537
1293.44,1.327304,653907,30776
1296.85,1.329798,655963,30696
1301.39,1.329485,657349,30783
1304.8,1.338532,657558,30158
1308.19,1.334337,658515,30495
1311.58,1.325982,658804,31101
1314.97,1.335163,659011,30460
1318.36,1.336046,658272,30364
1321.73,1.329986,658022,30779
1326.23,1.337558,657870,30240
1329.6,1.331913,656482,30571
1332.97,1.328658,654926,30728
1336.33,1.330940,653727,30511
1339.69,1.327539,652497,30693
1343.04,1.324051,649913,30818
1346.39,1.331779,647671,30170
1349.73,1.324194,645338,30591
1354.18,1.330000,641175,29990
1357.52,1.333873,638376,29594
1360.85,1.326826,635805,29957
1364.17,1.331615,633413,29517
1367.49,1.326692,631026,29741
1370.81,1.331379,628050,29283
1374.12,1.324069,625034,29637
1378.54,1.330664,620272,28968
1381.84,1.328306,616892,28967
1385.14,1.326576,613613,28928
1388.43,1.327445,611526,28772
1391.72,1.325821,610663,28839
1395.01,1.326932,610634,28764
1398.29,1.328006,611700,28743
1402.66,1.322004,614051,29255
1405.93,1.334651,616268,28518
1409.2,1.337465,617795,28404
1412.46,1.332752,618872,28764
1415.72,1.329416,619795,29029
1418.98,1.333783,620495,28771
1422.23,1.328663,621087,29140
1426.56,1.334218,621375,28783
1429.8,1.334416,621616,28781
1433.04,1.333900,622129,28839
1436.27,1.330537,621526,29035
1439.5,1.332393,621113,28892
1442.72,1.328159,620921,29166
1445.94,1.334986,620270,28681
1450.23,1.329224,618860,28998
1453.44,1.337121,617697,28422
1456.64,1.336601,616264,28390
1459.85,1.336613,614413,28304
1463.04,1.330664,612307,28596
1466.24,1.338133,610032,28004
1469.43,1.338080,607345,27884
1473.67,1.334674,603789,27939
1476.85,1.334925,601175,27802
1480.02,1.332981,597737,27767
1483.19,1.334756,594479,27503
1486.36,1.334896,591232,27344
1489.52,1.337680,587853,27014
1492.68,1.338088,583875,26806
1496.89,1.335512,578062,26697
1500.03,1.341212,574159,26171
1503.18,1.342876,570285,25895
1506.32,1.337450,565444,25998
1509.45,1.337129,560571,25793
1512.58,1.335086,555821,25695
1515.71,1.339406,550344,25190
1519.87,1.336414,543983,25071
1522.99,1.330722,538764,25158
1526.1,1.336462,533692,24594
1529.21,1.332184,527902,24568
1532.32,1.334856,521886,24139
1535.42,1.339680,515888,23598
1538.51,1.337880,509987,23425
1541.6,1.336457,503936,23223
1545.72,1.330800,494694,23096
1548.8,1.333113,488378,22680
1551.88,1.336797,481832,22187
1554.95,1.335566,474989,21934
1558.02,1.341514,467818,21309
1561.08,1.339761,460730,21071
1564.15,1.327658,454170,21358
1568.22,1.329935,444181,20779
1571.27,1.335034,436947,20202
1574.32,1.332684,429598,19970
1577.36,1.326740,422039,19889
1580.4,1.334409,414375,19186
1583.43,1.323302,406354,19302
1586.46,1.327006,398475,18767
1590.49,1.331244,388982,18142
1593.51,1.332349,380708,17711
1596.53,1.329844,372727,17440
1599.54,1.330767,365060,17045
1602.55,1.326496,357543,16859
1605.55,1.332775,349495,16243
1608.55,1.320869,341154,16296
1612.54,1.331948,330877,15407
1615.53,1.318042,322904,15525
1618.51,1.324702,315116,14920
1621.49,1.331017,307217,14336
1624.47,1.322006,299481,14268
1627.44,1.310791,292112,14281
1630.41,1.323874,284245,13484
1634.36,1.308379,274079,13474
1637.32,1.318690,266916,12814
1640.27,1.313575,259612,12611
1643.22,1.298183,251804,12673
1646.16,1.307094,244348,12048
1649.1,1.321471,236703,11291
1652.04,1.305336,228171,11296
1655.95,1.306483,215408,10636
1658.88,1.305925,204937,10132
1661.8,1.294599,193395,9814
1664.72,1.297152,179728,9067
1667.63,1.279902,163642,8590
1670.54,1.281902,146312,7645
1673.44,1.288930,128451,6604
1677.31,1.264732,105080,5712
1680.21,1.295429,88906,4503
1683.1,1.209390,75033,4633
1685.99,1.287964,63520,3273
1688.87,1.240832,53714,3085
1691.75,1.280708,45653,2392
1694.62,1.217107,39137,2374
1697.49,1.284826,33776,1753
1701.31,1.245744,28175,1600