Folder: textile_sorting_NIRSCAN_/ML/samples/unknown (part 76)

File: Column 1_078522_20241121_170648.csv
Method:,Column 1,,
Host Date-Time:,21/11/24 @ 17:6:48,,
Header Version:,1,,
System Temp (C):,35.12,,
Detector Temp (C):,34,,
Humidity (%):,1.96,,
Lamp PD:,3800,,
Shift Vector Coefficients:,-10.5391,0.0761263,-0.000134223,,
Pixel to Wavelength Coefficients:,1775.68,-0.916766,-0.000235065,,
Serial Number:,5510004,,
Scan Config Name:,Column 1,,
Scan Config Type:,Slew,,
Section 1,,
Start wavelength (nm):,900,,
End wavelength (nm):,1700,,
Pattern Pixel Width (nm):,   7.03,,,,
Exposure (ms):,  0.635,,,,
Digital Resolution:,228,,
Num Repeats:,6,,
PGA Gain:,64,,
Total Measurement Time in sec:,  2.724,,
Wavelength (nm),Absorbance (AU),Reference Signal (unitless),Sample Signal (unitless)
901.51,1.290686,108485,5555
905.376,1.338651,121306,5562
909.237,1.312131,131909,6429
913.095,1.322522,143299,6819
916.948,1.326912,156982,7395
922.079,1.289637,179937,9236
925.923,1.333127,200504,9311
929.762,1.327696,222660,10470
933.597,1.319035,244426,11725
937.427,1.315061,263972,12779
941.254,1.315706,281845,13624
945.076,1.314187,297271,14420
950.165,1.309654,315605,15470
953.978,1.311765,328029,16001
957.786,1.308531,340470,16732
961.59,1.318354,352317,16927
965.389,1.305716,363056,17958
969.185,1.300707,373162,18672
972.976,1.312895,382632,18616
976.763,1.294619,391202,19851
981.806,1.311675,400190,19525
985.583,1.298309,406088,20432
989.355,1.295916,410162,20751
993.124,1.306884,412868,20367
996.888,1.300195,414263,20753
1000.65,1.310986,415476,20303
1004.4,1.308940,415479,20399
1009.41,1.303298,414358,20610
1013.15,1.300298,412923,20681
1016.89,1.300024,411526,20624
1020.63,1.310047,409066,20033
1024.36,1.312823,406777,19794
1028.09,1.297551,404427,20384
1031.82,1.307092,401911,19817
1036.78,1.299257,398410,20002
1040.49,1.300246,396204,19846
1044.2,1.309569,394236,19328
1047.91,1.304569,392042,19443
1051.61,1.302618,389823,19420
1055.31,1.299014,388234,19502
1059,1.299753,387599,19437
1063.92,1.308447,386688,19007
1067.61,1.300893,386598,19336
1071.29,1.309677,387377,18987
1074.96,1.314512,388536,18833
1078.63,1.309642,389855,19110
1082.3,1.314119,391215,18980
1085.96,1.308713,393215,19316
1090.84,1.316322,396270,19128
1094.49,1.308921,398760,19579
1098.14,1.305545,400987,19842
1101.79,1.305528,403477,19966
1105.43,1.314868,406116,19669
1109.06,1.309225,407701,20004
1112.7,1.318941,409859,19665
1117.53,1.317548,412494,19855
1121.15,1.312946,414909,20184
1124.77,1.318364,416559,20013
1128.38,1.313848,418532,20318
1131.99,1.318498,419956,20170
1135.6,1.318018,421946,20288
1139.2,1.314644,423881,20540
1143.99,1.318054,426786,20519
1147.58,1.319575,428617,20535
1151.17,1.314003,431169,20924
1154.75,1.319109,433579,20795
1158.33,1.315776,436264,21085
1161.91,1.314440,439132,21289
1165.48,1.311592,442389,21588
1169.04,1.316894,446101,21505
1173.79,1.308170,451929,22228
1177.34,1.309965,456026,22337
1180.9,1.317284,461306,22218
1184.44,1.319718,467657,22398
1187.99,1.318063,473969,22787
1191.52,1.315099,479856,23228
1195.06,1.312856,487372,23714
1199.76,1.315472,497347,24054
1203.29,1.315220,504311,24405
1206.81,1.318659,511507,24558
1210.33,1.312731,519078,25264
1213.84,1.314503,527163,25553
1217.35,1.319148,534208,25619
1220.85,1.325433,540472,25547
1225.51,1.311249,549929,26857
1229.01,1.316242,556888,26886
1232.5,1.317532,562180,27061
1235.98,1.324383,567975,26912
1239.46,1.320259,574815,27496
1242.94,1.317063,582782,28083
1246.41,1.322737,591476,28132
1251.03,1.319040,604016,28974
1254.5,1.315298,612289,29625
1257.96,1.320281,619125,29614
1261.41,1.320842,624551,29835
1264.86,1.327657,629900,29622
1268.31,1.322045,634345,30219
1271.75,1.325147,638574,30204
1276.33,1.322478,642499,30577
1279.76,1.327138,645905,30411
1283.19,1.317195,648307,31231
1286.61,1.321569,650446,31020
1290.03,1.324996,652132,30856
1293.44,1.321361,653907,31200
1296.85,1.327301,655963,30873
1301.39,1.324505,657349,31138
1304.8,1.322723,657558,31276
1308.19,1.321014,658515,31445
1311.58,1.321744,658804,31406
1314.97,1.321977,659011,31399
1318.36,1.324752,658272,31164
1321.73,1.326893,658022,30999
1326.23,1.327816,657870,30926
1329.6,1.325749,656482,31008
1332.97,1.326670,654926,30869
1336.33,1.322203,653727,31131
1339.69,1.325042,652497,30870
1343.04,1.328086,649913,30533
1346.39,1.329253,647671,30346
1349.73,1.325018,645338,30533
1354.18,1.326280,641175,30248
1357.52,1.326236,638376,30119
1360.85,1.321222,635805,30346
1364.17,1.317430,633413,30497
1367.49,1.322998,631026,29995
1370.81,1.316093,628050,30332
1374.12,1.321381,625034,29821
1378.54,1.325774,620272,29296
1381.84,1.324009,616892,29255
1385.14,1.320849,613613,29312
1388.43,1.324317,611526,28980
1391.72,1.326711,610663,28780
1395.01,1.328232,610634,28678
1398.29,1.325896,611700,28883
1402.66,1.322569,614051,29217
1405.93,1.326130,616268,29083
1409.2,1.325476,617795,29199
1412.46,1.330237,618872,28931
1415.72,1.320209,619795,29651
1418.98,1.324406,620495,29399
1422.23,1.323242,621087,29506
1426.56,1.327837,621375,29209
1429.8,1.325057,621616,29408
1433.04,1.327220,622129,29286
1436.27,1.327883,621526,29213
1439.5,1.330788,621113,28999
1442.72,1.326154,620921,29301
1445.94,1.329868,620270,29021
1450.23,1.332577,618860,28775
1453.44,1.327899,617697,29032
1456.64,1.327938,616264,28962
1459.85,1.324329,614413,29116
1463.04,1.325306,612307,28951
1466.24,1.327047,610032,28728
1469.43,1.328880,607345,28481
1473.67,1.324990,603789,28569
1476.85,1.332837,601175,27936
1480.02,1.328639,597737,28046
1483.19,1.327926,594479,27939
1486.36,1.330016,591232,27653
1489.52,1.335691,587853,27138
1492.68,1.329378,583875,27349
1496.89,1.325351,578062,27329
1500.03,1.333270,574159,26654
1503.18,1.337410,570285,26223
1506.32,1.336849,565444,26034
1509.45,1.334159,560571,25970
1512.58,1.332105,555821,25872
1515.71,1.328443,550344,25834
1519.87,1.332225,543983,25314
1522.99,1.333824,538764,24979
1526.1,1.329420,533692,24996
1529.21,1.330384,527902,24670
1532.32,1.330221,521886,24398
1535.42,1.329297,515888,24169
1538.51,1.330909,509987,23804
1541.6,1.332863,503936,23416
1545.72,1.332024,494694,23031
1548.8,1.329110,488378,22890
1551.88,1.329249,481832,22576
1554.95,1.327834,474989,22328
1558.02,1.331063,467818,21828
1561.08,1.334945,460730,21306
1564.15,1.329512,454170,21267
1568.22,1.330605,444181,20747
1571.27,1.323662,436947,20738
1574.32,1.318563,429598,20630
1577.36,1.322848,422039,20068
1580.4,1.323302,414375,19683
1583.43,1.321304,406354,19391
1586.46,1.314529,398475,19314
1590.49,1.318436,388982,18685
1593.51,1.325078,380708,18010
1596.53,1.326570,372727,17572
1599.54,1.325928,365060,17236
1602.55,1.313303,357543,17379
1605.55,1.323752,349495,16584
1608.55,1.316072,341154,16477
1612.54,1.311871,330877,16136
1615.53,1.315253,322904,15625
1618.51,1.314177,315116,15286
1621.49,1.318271,307217,14763
1624.47,1.326104,299481,14134
1627.44,1.312650,292112,14220
1630.41,1.313091,284245,13823
1634.36,1.309121,274079,13451
1637.32,1.310232,266916,13066
1640.27,1.312440,259612,12644
1643.22,1.310417,251804,12321
1646.16,1.305223,244348,12100
1649.1,1.304277,236703,11747
1652.04,1.305990,228171,11279
1655.95,1.289114,215408,11070
1658.88,1.283415,204937,10671
1661.8,1.285014,193395,10033
1664.72,1.255572,179728,9978
1667.63,1.255665,163642,9083
1670.54,1.238886,146312,8441
1673.44,1.219268,128451,7753
1677.31,1.180975,105080,6927
1680.21,1.196575,88906,5654
1683.1,1.181701,75033,4938
1685.99,1.173807,63520,4257
1688.87,1.138022,53714,3909
1691.75,1.139379,45653,3312
1694.62,1.167869,39137,2659
1697.49,1.088014,33776,2758
1701.31,1.153199,28175,1980

File: Column 1_078527_20241121_170703.csv
Method:,Column 1,,
Host Date-Time:,21/11/24 @ 17:7:3,,
Header Version:,1,,
System Temp (C):,35.39,,
Detector Temp (C):,34.05,,
Humidity (%):,1.86,,
Lamp PD:,3800,,
Shift Vector Coefficients:,-10.5391,0.0761263,-0.000134223,,
Pixel to Wavelength Coefficients:,1775.68,-0.916766,-0.000235065,,
Serial Number:,5510004,,
Scan Config Name:,Column 1,,
Scan Config Type:,Slew,,
Section 1,,
Start wavelength (nm):,900,,
End wavelength (nm):,1700,,
Pattern Pixel Width (nm):,   7.03,,,,
Exposure (ms):,  0.635,,,,
Digital Resolution:,228,,
Num Repeats:,6,,
PGA Gain:,64,,
Total Measurement Time in sec:,  2.729,,
Wavelength (nm),Absorbance (AU),Reference Signal (unitless),Sample Signal (unitless)
901.51,1.318199,108485,5214
905.376,1.333837,121306,5624
909.237,1.336085,131909,6084
913.095,1.335648,143299,6616
916.948,1.300041,156982,7867
922.079,1.320269,179937,8607
925.923,1.324399,200504,9500
929.762,1.305500,222660,11019
933.597,1.321300,244426,11664
937.427,1.316082,263972,12749
941.254,1.315355,281845,13635
945.076,1.311096,297271,14523
950.165,1.311567,315605,15402
953.978,1.315171,328029,15876
957.786,1.312547,340470,16578
961.59,1.314369,352317,17083
965.389,1.306660,363056,17919
969.185,1.311754,373162,18203
972.976,1.308716,382632,18796
976.763,1.304935,391202,19385
981.806,1.314285,400190,19408
985.583,1.303505,406088,20189
989.355,1.304647,410162,20338
993.124,1.303909,412868,20507
996.888,1.301369,414263,20697
1000.65,1.305565,415476,20558
1004.4,1.304872,415479,20591
1009.41,1.298520,414358,20838
1013.15,1.304370,412923,20488
1016.89,1.301353,411526,20561
1020.63,1.304854,409066,20274
1024.36,1.295531,406777,20598
1028.09,1.310570,404427,19782
1031.82,1.299661,401911,20159
1036.78,1.303862,398410,19791
1040.49,1.309781,396204,19415
1044.2,1.298806,394236,19813
1047.91,1.300368,392042,19632
1051.61,1.310016,389823,19092
1055.31,1.305024,388234,19234
1059,1.299999,387599,19426
1063.92,1.302907,386688,19251
1067.61,1.310683,386598,18905
1071.29,1.306760,387377,19115
1074.96,1.306719,388536,19174
1078.63,1.315753,389855,18843
1082.3,1.312794,391215,19038
1085.96,1.321420,393215,18759
1090.84,1.309250,396270,19442
1094.49,1.307018,398760,19665
1098.14,1.310608,400987,19612
1101.79,1.313297,403477,19612
1105.43,1.320066,406116,19435
1109.06,1.310508,407701,19945
1112.7,1.318676,409859,19677
1117.53,1.311250,412494,20145
1121.15,1.313786,414909,20145
1124.77,1.313037,416559,20260
1128.38,1.321242,418532,19975
1131.99,1.309020,419956,20615
1135.6,1.316756,421946,20347
1139.2,1.309076,423881,20805
1143.99,1.318435,426786,20501
1147.58,1.308590,428617,21061
1151.17,1.317378,431169,20762
1154.75,1.320511,433579,20728
1158.33,1.316044,436264,21072
1161.91,1.311695,439132,21424
1165.48,1.314013,442389,21468
1169.04,1.312973,446101,21700
1173.79,1.316056,451929,21828
1177.34,1.314421,456026,22109
1180.9,1.325911,461306,21781
1184.44,1.313863,467657,22702
1187.99,1.319935,473969,22689
1191.52,1.313271,479856,23326
1195.06,1.317070,487372,23485
1199.76,1.313760,497347,24149
1203.29,1.320735,504311,24097
1206.81,1.317546,511507,24621
1210.33,1.317571,519078,24984
1213.84,1.313807,527163,25594
1217.35,1.321255,534208,25495
1220.85,1.314953,540472,26171
1225.51,1.317241,549929,26489
1229.01,1.319924,556888,26659
1232.5,1.319639,562180,26930
1235.98,1.319042,567975,27245
1239.46,1.321128,574815,27441
1242.94,1.317233,582782,28072
1246.41,1.321488,591476,28213
1251.03,1.325169,604016,28568
1254.5,1.314200,612289,29700
1257.96,1.327423,619125,29131
1261.41,1.319157,624551,29951
1264.86,1.322035,629900,30008
1268.31,1.318610,634345,30459
1271.75,1.322466,638574,30391
1276.33,1.324885,642499,30408
1279.76,1.328439,645905,30320
1283.19,1.325492,648307,30640
1286.61,1.323126,650446,30909
1290.03,1.321212,652132,31126
1293.44,1.328547,653907,30688
1296.85,1.322419,655963,31222
1301.39,1.327135,657349,30950
1304.8,1.321974,657558,31330
1308.19,1.323813,658515,31243
1311.58,1.325131,658804,31162
1314.97,1.325239,659011,31164
1318.36,1.325659,658272,31099
1321.73,1.329492,658022,30814
1326.23,1.328561,657870,30873
1329.6,1.325721,656482,31010
1332.97,1.325854,654926,30927
1336.33,1.328683,653727,30670
1339.69,1.327610,652497,30688
1343.04,1.323783,649913,30837
1346.39,1.323834,647671,30727
1349.73,1.325559,645338,30495
1354.18,1.325520,641175,30301
1357.52,1.321561,638376,30445
1360.85,1.329735,635805,29757
1364.17,1.325958,633413,29904
1367.49,1.322087,631026,30058
1370.81,1.323210,628050,29839
1374.12,1.325523,625034,29538
1378.54,1.319241,620272,29740
1381.84,1.322571,616892,29352
1385.14,1.322601,613613,29194
1388.43,1.324496,611526,28968
1391.72,1.321252,610663,29144
1395.01,1.321232,610634,29144
1398.29,1.330324,611700,28590
1402.66,1.325747,614051,29004
1405.93,1.322783,616268,29308
1409.2,1.327908,617795,29036
1412.46,1.331004,618872,28880
1415.72,1.327580,619795,29152
1418.98,1.325145,620495,29349
1422.23,1.329797,621087,29064
1426.56,1.324593,621375,29428
1429.8,1.334477,621616,28777
1433.04,1.327532,622129,29265
1436.27,1.328166,621526,29194
1439.5,1.328219,621113,29171
1442.72,1.330384,620921,29017
1445.94,1.328181,620270,29134
1450.23,1.326210,618860,29200
1453.44,1.328138,617697,29016
1456.64,1.324324,616264,29204
1459.85,1.335387,614413,28384
1463.04,1.326192,612307,28892
1466.24,1.333474,610032,28306
1469.43,1.329140,607345,28464
1473.67,1.338656,603789,27684
1476.85,1.329970,601175,28121
1480.02,1.331436,597737,27866
1483.19,1.328190,594479,27922
1486.36,1.334689,591232,27357
1489.52,1.332645,587853,27329
1492.68,1.328823,583875,27384
1496.89,1.327581,578062,27189
1500.03,1.333107,574159,26664
1503.18,1.329629,570285,26697
1506.32,1.326709,565444,26649
1509.45,1.332806,560571,26051
1512.58,1.328195,555821,26106
1515.71,1.334043,550344,25503
1519.87,1.329369,543983,25481
1522.99,1.331102,538764,25136
1526.1,1.331825,533692,24858
1529.21,1.331883,527902,24585
1532.32,1.324404,521886,24727
1535.42,1.333395,515888,23942
1538.51,1.332976,509987,23691
1541.6,1.334610,503936,23322
1545.72,1.330537,494694,23110
1548.8,1.326821,488378,23011
1551.88,1.325742,481832,22759
1554.95,1.329881,474989,22223
1558.02,1.325135,467818,22128
1561.08,1.334089,460730,21348
1564.15,1.330023,454170,21242
1568.22,1.325320,444181,21001
1571.27,1.331928,436947,20347
1574.32,1.327603,429598,20205
1577.36,1.328512,422039,19808
1580.4,1.331117,414375,19332
1583.43,1.321349,406354,19389
1586.46,1.328885,398475,18686
1590.49,1.327953,388982,18280
1593.51,1.331663,380708,17739
1596.53,1.314120,372727,18083
1599.54,1.319947,365060,17475
1602.55,1.317951,357543,17194
1605.55,1.329127,349495,16380
1608.55,1.322471,341154,16236
1612.54,1.328859,330877,15517
1615.53,1.314976,322904,15635
1618.51,1.317542,315116,15168
1621.49,1.314609,307217,14888
1624.47,1.317494,299481,14417
1627.44,1.319421,292112,14000
1630.41,1.304535,284245,14098
1634.36,1.309735,274079,13432
1637.32,1.321137,266916,12742
1640.27,1.306708,259612,12812
1643.22,1.318852,251804,12084
1646.16,1.321608,244348,11652
1649.1,1.319438,236703,11344
1652.04,1.305990,228171,11279
1655.95,1.297232,215408,10865
1658.88,1.298067,204937,10317
1661.8,1.271799,193395,10343
1664.72,1.277075,179728,9496
1667.63,1.272383,163642,8740
1670.54,1.240432,146312,8411
1673.44,1.231078,128451,7545
1677.31,1.203823,105080,6572
1680.21,1.171142,88906,5995
1683.1,1.187100,75033,4877
1685.99,1.159162,63520,4403
1688.87,1.178394,53714,3562
1691.75,1.165733,45653,3117
1694.62,1.190498,39137,2524
1697.49,1.154777,33776,2365
1701.31,1.193387,28175,1805

File: Column 1_078531_20241121_170715.csv
Method:,Column 1,,
Host Date-Time:,21/11/24 @ 17:7:15,,
Header Version:,1,,
System Temp (C):,35.57,,
Detector Temp (C):,34.06,,
Humidity (%):,1.77,,
Lamp PD:,3799,,
Shift Vector Coefficients:,-10.5391,0.0761263,-0.000134223,,
Pixel to Wavelength Coefficients:,1775.68,-0.916766,-0.000235065,,
Serial Number:,5510004,,
Scan Config Name:,Column 1,,
Scan Config Type:,Slew,,
Section 1,,
Start wavelength (nm):,900,,
End wavelength (nm):,1700,,
Pattern Pixel Width (nm):,   7.03,,,,
Exposure (ms):,  0.635,,,,
Digital Resolution:,228,,
Num Repeats:,6,,
PGA Gain:,64,,
Total Measurement Time in sec:,  2.729,,
Wavelength (nm),Absorbance (AU),Reference Signal (unitless),Sample Signal (unitless)
901.51,1.342083,108485,4935
905.376,1.310535,121306,5934
909.237,1.327743,131909,6202
913.095,1.336633,143299,6601
916.948,1.318479,156982,7540
922.079,1.341519,179937,8196
925.923,1.331311,200504,9350
929.762,1.332073,222660,10365
933.597,1.326997,244426,11512
937.427,1.320636,263972,12616
941.254,1.314878,281845,13650
945.076,1.319887,297271,14232
950.165,1.313432,315605,15336
953.978,1.302474,328029,16347
957.786,1.314043,340470,16521
961.59,1.311329,352317,17203
965.389,1.303472,363056,18051
969.185,1.310658,373162,18249
972.976,1.313012,382632,18611
976.763,1.304510,391202,19404
981.806,1.312410,400190,19492
985.583,1.299203,406088,20390
989.355,1.314605,410162,19877
993.124,1.306778,412868,20372
996.888,1.308242,414263,20372
1000.65,1.301130,415476,20769
1004.4,1.300904,415479,20780
1009.41,1.305897,414358,20487
1013.15,1.307796,412923,20327
1016.89,1.315653,411526,19895
1020.63,1.306614,409066,20192
1024.36,1.300344,406777,20371
1028.09,1.307507,404427,19922
1031.82,1.313517,401911,19526
1036.78,1.306548,398410,19669
1040.49,1.302528,396204,19742
1044.2,1.308627,394236,19370
1047.91,1.299948,392042,19651
1051.61,1.307770,389823,19191
1055.31,1.304122,388234,19274
1059,1.309195,387599,19019
1063.92,1.297237,386688,19504
1067.61,1.309788,386598,18944
1071.29,1.307191,387377,19096
1074.96,1.313383,388536,18882
1078.63,1.313867,389855,18925
1082.3,1.310224,391215,19151
1085.96,1.315351,393215,19023
1090.84,1.312344,396270,19304
1094.49,1.311390,398760,19468
1098.14,1.312161,400987,19542
1101.79,1.309988,403477,19762
1105.43,1.317259,406116,19561
1109.06,1.315721,407701,19707
1112.7,1.316826,409859,19761
1117.53,1.322099,412494,19648
1121.15,1.321046,414909,19811
1124.77,1.316221,416559,20112
1128.38,1.321612,418532,19958
1131.99,1.315686,419956,20301
1135.6,1.312276,421946,20558
1139.2,1.318402,423881,20363
1143.99,1.316111,426786,20611
1147.58,1.323484,428617,20351
1151.17,1.328716,431169,20227
1154.75,1.313486,433579,21066
1158.33,1.318441,436264,20956
1161.91,1.319034,439132,21065
1165.48,1.318711,442389,21237
1169.04,1.317763,446101,21462
1173.79,1.316494,451929,21806
1177.34,1.315522,456026,22053
1180.9,1.316952,461306,22235
1184.44,1.314246,467657,22682
1187.99,1.320318,473969,22669
1191.52,1.320991,479856,22915
1195.06,1.314011,487372,23651
1199.76,1.324245,497347,23573
1203.29,1.320213,504311,24126
1206.81,1.321551,511507,24395
1210.33,1.317814,519078,24970
1213.84,1.320424,527163,25207
1217.35,1.317321,534208,25727
1220.85,1.346899,540472,24315
1225.51,1.326973,549929,25902
1229.01,1.319533,556888,26683
1232.5,1.318094,562180,27026
1235.98,1.321392,567975,27098
1239.46,1.322539,574815,27352
1242.94,1.320276,582782,27876
1246.41,1.318542,591476,28405
1251.03,1.325473,604016,28548
1254.5,1.323407,612289,29077
1257.96,1.322000,619125,29497
1261.41,1.325746,624551,29500
1264.86,1.319078,629900,30213
1268.31,1.326030,634345,29943
1271.75,1.323482,638574,30320
1276.33,1.324371,642499,30444
1279.76,1.323073,645905,30697
1283.19,1.325067,648307,30670
1286.61,1.321108,650446,31053
1290.03,1.328855,652132,30583
1293.44,1.327643,653907,30752
1296.85,1.326415,655963,30936
1301.39,1.326070,657349,31026
1304.8,1.326614,657558,30997
1308.19,1.329803,658515,30815
1311.58,1.332524,658804,30636
1314.97,1.327391,659011,31010
1318.36,1.327296,658272,30982
1321.73,1.328057,658022,30916
1326.23,1.327550,657870,30945
1329.6,1.331913,656482,30571
1332.97,1.330897,654926,30570
1336.33,1.332237,653727,30420
1339.69,1.329738,652497,30538
1343.04,1.322279,649913,30944
1346.39,1.327226,647671,30488
1349.73,1.323385,645338,30648
1354.18,1.322691,641175,30499
1357.52,1.323333,638376,30321
1360.85,1.323677,635805,30175
1364.17,1.330102,633413,29620
1367.49,1.324696,631026,29878
1370.81,1.325209,628050,29702
1374.12,1.326804,625034,29451
1378.54,1.324575,620272,29377
1381.84,1.329101,616892,28914
1385.14,1.323465,613613,29136
1388.43,1.322671,611526,29090
1391.72,1.321983,610663,29095
1395.01,1.322725,610634,29044
1398.29,1.321394,611700,29184
1402.66,1.326751,614051,28937
1405.93,1.329564,616268,28854
1409.2,1.324585,617795,29259
1412.46,1.333931,618872,28686
1415.72,1.328534,619795,29088
1418.98,1.333391,620495,28797
1422.23,1.330410,621087,29023
1426.56,1.329267,621375,29113
1429.8,1.325396,621616,29385
1433.04,1.329078,622129,29161
1436.27,1.329865,621526,29080
1439.5,1.333854,621113,28795
1442.72,1.326139,620921,29302
1445.94,1.334835,620270,28691
1450.23,1.326477,618860,29182
1453.44,1.332334,617697,28737
1456.64,1.327264,616264,29007
1459.85,1.329339,614413,28782
1463.04,1.333116,612307,28435
1466.24,1.336152,610032,28132
1469.43,1.336634,607345,27977
1473.67,1.331037,603789,28174
1476.85,1.332308,601175,27970
1480.02,1.336073,597737,27570
1483.19,1.336132,594479,27416
1486.36,1.336806,591232,27224
1489.52,1.331677,587853,27390
1492.68,1.329585,583875,27336
1496.89,1.334829,578062,26739
1500.03,1.331205,574159,26781
1503.18,1.334241,570285,26415
1506.32,1.336665,565444,26045
1509.45,1.334677,560571,25939
1512.58,1.330229,555821,25984
1515.71,1.344731,550344,24883
1519.87,1.339159,543983,24913
1522.99,1.331085,538764,25137
1526.1,1.334981,533692,24678
1529.21,1.330543,527902,24661
1532.32,1.328516,521886,24494
1535.42,1.336672,515888,23762
1538.51,1.328907,509987,23914
1541.6,1.336813,503936,23204
1545.72,1.338943,494694,22667
1548.8,1.339207,488378,22364
1551.88,1.341837,481832,21931
1554.95,1.328905,474989,22273
1558.02,1.331222,467818,21820
1561.08,1.333622,460730,21371
1564.15,1.337218,454170,20893
1568.22,1.328038,444181,20870
1571.27,1.339768,436947,19983
1574.32,1.333729,429598,19922
1577.36,1.335630,422039,19486
1580.4,1.324872,414375,19612
1583.43,1.326577,406354,19157
1586.46,1.326220,398475,18801
1590.49,1.323674,388982,18461
1593.51,1.330734,380708,17777
1596.53,1.325928,372727,17598
1599.54,1.324871,365060,17278
1602.55,1.325108,357543,16913
1605.55,1.326010,349495,16498
1608.55,1.327313,341154,16056
1612.54,1.324321,330877,15680
1615.53,1.323673,322904,15325
1618.51,1.318086,315116,15149
1621.49,1.318359,307217,14760
1624.47,1.314762,299481,14508
1627.44,1.314455,292112,14161
1630.41,1.333185,284245,13198
1634.36,1.323665,274079,13008
1637.32,1.319029,266916,12804
1640.27,1.333734,259612,12039
1643.22,1.317560,251804,12120
1646.16,1.313485,244348,11872
1649.1,1.309147,236703,11616
1652.04,1.305951,228171,11280
1655.95,1.314395,215408,10444
1658.88,1.279082,204937,10778
1661.8,1.281995,193395,10103
1664.72,1.291678,179728,9182
1667.63,1.259652,163642,9000
1670.54,1.240587,146312,8408
1673.44,1.218037,128451,7775
1677.31,1.200334,105080,6625
1680.21,1.182816,88906,5836
1683.1,1.195098,75033,4788
1685.99,1.168232,63520,4312
1688.87,1.170420,53714,3628
1691.75,1.144789,45653,3271
1694.62,1.163967,39137,2683
1697.49,1.244403,33776,1924
1701.31,1.244389,28175,1605