Folder: textile_sorting_NIRSCAN_/ML/samples/unknown (part 107)

File: Column 1_078765_20241121_172106.csv
Method:,Column 1,,
Host Date-Time:,21/11/24 @ 17:21:6,,
Header Version:,1,,
System Temp (C):,36.85,,
Detector Temp (C):,35.1,,
Humidity (%):,1.17,,
Lamp PD:,3798,,
Shift Vector Coefficients:,-10.5391,0.0761263,-0.000134223,,
Pixel to Wavelength Coefficients:,1775.68,-0.916766,-0.000235065,,
Serial Number:,5510004,,
Scan Config Name:,Column 1,,
Scan Config Type:,Slew,,
Section 1,,
Start wavelength (nm):,900,,
End wavelength (nm):,1700,,
Pattern Pixel Width (nm):,   7.03,,,,
Exposure (ms):,  0.635,,,,
Digital Resolution:,228,,
Num Repeats:,6,,
PGA Gain:,64,,
Total Measurement Time in sec:,  2.724,,
Wavelength (nm),Absorbance (AU),Reference Signal (unitless),Sample Signal (unitless)
901.51,1.325168,108485,5131
905.376,1.321204,121306,5790
909.237,1.319420,131909,6322
913.095,1.312263,143299,6982
916.948,1.326677,156982,7399
922.079,1.330221,179937,8412
925.923,1.317641,200504,9649
929.762,1.319804,222660,10662
933.597,1.330291,244426,11425
937.427,1.330560,263972,12331
941.254,1.316823,281845,13589
945.076,1.308770,297271,14601
950.165,1.315021,315605,15280
953.978,1.319930,328029,15703
957.786,1.318269,340470,16361
961.59,1.305736,352317,17426
965.389,1.307339,363056,17891
969.185,1.313308,373162,18138
972.976,1.296347,382632,19339
976.763,1.305585,391202,19356
981.806,1.299373,400190,20086
985.583,1.310400,406088,19871
989.355,1.308659,410162,20151
993.124,1.305373,412868,20438
996.888,1.308008,414263,20383
1000.65,1.307725,415476,20456
1004.4,1.297489,415479,20944
1009.41,1.306088,414358,20478
1013.15,1.311529,412923,20153
1016.89,1.308122,411526,20243
1020.63,1.304426,409066,20294
1024.36,1.299492,406777,20411
1028.09,1.302867,404427,20136
1031.82,1.308805,401911,19739
1036.78,1.300714,398410,19935
1040.49,1.303739,396204,19687
1044.2,1.303279,394236,19610
1047.91,1.314556,392042,19001
1051.61,1.308042,389823,19179
1055.31,1.312241,388234,18917
1059,1.309378,387599,19011
1063.92,1.316379,386688,18663
1067.61,1.307981,386598,19023
1071.29,1.307055,387377,19102
1074.96,1.310426,388536,19011
1078.63,1.320527,389855,18637
1082.3,1.312133,391215,19067
1085.96,1.313483,393215,19105
1090.84,1.312029,396270,19318
1094.49,1.315222,398760,19297
1098.14,1.314255,400987,19448
1101.79,1.312191,403477,19662
1105.43,1.312029,406116,19798
1109.06,1.312494,407701,19854
1112.7,1.312605,409859,19954
1117.53,1.319960,412494,19745
1121.15,1.326162,414909,19579
1124.77,1.326380,416559,19647
1128.38,1.308663,418532,20562
1131.99,1.312107,419956,20469
1135.6,1.316138,421946,20376
1139.2,1.323098,423881,20144
1143.99,1.320623,426786,20398
1147.58,1.311695,428617,20911
1151.17,1.314314,431169,20909
1154.75,1.320720,433579,20718
1158.33,1.314870,436264,21129
1161.91,1.314685,439132,21277
1165.48,1.322717,442389,21042
1169.04,1.313554,446101,21671
1173.79,1.312273,451929,22019
1177.34,1.316587,456026,21999
1180.9,1.313819,461306,22396
1184.44,1.315224,467657,22631
1187.99,1.318406,473969,22769
1191.52,1.315193,479856,23223
1195.06,1.321662,487372,23238
1199.76,1.316684,497347,23987
1203.29,1.320429,504311,24114
1206.81,1.317017,511507,24651
1210.33,1.326794,519078,24459
1213.84,1.317111,527163,25400
1217.35,1.314545,534208,25892
1220.85,1.325195,540472,25561
1225.51,1.317126,549929,26496
1229.01,1.320968,556888,26595
1232.5,1.324700,562180,26618
1235.98,1.321681,567975,27080
1239.46,1.328808,574815,26960
1242.94,1.314918,582782,28222
1246.41,1.314813,591476,28650
1251.03,1.323909,604016,28651
1254.5,1.318816,612289,29386
1257.96,1.322280,619125,29478
1261.41,1.321148,624551,29814
1264.86,1.328920,629900,29536
1268.31,1.324192,634345,30070
1271.75,1.323353,638574,30329
1276.33,1.323644,642499,30495
1279.76,1.324717,645905,30581
1283.19,1.319272,648307,31082
1286.61,1.332845,650446,30225
1290.03,1.326406,652132,30756
1293.44,1.328831,653907,30668
1296.85,1.327540,655963,30856
1301.39,1.329824,657349,30759
1304.8,1.326278,657558,31021
1308.19,1.328130,658515,30934
1311.58,1.328952,658804,30889
1314.97,1.331245,659011,30736
1318.36,1.327282,658272,30983
1321.73,1.330946,658022,30711
1326.23,1.327550,657870,30945
1329.6,1.330849,656482,30646
1332.97,1.327557,654926,30806
1336.33,1.331752,653727,30454
1339.69,1.327921,652497,30666
1343.04,1.324431,649913,30791
1346.39,1.330414,647671,30265
1349.73,1.323924,645338,30610
1354.18,1.325921,641175,30273
1357.52,1.326077,638376,30130
1360.85,1.324455,635805,30121
1364.17,1.330190,633413,29614
1367.49,1.322637,631026,30020
1370.81,1.326145,628050,29638
1374.12,1.327822,625034,29382
1378.54,1.326768,620272,29229
1381.84,1.317029,616892,29729
1385.14,1.325736,613613,28984
1388.43,1.326284,611526,28849
1391.72,1.317912,610663,29369
1395.01,1.321634,610634,29117
1398.29,1.323841,611700,29020
1402.66,1.329325,614051,28766
1405.93,1.321954,616268,29364
1409.2,1.332327,617795,28742
1412.46,1.328066,618872,29076
1415.72,1.326865,619795,29200
1418.98,1.325204,620495,29345
1422.23,1.333067,621087,28846
1426.56,1.327332,621375,29243
1429.8,1.328884,621616,29150
1433.04,1.330435,622129,29070
1436.27,1.331316,621526,28983
1439.5,1.330279,621113,29033
1442.72,1.333961,620921,28779
1445.94,1.332435,620270,28850
1450.23,1.329944,618860,28950
1453.44,1.331715,617697,28778
1456.64,1.333735,616264,28578
1459.85,1.333265,614413,28523
1463.04,1.336089,612307,28241
1466.24,1.325960,610032,28800
1469.43,1.333433,607345,28184
1473.67,1.335982,603789,27855
1476.85,1.332138,601175,27981
1480.02,1.334281,597737,27684
1483.19,1.336751,594479,27377
1486.36,1.326387,591232,27885
1489.52,1.337310,587853,27037
1492.68,1.332742,583875,27138
1496.89,1.323543,578062,27443
1500.03,1.334543,574159,26576
1503.18,1.335955,570285,26311
1506.32,1.334337,565444,26185
1509.45,1.338090,560571,25736
1512.58,1.333821,555821,25770
1515.71,1.340044,550344,25153
1519.87,1.327923,543983,25566
1522.99,1.337999,538764,24740
1526.1,1.331563,533692,24873
1529.21,1.335680,527902,24371
1532.32,1.339469,521886,23884
1535.42,1.334630,515888,23874
1538.51,1.330016,509987,23853
1541.6,1.340213,503936,23023
1545.72,1.343488,494694,22431
1548.8,1.331298,488378,22775
1551.88,1.329249,481832,22576
1554.95,1.331879,474989,22121
1558.02,1.337033,467818,21530
1561.08,1.327588,460730,21670
1564.15,1.334668,454170,21016
1568.22,1.325817,444181,20977
1571.27,1.332313,436947,20329
1574.32,1.333119,429598,19950
1577.36,1.329742,422039,19752
1580.4,1.320948,414375,19790
1583.43,1.334054,406354,18830
1586.46,1.334005,398475,18467
1590.49,1.328001,388982,18278
1593.51,1.324693,380708,18026
1596.53,1.333973,372727,17275
1599.54,1.326912,365060,17197
1602.55,1.333796,357543,16578
1605.55,1.325510,349495,16517
1608.55,1.331253,341154,15911
1612.54,1.333586,330877,15349
1615.53,1.322880,322904,15353
1618.51,1.324876,315116,14914
1621.49,1.329083,307217,14400
1624.47,1.320760,299481,14309
1627.44,1.318739,292112,14022
1630.41,1.321273,284245,13565
1634.36,1.307896,274079,13489
1637.32,1.315011,266916,12923
1640.27,1.307964,259612,12775
1643.22,1.316629,251804,12146
1646.16,1.304757,244348,12113
1649.1,1.312299,236703,11532
1652.04,1.302615,228171,11367
1655.95,1.298954,215408,10822
1658.88,1.288574,204937,10545
1661.8,1.282597,193395,10089
1664.72,1.283851,179728,9349
1667.63,1.259411,163642,9005
1670.54,1.233517,146312,8546
1673.44,1.228725,128451,7586
1677.31,1.172531,105080,7063
1680.21,1.164171,88906,6092
1683.1,1.141093,75033,5422
1685.99,1.148541,63520,4512
1688.87,1.167676,53714,3651
1691.75,1.175454,45653,3048
1694.62,1.156107,39137,2732
1697.49,1.127898,33776,2516
1701.31,1.180585,28175,1859

File: Column 1_078770_20241121_172120.csv
Method:,Column 1,,
Host Date-Time:,21/11/24 @ 17:21:20,,
Header Version:,1,,
System Temp (C):,36.82,,
Detector Temp (C):,35.07,,
Humidity (%):,1.08,,
Lamp PD:,3798,,
Shift Vector Coefficients:,-10.5391,0.0761263,-0.000134223,,
Pixel to Wavelength Coefficients:,1775.68,-0.916766,-0.000235065,,
Serial Number:,5510004,,
Scan Config Name:,Column 1,,
Scan Config Type:,Slew,,
Section 1,,
Start wavelength (nm):,900,,
End wavelength (nm):,1700,,
Pattern Pixel Width (nm):,   7.03,,,,
Exposure (ms):,  0.635,,,,
Digital Resolution:,228,,
Num Repeats:,6,,
PGA Gain:,64,,
Total Measurement Time in sec:,  2.720,,
Wavelength (nm),Absorbance (AU),Reference Signal (unitless),Sample Signal (unitless)
901.51,1.306367,108485,5358
905.376,1.331680,121306,5652
909.237,1.310244,131909,6457
913.095,1.311083,143299,7001
916.948,1.315837,156982,7586
922.079,1.331100,179937,8395
925.923,1.336780,200504,9233
929.762,1.339383,222660,10192
933.597,1.335184,244426,11297
937.427,1.326807,263972,12438
941.254,1.327762,281845,13251
945.076,1.322120,297271,14159
950.165,1.312216,315605,15379
953.978,1.318797,328029,15744
957.786,1.307183,340470,16784
961.59,1.309239,352317,17286
965.389,1.300547,363056,18173
969.185,1.313619,373162,18125
972.976,1.310336,382632,18726
976.763,1.308444,391202,19229
981.806,1.312677,400190,19480
985.583,1.309287,406088,19922
989.355,1.302878,410162,20421
993.124,1.302619,412868,20568
996.888,1.310722,414263,20256
1000.65,1.302764,415476,20691
1004.4,1.304176,415479,20624
1009.41,1.300693,414358,20734
1013.15,1.309230,412923,20260
1016.89,1.295208,411526,20854
1020.63,1.315897,409066,19765
1024.36,1.305642,406777,20124
1028.09,1.296891,404427,20415
1031.82,1.308387,401911,19758
1036.78,1.308540,398410,19579
1040.49,1.312857,396204,19278
1044.2,1.306257,394236,19476
1047.91,1.313529,392042,19046
1051.61,1.303178,389823,19395
1055.31,1.306743,388234,19158
1059,1.304765,387599,19214
1063.92,1.311244,386688,18885
1067.61,1.312156,386598,18841
1071.29,1.308284,387377,19048
1074.96,1.303964,388536,19296
1078.63,1.306066,389855,19268
1082.3,1.311701,391215,19086
1085.96,1.311600,393215,19188
1090.84,1.304054,396270,19676
1094.49,1.312060,398760,19438
1098.14,1.319332,400987,19222
1101.79,1.306115,403477,19939
1105.43,1.308011,406116,19982
1109.06,1.318396,407701,19586
1112.7,1.313062,409859,19933
1117.53,1.313867,412494,20024
1121.15,1.312387,414909,20210
1124.77,1.306105,416559,20586
1128.38,1.312035,418532,20403
1131.99,1.308936,419956,20619
1135.6,1.312593,421946,20543
1139.2,1.319620,423881,20306
1143.99,1.318605,426786,20493
1147.58,1.311923,428617,20900
1151.17,1.318342,431169,20716
1154.75,1.314952,433579,20995
1158.33,1.314870,436264,21129
1161.91,1.312791,439132,21370
1165.48,1.320966,442389,21127
1169.04,1.310340,446101,21832
1173.79,1.316415,451929,21810
1177.34,1.311660,456026,22250
1180.9,1.314517,461306,22360
1184.44,1.315588,467657,22612
1187.99,1.314627,473969,22968
1191.52,1.315473,479856,23208
1195.06,1.316312,487372,23526
1199.76,1.313994,497347,24136
1203.29,1.318327,504311,24231
1206.81,1.317687,511507,24613
1210.33,1.320308,519078,24827
1213.84,1.320493,527163,25203
1217.35,1.315973,534208,25807
1220.85,1.315019,540472,26167
1225.51,1.318341,549929,26422
1229.01,1.321736,556888,26548
1232.5,1.317997,562180,27032
1235.98,1.321200,567975,27110
1239.46,1.318855,574815,27585
1242.94,1.321633,582782,27789
1246.41,1.317275,591476,28488
1251.03,1.319475,604016,28945
1254.5,1.329680,612289,28660
1257.96,1.326024,619125,29225
1261.41,1.324467,624551,29587
1264.86,1.316898,629900,30365
1268.31,1.319509,634345,30396
1271.75,1.321895,638574,30431
1276.33,1.322449,642499,30579
1279.76,1.323724,645905,30651
1283.19,1.322864,648307,30826
1286.61,1.323646,650446,30872
1290.03,1.323226,652132,30982
1293.44,1.324322,653907,30988
1296.85,1.331215,655963,30596
1301.39,1.324212,657349,31159
1304.8,1.321226,657558,31384
1308.19,1.326658,658515,31039
1311.58,1.327773,658804,30973
1314.97,1.323515,659011,31288
1318.36,1.324850,658272,31157
1321.73,1.329239,658022,30832
1326.23,1.324821,657870,31140
1329.6,1.324351,656482,31108
1332.97,1.327261,654926,30827
1336.33,1.325129,653727,30922
1339.69,1.326070,652497,30797
1343.04,1.328072,649913,30534
1346.39,1.327482,647671,30470
1349.73,1.324833,645338,30546
1354.18,1.328468,641175,30096
1357.52,1.328462,638376,29965
1360.85,1.328176,635805,29864
1364.17,1.326583,633413,29861
1367.49,1.330741,631026,29465
1370.81,1.321597,628050,29950
1374.12,1.327409,625034,29410
1378.54,1.327944,620272,29150
1381.84,1.326092,616892,29115
1385.14,1.318765,613613,29453
1388.43,1.331494,611526,28505
1391.72,1.324498,610663,28927
1395.01,1.320740,610634,29177
1398.29,1.321811,611700,29156
1402.66,1.325447,614051,29024
1405.93,1.323926,616268,29231
1409.2,1.325432,617795,29202
1412.46,1.330177,618872,28935
1415.72,1.327103,619795,29184
1418.98,1.327579,620495,29185
1422.23,1.329812,621087,29063
1426.56,1.329550,621375,29094
1429.8,1.324806,621616,29425
1433.04,1.331153,622129,29022
1436.27,1.330089,621526,29065
1439.5,1.331657,621113,28941
1442.72,1.331073,620921,28971
1445.94,1.332586,620270,28840
1450.23,1.329869,618860,28955
1453.44,1.329067,617697,28954
1456.64,1.333613,616264,28586
1459.85,1.333555,614413,28504
1463.04,1.330254,612307,28623
1466.24,1.337575,610032,28040
1469.43,1.331434,607345,28314
1473.67,1.326299,603789,28483
1476.85,1.338296,601175,27587
1480.02,1.330626,597737,27918
1483.19,1.333023,594479,27613
1486.36,1.336009,591232,27274
1489.52,1.335179,587853,27170
1492.68,1.335600,583875,26960
1496.89,1.333710,578062,26808
1500.03,1.334330,574159,26589
1503.18,1.334932,570285,26373
1506.32,1.334918,565444,26150
1509.45,1.338292,560571,25724
1512.58,1.336950,555821,25585
1515.71,1.331259,550344,25667
1519.87,1.333978,543983,25212
1522.99,1.334729,538764,24927
1526.1,1.333277,533692,24775
1529.21,1.330772,527902,24648
1532.32,1.333976,521886,24188
1535.42,1.338522,515888,23661
1538.51,1.334224,509987,23623
1541.6,1.333903,503936,23360
1545.72,1.329448,494694,23168
1548.8,1.328371,488378,22929
1551.88,1.336288,481832,22213
1554.95,1.329803,474989,22227
1558.02,1.327122,467818,22027
1561.08,1.325748,460730,21762
1564.15,1.329962,454170,21245
1568.22,1.326749,444181,20932
1571.27,1.334433,436947,20230
1574.32,1.330905,429598,20052
1577.36,1.324323,422039,20000
1580.4,1.330376,414375,19365
1583.43,1.322852,406354,19322
1586.46,1.325943,398475,18813
1590.49,1.325489,388982,18384
1593.51,1.328638,380708,17863
1596.53,1.317786,372727,17931
1599.54,1.324494,365060,17293
1602.55,1.323339,357543,16982
1605.55,1.315914,349495,16886
1608.55,1.318478,341154,16386
1612.54,1.318515,330877,15891
1615.53,1.319780,322904,15463
1618.51,1.313127,315116,15323
1621.49,1.309851,307217,15052
1624.47,1.320214,299481,14327
1627.44,1.316793,292112,14085
1630.41,1.314727,284245,13771
1634.36,1.308669,274079,13465
1637.32,1.321580,266916,12729
1640.27,1.316929,259612,12514
1643.22,1.308869,251804,12365
1646.16,1.310750,244348,11947
1649.1,1.305536,236703,11713
1652.04,1.303226,228171,11351
1655.95,1.294086,215408,10944
1658.88,1.273716,204937,10912
1661.8,1.274030,193395,10290
1664.72,1.278587,179728,9463
1667.63,1.238739,163642,9444
1670.54,1.231337,146312,8589
1673.44,1.214809,128451,7833
1677.31,1.199810,105080,6633
1680.21,1.153329,88906,6246
1683.1,1.176195,75033,5001
1685.99,1.153284,63520,4463
1688.87,1.148138,53714,3819
1691.75,1.150670,45653,3227
1694.62,1.131840,39137,2889
1697.49,1.139797,33776,2448
1701.31,1.095948,28175,2259

File: Column 1_078771_20241121_172123.csv
Method:,Column 1,,
Host Date-Time:,21/11/24 @ 17:21:23,,
Header Version:,1,,
System Temp (C):,36.69,,
Detector Temp (C):,35.11,,
Humidity (%):,1.08,,
Lamp PD:,3798,,
Shift Vector Coefficients:,-10.5391,0.0761263,-0.000134223,,
Pixel to Wavelength Coefficients:,1775.68,-0.916766,-0.000235065,,
Serial Number:,5510004,,
Scan Config Name:,Column 1,,
Scan Config Type:,Slew,,
Section 1,,
Start wavelength (nm):,900,,
End wavelength (nm):,1700,,
Pattern Pixel Width (nm):,   7.03,,,,
Exposure (ms):,  0.635,,,,
Digital Resolution:,228,,
Num Repeats:,6,,
PGA Gain:,64,,
Total Measurement Time in sec:,  2.719,,
Wavelength (nm),Absorbance (AU),Reference Signal (unitless),Sample Signal (unitless)
901.51,1.322973,108485,5157
905.376,1.316059,121306,5859
909.237,1.301983,131909,6581
913.095,1.339670,143299,6555
916.948,1.313155,156982,7633
922.079,1.306268,179937,8889
925.923,1.317551,200504,9651
929.762,1.323239,222660,10578
933.597,1.326770,244426,11518
937.427,1.328872,263972,12379
941.254,1.316823,281845,13589
945.076,1.307315,297271,14650
950.165,1.313290,315605,15341
953.978,1.316514,328029,15827
957.786,1.311971,340470,16600
961.59,1.313176,352317,17130
965.389,1.313746,363056,17629
969.185,1.314219,373162,18100
972.976,1.298215,382632,19256
976.763,1.304264,391202,19415
981.806,1.309235,400190,19635
985.583,1.302646,406088,20229
989.355,1.308443,410162,20161
993.124,1.301186,412868,20636
996.888,1.307987,414263,20384
1000.65,1.307110,415476,20485
1004.4,1.305843,415479,20545
1009.41,1.302792,414358,20634
1013.15,1.303100,412923,20548
1016.89,1.307715,411526,20262
1020.63,1.300633,409066,20472
1024.36,1.304328,406777,20185
1028.09,1.305919,404427,19995
1031.82,1.306260,401911,19855
1036.78,1.309450,398410,19538
1040.49,1.310207,396204,19396
1044.2,1.303811,394236,19586
1047.91,1.310937,392042,19160
1051.61,1.300032,389823,19536
1055.31,1.307583,388234,19121
1059,1.308169,387599,19064
1063.92,1.314406,386688,18748
1067.61,1.314652,386598,18733
1071.29,1.309998,387377,18973
1074.96,1.312763,388536,18909
1078.63,1.306811,389855,19235
1082.3,1.310020,391215,19160
1085.96,1.314553,393215,19058
1090.84,1.307311,396270,19529
1094.49,1.312038,398760,19439
1098.14,1.315642,400987,19386
1101.79,1.310384,403477,19744
1105.43,1.315752,406116,19629
1109.06,1.307881,407701,20066
1112.7,1.315640,409859,19815
1117.53,1.309400,412494,20231
1121.15,1.310992,414909,20275
1124.77,1.321982,416559,19847
1128.38,1.316506,418532,20194
1131.99,1.320656,419956,20070
1135.6,1.313418,421946,20504
1139.2,1.315172,423881,20515
1143.99,1.322543,426786,20308
1147.58,1.327794,428617,20150
1151.17,1.318006,431169,20732
1154.75,1.317691,433579,20863
1158.33,1.311880,436264,21275
1161.91,1.308061,439132,21604
1165.48,1.314357,442389,21451
1169.04,1.314196,446101,21639
1173.79,1.311780,451929,22044
1177.34,1.310646,456026,22302
1180.9,1.321330,461306,22012
1184.44,1.310433,467657,22882
1187.99,1.311649,473969,23126
1191.52,1.313382,479856,23320
1195.06,1.313369,487372,23686
1199.76,1.312234,497347,24234
1203.29,1.318740,504311,24208
1206.81,1.315048,511507,24763
1210.33,1.323574,519078,24641
1213.84,1.325136,527163,24935
1217.35,1.321511,534208,25480
1220.85,1.312768,540472,26303
1225.51,1.320764,549929,26275
1229.01,1.317180,556888,26828
1232.5,1.316682,562180,27114
1235.98,1.317960,567975,27313
1239.46,1.320780,574815,27463
1242.94,1.314857,582782,28226
1246.41,1.325462,591476,27956
1251.03,1.319295,604016,28957
1254.5,1.324529,612289,29002
1257.96,1.323077,619125,29424
1261.41,1.320245,624551,29876
1264.86,1.324167,629900,29861
1268.31,1.321184,634345,30279
1271.75,1.327410,638574,30047
1276.33,1.328268,642499,30172
1279.76,1.323030,645905,30700
1283.19,1.322638,648307,30842
1286.61,1.359923,650446,28398
1290.03,1.323899,652132,30934
1293.44,1.325909,653907,30875
1296.85,1.327610,655963,30851
1301.39,1.329259,657349,30799
1304.8,1.328623,657558,30854
1308.19,1.330777,658515,30746
1311.58,1.326988,658804,31029
1314.97,1.327601,659011,30995
1318.36,1.326470,658272,31041
1321.73,1.327355,658022,30966
1326.23,1.333285,657870,30539
1329.6,1.327110,656482,30911
1332.97,1.329705,654926,30654
1336.33,1.325241,653727,30914
1339.69,1.333365,652497,30284
1343.04,1.329653,649913,30423
1346.39,1.327796,647671,30448
1349.73,1.325430,645338,30504
1354.18,1.322534,641175,30510
1357.52,1.324897,638376,30212
1360.85,1.327101,635805,29938
1364.17,1.327238,633413,29816
1367.49,1.325438,631026,29827
1370.81,1.324128,628050,29776
1374.12,1.324143,625034,29632
1378.54,1.323202,620272,29470
1381.84,1.323164,616892,29312
1385.14,1.321724,613613,29253
1388.43,1.322895,611526,29075
1391.72,1.316584,610663,29459
1395.01,1.327098,610634,28753
1398.29,1.328218,611700,28729
1402.66,1.329476,614051,28756
1405.93,1.336818,616268,28376
1409.2,1.328596,617795,28990
1412.46,1.330733,618872,28898
1415.72,1.323399,619795,29434
1418.98,1.326093,620495,29285
1422.23,1.326300,621087,29299
1426.56,1.329715,621375,29083
1429.8,1.327426,621616,29248
1433.04,1.335726,622129,28718
1436.27,1.332036,621526,28935
1439.5,1.332017,621113,28917
1442.72,1.332951,620921,28846
1445.94,1.331938,620270,28883
1450.23,1.328521,618860,29045
1453.44,1.328048,617697,29022
1456.64,1.330043,616264,28822
1459.85,1.333250,614413,28524
1463.04,1.331683,612307,28529
1466.24,1.333014,610032,28336
1469.43,1.334899,607345,28089
1473.67,1.327154,603789,28427
1476.85,1.330063,601175,28115
1480.02,1.329818,597737,27970
1483.19,1.330420,594479,27779
1486.36,1.330928,591232,27595
1489.52,1.332756,587853,27322
1492.68,1.328871,583875,27381
1496.89,1.335447,578062,26701
1500.03,1.330719,574159,26811
1503.18,1.357701,570285,25026
1506.32,1.331181,565444,26376
1509.45,1.326533,560571,26430
1512.58,1.331568,555821,25904
1515.71,1.331547,550344,25650
1519.87,1.338654,543983,24942
1522.99,1.333511,538764,24997
1526.1,1.329177,533692,25010
1529.21,1.335947,527902,24356
1532.32,1.326817,521886,24590
1535.42,1.332598,515888,23986
1538.51,1.336417,509987,23504
1541.6,1.327645,503936,23699
1545.72,1.328699,494694,23208
1548.8,1.331164,488378,22782
1551.88,1.327617,481832,22661
1554.95,1.327717,474989,22334
1558.02,1.323587,467818,22207
1561.08,1.339102,460730,21103
1564.15,1.329533,454170,21266
1568.22,1.332367,444181,20663
1571.27,1.334476,436947,20228
1574.32,1.333272,429598,19943
1577.36,1.335429,422039,19495
1580.4,1.336247,414375,19105
1583.43,1.330380,406354,18990
1586.46,1.331706,398475,18565
1590.49,1.329119,388982,18231
1593.51,1.326020,380708,17971
1596.53,1.327287,372727,17543
1599.54,1.327392,365060,17178
1602.55,1.317421,357543,17215
1605.55,1.328041,349495,16421
1608.55,1.318584,341154,16382
1612.54,1.334975,330877,15300
1615.53,1.317958,322904,15528
1618.51,1.325663,315116,14887
1621.49,1.316392,307217,14827
1624.47,1.321367,299481,14289
1627.44,1.310183,292112,14301
1630.41,1.323423,284245,13498
1634.36,1.320041,274079,13117
1637.32,1.309767,266916,13080
1640.27,1.319225,259612,12448
1643.22,1.306312,251804,12438
1646.16,1.316200,244348,11798
1649.1,1.314073,236703,11485
1652.04,1.288851,228171,11733
1655.95,1.306361,215408,10639
1658.88,1.296932,204937,10344
1661.8,1.298734,193395,9721
1664.72,1.270539,179728,9640
1667.63,1.255522,163642,9086
1670.54,1.233670,146312,8543
1673.44,1.217758,128451,7780
1677.31,1.195899,105080,6693
1680.21,1.152287,88906,6261
1683.1,1.174203,75033,5024
1685.99,1.150954,63520,4487
1688.87,1.182682,53714,3527
1691.75,1.122028,45653,3447
1694.62,1.214008,39137,2391
1697.49,1.123091,33776,2544
1701.31,1.084750,28175,2318