Folder: textile_sorting_NIRSCAN_/ML/samples/unknown (part 39)

File: Column 1_078247_20241121_165242.csv
Method:,Column 1,,
Host Date-Time:,21/11/24 @ 16:52:42,,
Header Version:,1,,
System Temp (C):,34.2,,
Detector Temp (C):,31.7,,
Humidity (%):,2.35,,
Lamp PD:,3803,,
Shift Vector Coefficients:,-10.5391,0.0761263,-0.000134223,,
Pixel to Wavelength Coefficients:,1775.68,-0.916766,-0.000235065,,
Serial Number:,5510004,,
Scan Config Name:,Column 1,,
Scan Config Type:,Slew,,
Section 1,,
Start wavelength (nm):,900,,
End wavelength (nm):,1700,,
Pattern Pixel Width (nm):,   7.03,,,,
Exposure (ms):,  0.635,,,,
Digital Resolution:,228,,
Num Repeats:,6,,
PGA Gain:,64,,
Total Measurement Time in sec:,  2.729,,
Wavelength (nm),Absorbance (AU),Reference Signal (unitless),Sample Signal (unitless)
901.51,1.305881,108485,5364
905.376,1.318735,121306,5823
909.237,1.317980,131909,6343
913.095,1.315698,143299,6927
916.948,1.346369,156982,7071
922.079,1.328007,179937,8455
925.923,1.323121,200504,9528
929.762,1.328942,222660,10440
933.597,1.336031,244426,11275
937.427,1.324266,263972,12511
941.254,1.323781,281845,13373
945.076,1.324211,297271,14091
950.165,1.317443,315605,15195
953.978,1.314980,328029,15883
957.786,1.324714,340470,16120
961.59,1.313582,352317,17114
965.389,1.309993,363056,17782
969.185,1.309993,373162,18277
972.976,1.305401,382632,18940
976.763,1.306439,391202,19318
981.806,1.306963,400190,19738
985.583,1.307720,406088,19994
989.355,1.311643,410162,20013
993.124,1.306415,412868,20389
996.888,1.313627,414263,20121
1000.65,1.310900,415476,20307
1004.4,1.310775,415479,20313
1009.41,1.314180,414358,20100
1013.15,1.312327,412923,20116
1016.89,1.302686,411526,20498
1020.63,1.314865,409066,19812
1024.36,1.315331,406777,19680
1028.09,1.313809,404427,19635
1031.82,1.306369,401911,19850
1036.78,1.306415,398410,19675
1040.49,1.307951,396204,19497
1044.2,1.315770,394236,19054
1047.91,1.314876,392042,18987
1051.61,1.315902,389823,18835
1055.31,1.308834,388234,19066
1059,1.308465,387599,19051
1063.92,1.317241,386688,18626
1067.61,1.315395,386598,18701
1071.29,1.313999,387377,18799
1074.96,1.308739,388536,19085
1078.63,1.323872,389855,18494
1082.3,1.310632,391215,19133
1085.96,1.317847,393215,18914
1090.84,1.308625,396270,19470
1094.49,1.309787,398760,19540
1098.14,1.314725,400987,19427
1101.79,1.318331,403477,19386
1105.43,1.317592,406116,19546
1109.06,1.314335,407701,19770
1112.7,1.322667,409859,19497
1117.53,1.318511,412494,19811
1121.15,1.319733,414909,19871
1124.77,1.322069,416559,19843
1128.38,1.315711,418532,20231
1131.99,1.319317,419956,20132
1135.6,1.312614,421946,20542
1139.2,1.321828,423881,20203
1143.99,1.327295,426786,20087
1147.58,1.318983,428617,20563
1151.17,1.308763,431169,21178
1154.75,1.315408,433579,20973
1158.33,1.322041,436264,20783
1161.91,1.324323,439132,20810
1165.48,1.318916,442389,21227
1169.04,1.308890,446101,21905
1173.79,1.313023,451929,21981
1177.34,1.320732,456026,21790
1180.9,1.318478,461306,22157
1184.44,1.318730,467657,22449
1187.99,1.314400,473969,22980
1191.52,1.313979,479856,23288
1195.06,1.326076,487372,23003
1199.76,1.329863,497347,23270
1203.29,1.324682,504311,23879
1206.81,1.321604,511507,24392
1210.33,1.324474,519078,24590
1213.84,1.325345,527163,24923
1217.35,1.323561,534208,25360
1220.85,1.330185,540472,25269
1225.51,1.330965,549929,25665
1229.01,1.323638,556888,26432
1232.5,1.316202,562180,27144
1235.98,1.323255,567975,26982
1239.46,1.324528,574815,27227
1242.94,1.323403,582782,27676
1246.41,1.324113,591476,28043
1251.03,1.329308,604016,28297
1254.5,1.327187,612289,28825
1257.96,1.328288,619125,29073
1261.41,1.331213,624551,29131
1264.86,1.332004,629900,29327
1268.31,1.327658,634345,29831
1271.75,1.329816,638574,29881
1276.33,1.330332,642499,30029
1279.76,1.331415,645905,30113
1283.19,1.334066,648307,30041
1286.61,1.329481,650446,30460
1290.03,1.328259,652132,30625
1293.44,1.338279,653907,30008
1296.85,1.334349,655963,30376
1301.39,1.325008,657349,31102
1304.8,1.331929,657558,30620
1308.19,1.334081,658515,30513
1311.58,1.336512,658804,30356
1314.97,1.334365,659011,30516
1318.36,1.332585,658272,30607
1321.73,1.327103,658022,30984
1326.23,1.333413,657870,30530
1329.6,1.336296,656482,30264
1332.97,1.340042,654926,29933
1336.33,1.329065,653727,30643
1339.69,1.332506,652497,30344
1343.04,1.334058,649913,30116
1346.39,1.329296,647671,30343
1349.73,1.330500,645338,30150
1354.18,1.329624,641175,30016
1357.52,1.336272,638376,29431
1360.85,1.335701,635805,29351
1364.17,1.328317,633413,29742
1367.49,1.326765,631026,29736
1370.81,1.326967,628050,29582
1374.12,1.332548,625034,29064
1378.54,1.330349,620272,28989
1381.84,1.332797,616892,28669
1385.14,1.334836,613613,28383
1388.43,1.332119,611526,28464
1391.72,1.327496,610663,28728
1395.01,1.331394,610634,28470
1398.29,1.329429,611700,28649
1402.66,1.330868,614051,28664
1405.93,1.323584,616268,29254
1409.2,1.333008,617795,28697
1412.46,1.329233,618872,28998
1415.72,1.340492,619795,28298
1418.98,1.333512,620495,28789
1422.23,1.332977,621087,28852
1426.56,1.336108,621375,28658
1429.8,1.339730,621616,28431
1433.04,1.333494,622129,28866
1436.27,1.336562,621526,28635
1439.5,1.334880,621113,28727
1442.72,1.332078,620921,28904
1445.94,1.337386,620270,28523
1450.23,1.331492,618860,28847
1453.44,1.332652,617697,28716
1456.64,1.339348,616264,28211
1459.85,1.335815,614413,28356
1463.04,1.334508,612307,28344
1466.24,1.337172,610032,28066
1469.43,1.342180,607345,27622
1473.67,1.337841,603789,27736
1476.85,1.332246,601175,27974
1480.02,1.344616,597737,27033
1483.19,1.342580,594479,27012
1486.36,1.340249,591232,27009
1489.52,1.340050,587853,26867
1492.68,1.347836,583875,26211
1496.89,1.340881,578062,26369
1500.03,1.336081,574159,26482
1503.18,1.334932,570285,26373
1506.32,1.337483,565444,25996
1509.45,1.340492,560571,25594
1512.58,1.343138,555821,25223
1515.71,1.335920,550344,25393
1519.87,1.337194,543983,25026
1522.99,1.342179,538764,24503
1526.1,1.339865,533692,24402
1529.21,1.346762,527902,23757
1532.32,1.337491,521886,23993
1535.42,1.340620,515888,23547
1538.51,1.341884,509987,23210
1541.6,1.347748,503936,22627
1545.72,1.338043,494694,22714
1548.8,1.326802,488378,23012
1551.88,1.335878,481832,22234
1554.95,1.341828,474989,21620
1558.02,1.337315,467818,21516
1561.08,1.338773,460730,21119
1564.15,1.336719,454170,20917
1568.22,1.331170,444181,20720
1571.27,1.352090,436947,19424
1574.32,1.337869,429598,19733
1577.36,1.335630,422039,19486
1580.4,1.338434,414375,19009
1583.43,1.334308,406354,18819
1586.46,1.334734,398475,18436
1590.49,1.329787,388982,18203
1593.51,1.334833,380708,17610
1596.53,1.333973,372727,17275
1599.54,1.328379,365060,17139
1602.55,1.331731,357543,16657
1605.55,1.330694,349495,16321
1608.55,1.338547,341154,15646
1612.54,1.330710,330877,15451
1615.53,1.317706,322904,15537
1618.51,1.324120,315116,14940
1621.49,1.318094,307217,14769
1624.47,1.320699,299481,14311
1627.44,1.317657,292112,14057
1630.41,1.328960,284245,13327
1634.36,1.332263,274079,12753
1637.32,1.322981,266916,12688
1640.27,1.319365,259612,12444
1643.22,1.329954,251804,11779
1646.16,1.321720,244348,11649
1649.1,1.328842,236703,11101
1652.04,1.320436,228171,10910
1655.95,1.325685,215408,10176
1658.88,1.311447,204937,10004
1661.8,1.285794,193395,10015
1664.72,1.299217,179728,9024
1667.63,1.274425,163642,8699
1670.54,1.268368,146312,7887
1673.44,1.249719,128451,7228
1677.31,1.216904,105080,6377
1680.21,1.223837,88906,5310
1683.1,1.233283,75033,4385
1685.99,1.192783,63520,4075
1688.87,1.222636,53714,3217
1691.75,1.225060,45653,2719
1694.62,1.174618,39137,2618
1697.49,1.213058,33776,2068
1701.31,1.331269,28175,1314

File: Column 1_078248_20241121_165245.csv
Method:,Column 1,,
Host Date-Time:,21/11/24 @ 16:52:45,,
Header Version:,1,,
System Temp (C):,34.25,,
Detector Temp (C):,31.71,,
Humidity (%):,2.4,,
Lamp PD:,3803,,
Shift Vector Coefficients:,-10.5391,0.0761263,-0.000134223,,
Pixel to Wavelength Coefficients:,1775.68,-0.916766,-0.000235065,,
Serial Number:,5510004,,
Scan Config Name:,Column 1,,
Scan Config Type:,Slew,,
Section 1,,
Start wavelength (nm):,900,,
End wavelength (nm):,1700,,
Pattern Pixel Width (nm):,   7.03,,,,
Exposure (ms):,  0.635,,,,
Digital Resolution:,228,,
Num Repeats:,6,,
PGA Gain:,64,,
Total Measurement Time in sec:,  2.730,,
Wavelength (nm),Absorbance (AU),Reference Signal (unitless),Sample Signal (unitless)
901.51,1.326100,108485,5120
905.376,1.301266,121306,6062
909.237,1.304498,131909,6543
913.095,1.302727,143299,7137
916.948,1.322995,156982,7462
922.079,1.313410,179937,8744
925.923,1.317056,200504,9662
929.762,1.316557,222660,10742
933.597,1.326167,244426,11534
937.427,1.318610,263972,12675
941.254,1.312055,281845,13739
945.076,1.315182,297271,14387
950.165,1.313149,315605,15346
953.978,1.320345,328029,15688
957.786,1.309518,340470,16694
961.59,1.312796,352317,17145
965.389,1.320274,363056,17366
969.185,1.309043,373162,18317
972.976,1.304874,382632,18963
976.763,1.315870,391202,18903
981.806,1.310409,400190,19582
985.583,1.308808,406088,19944
989.355,1.306702,410162,20242
993.124,1.304969,412868,20457
996.888,1.314296,414263,20090
1000.65,1.305122,415476,20579
1004.4,1.311695,415479,20270
1009.41,1.312153,414358,20194
1013.15,1.311357,412923,20161
1016.89,1.306752,411526,20307
1020.63,1.305755,409066,20232
1024.36,1.311159,406777,19870
1028.09,1.312528,404427,19693
1031.82,1.308497,401911,19753
1036.78,1.310853,398410,19475
1040.49,1.311912,396204,19320
1044.2,1.319386,394236,18896
1047.91,1.300058,392042,19646
1051.61,1.315694,389823,18844
1055.31,1.314197,388234,18832
1059,1.312611,387599,18870
1063.92,1.317404,386688,18619
1067.61,1.312917,386598,18808
1071.29,1.312776,387377,18852
1074.96,1.312281,388536,18930
1078.63,1.318783,389855,18712
1082.3,1.309250,391215,19194
1085.96,1.311012,393215,19214
1090.84,1.316344,396270,19127
1094.49,1.317659,398760,19189
1098.14,1.313675,400987,19474
1101.79,1.316676,403477,19460
1105.43,1.319351,406116,19467
1109.06,1.319217,407701,19549
1112.7,1.309093,409859,20116
1117.53,1.323694,412494,19576
1121.15,1.316012,414909,20042
1124.77,1.314777,416559,20179
1128.38,1.313463,418532,20336
1131.99,1.319058,419956,20144
1135.6,1.318317,421946,20274
1139.2,1.312387,423881,20647
1143.99,1.320240,426786,20416
1147.58,1.319765,428617,20526
1151.17,1.317839,431169,20740
1154.75,1.318608,433579,20819
1158.33,1.314583,436264,21143
1161.91,1.320459,439132,20996
1165.48,1.319612,442389,21193
1169.04,1.322115,446101,21248
1173.79,1.322490,451929,21507
1177.34,1.315739,456026,22042
1180.9,1.326310,461306,21761
1184.44,1.323047,467657,22227
1187.99,1.319896,473969,22691
1191.52,1.319062,479856,23017
1195.06,1.317015,487372,23488
1199.76,1.326628,497347,23444
1203.29,1.322415,504311,24004
1206.81,1.327231,511507,24078
1210.33,1.326297,519078,24487
1213.84,1.325746,527163,24900
1217.35,1.318860,534208,25636
1220.85,1.327102,540472,25449
1225.51,1.326856,549929,25909
1229.01,1.320903,556888,26599
1232.5,1.326236,562180,26524
1235.98,1.322483,567975,27030
1239.46,1.315655,574815,27789
1242.94,1.322885,582782,27709
1246.41,1.327611,591476,27818
1251.03,1.324045,604016,28642
1254.5,1.326014,612289,28903
1257.96,1.320765,619125,29581
1261.41,1.322928,624551,29692
1264.86,1.325012,629900,29803
1268.31,1.330755,634345,29619
1271.75,1.326169,638574,30133
1276.33,1.331418,642499,29954
1279.76,1.330982,645905,30143
1283.19,1.325194,648307,30661
1286.61,1.330981,650446,30355
1290.03,1.331262,652132,30414
1293.44,1.333916,653907,30311
1296.85,1.333107,655963,30463
1301.39,1.332288,657349,30585
1304.8,1.334732,657558,30423
1308.19,1.333882,658515,30527
1311.58,1.323698,658804,31265
1314.97,1.335634,659011,30427
1318.36,1.331182,658272,30706
1321.73,1.329803,658022,30792
1326.23,1.335838,657870,30360
1329.6,1.332340,656482,30541
1332.97,1.333962,654926,30355
1336.33,1.330471,653727,30544
1339.69,1.327242,652497,30714
1343.04,1.329825,649913,30411
1346.39,1.329167,647671,30352
1349.73,1.327586,645338,30353
1354.18,1.331218,641175,29906
1357.52,1.328390,638376,29970
1360.85,1.326985,635805,29946
1364.17,1.328682,633413,29717
1367.49,1.321481,631026,30100
1370.81,1.333863,628050,29116
1374.12,1.331787,625034,29115
1378.54,1.329705,620272,29032
1381.84,1.325213,616892,29174
1385.14,1.325811,613613,28979
1388.43,1.325051,611526,28931
1391.72,1.329891,610663,28570
1395.01,1.323383,610634,29000
1398.29,1.328641,611700,28701
1402.66,1.330943,614051,28659
1405.93,1.332403,616268,28666
1409.2,1.335406,617795,28539
1412.46,1.335949,618872,28553
1415.72,1.335290,619795,28639
1418.98,1.331660,620495,28912
1422.23,1.327799,621087,29198
1426.56,1.332125,621375,28922
1429.8,1.333030,621616,28873
1433.04,1.333840,622129,28843
1436.27,1.331436,621526,28975
1439.5,1.334352,621113,28762
1442.72,1.329860,620921,29052
1445.94,1.333762,620270,28762
1450.23,1.329254,618860,28996
1453.44,1.333136,617697,28684
1456.64,1.333948,616264,28564
1459.85,1.340620,614413,28044
1463.04,1.334738,612307,28329
1466.24,1.337528,610032,28043
1469.43,1.338189,607345,27877
1473.67,1.336232,603789,27839
1476.85,1.332448,601175,27961
1480.02,1.337667,597737,27469
1483.19,1.340671,594479,27131
1486.36,1.337780,591232,27163
1489.52,1.341312,587853,26789
1492.68,1.350029,583875,26079
1496.89,1.337158,578062,26596
1500.03,1.334102,574159,26603
1503.18,1.339252,570285,26112
1506.32,1.341107,565444,25780
1509.45,1.341529,560571,25533
1512.58,1.338105,555821,25517
1515.71,1.338906,550344,25219
1519.87,1.340976,543983,24809
1522.99,1.339018,538764,24682
1526.1,1.337593,533692,24530
1529.21,1.338379,527902,24220
1532.32,1.334928,521886,24135
1535.42,1.339331,515888,23617
1538.51,1.335716,509987,23542
1541.6,1.336046,503936,23245
1545.72,1.334065,494694,22923
1548.8,1.332845,488378,22694
1551.88,1.338897,481832,22080
1554.95,1.336934,474989,21865
1558.02,1.341942,467818,21288
1561.08,1.338876,460730,21114
1564.15,1.339218,454170,20797
1568.22,1.326189,444181,20959
1571.27,1.329141,436947,20478
1574.32,1.333577,429598,19929
1577.36,1.331063,422039,19692
1580.4,1.330645,414375,19353
1583.43,1.325174,406354,19219
1586.46,1.333135,398475,18504
1590.49,1.333140,388982,18063
1593.51,1.335672,380708,17576
1596.53,1.329670,372727,17447
1599.54,1.318880,365060,17518
1602.55,1.314881,357543,17316
1605.55,1.326326,349495,16486
1608.55,1.330844,341154,15926
1612.54,1.322496,330877,15746
1615.53,1.324070,322904,15311
1618.51,1.325401,315116,14896
1621.49,1.328269,307217,14427
1624.47,1.326842,299481,14110
1627.44,1.321287,292112,13940
1630.41,1.332560,284245,13217
1634.36,1.323298,274079,13019
1637.32,1.312531,266916,12997
1640.27,1.295762,259612,13139
1643.22,1.322533,251804,11982
1646.16,1.328445,244348,11470
1649.1,1.316652,236703,11417
1652.04,1.300404,228171,11425
1655.95,1.295557,215408,10907
1658.88,1.291549,204937,10473
1661.8,1.275637,193395,10252
1664.72,1.302550,179728,8955
1667.63,1.269116,163642,8806
1670.54,1.273408,146312,7796
1673.44,1.231424,128451,7539
1677.31,1.221973,105080,6303
1680.21,1.158928,88906,6166
1683.1,1.182758,75033,4926
1685.99,1.192037,63520,4082
1688.87,1.220347,53714,3234
1691.75,1.220611,45653,2747
1694.62,1.218022,39137,2369
1697.49,1.187570,33776,2193
1701.31,1.243038,28175,1610

File: Column 1_078249_20241121_165248.csv
Method:,Column 1,,
Host Date-Time:,21/11/24 @ 16:52:48,,
Header Version:,1,,
System Temp (C):,34.31,,
Detector Temp (C):,31.73,,
Humidity (%):,2.45,,
Lamp PD:,3803,,
Shift Vector Coefficients:,-10.5391,0.0761263,-0.000134223,,
Pixel to Wavelength Coefficients:,1775.68,-0.916766,-0.000235065,,
Serial Number:,5510004,,
Scan Config Name:,Column 1,,
Scan Config Type:,Slew,,
Section 1,,
Start wavelength (nm):,900,,
End wavelength (nm):,1700,,
Pattern Pixel Width (nm):,   7.03,,,,
Exposure (ms):,  0.635,,,,
Digital Resolution:,228,,
Num Repeats:,6,,
PGA Gain:,64,,
Total Measurement Time in sec:,  2.725,,
Wavelength (nm),Absorbance (AU),Reference Signal (unitless),Sample Signal (unitless)
901.51,1.320956,108485,5181
905.376,1.318959,121306,5820
909.237,1.315250,131909,6383
913.095,1.335188,143299,6623
916.948,1.332468,156982,7301
922.079,1.323561,179937,8542
925.923,1.326645,200504,9451
929.762,1.332912,222660,10345
933.597,1.319850,244426,11703
937.427,1.316866,263972,12726
941.254,1.310352,281845,13793
945.076,1.326652,297271,14012
950.165,1.308784,315605,15501
953.978,1.314160,328029,15913
957.786,1.313228,340470,16552
961.59,1.311961,352317,17178
965.389,1.318029,363056,17456
969.185,1.317809,373162,17951
972.976,1.297314,382632,19296
976.763,1.303861,391202,19433
981.806,1.306084,400190,19778
985.583,1.311319,406088,19829
989.355,1.312230,410162,19986
993.124,1.310460,412868,20200
996.888,1.299484,414263,20787
1000.65,1.308980,415476,20397
1004.4,1.319282,415479,19919
1009.41,1.309046,414358,20339
1013.15,1.311680,412923,20146
1016.89,1.306046,411526,20340
1020.63,1.305004,409066,20267
1024.36,1.311574,406777,19851
1028.09,1.305658,404427,20007
1031.82,1.304601,401911,19931
1036.78,1.307720,398410,19616
1040.49,1.308352,396204,19479
1044.2,1.303234,394236,19612
1047.91,1.314305,392042,19012
1051.61,1.323884,389823,18492
1055.31,1.312081,388234,18924
1059,1.313117,387599,18848
1063.92,1.304150,386688,19196
1067.61,1.311603,386598,18865
1071.29,1.309106,387377,19012
1074.96,1.311341,388536,18971
1078.63,1.317208,389855,18780
1082.3,1.304614,391215,19400
1085.96,1.316059,393215,18992
1090.84,1.316799,396270,19107
1094.49,1.314255,398760,19340
1098.14,1.320984,400987,19149
1101.79,1.319205,403477,19347
1105.43,1.314603,406116,19681
1109.06,1.329195,407701,19105
1112.7,1.315443,409859,19824
1117.53,1.318314,412494,19820
1121.15,1.307621,414909,20433
1124.77,1.308431,416559,20476
1128.38,1.317799,418532,20134
1131.99,1.317874,419956,20199
1135.6,1.314840,421946,20437
1139.2,1.323918,423881,20106
1143.99,1.318838,426786,20482
1147.58,1.312880,428617,20854
1151.17,1.317713,431169,20746
1154.75,1.317400,433579,20877
1158.33,1.317323,436264,21010
1161.91,1.313380,439132,21341
1165.48,1.318875,442389,21229
1169.04,1.312533,446101,21722
1173.79,1.315400,451929,21861
1177.34,1.316330,456026,22012
1180.9,1.317480,461306,22208
1184.44,1.317977,467657,22488
1187.99,1.319074,473969,22734
1191.52,1.314725,479856,23248
1195.06,1.316534,487372,23514
1199.76,1.324171,497347,23577
1203.29,1.318937,504311,24197
1206.81,1.318305,511507,24578
1210.33,1.313832,519078,25200
1213.84,1.322704,527163,25075
1217.35,1.330518,534208,24957
1220.85,1.322300,540472,25732
1225.51,1.320285,549929,26304
1229.01,1.323194,556888,26459
1232.5,1.324782,562180,26613
1235.98,1.327850,567975,26698
1239.46,1.327409,574815,27047
1242.94,1.321899,582782,27772
1246.41,1.319399,591476,28349
1251.03,1.322516,604016,28743
1254.5,1.323631,612289,29062
1257.96,1.326217,619125,29212
1261.41,1.327191,624551,29402
1264.86,1.325566,629900,29765
1268.31,1.325450,634345,29983
1271.75,1.330602,638574,29827
1276.33,1.329681,642499,30074
1279.76,1.334541,645905,29897
1283.19,1.330826,648307,30266
1286.61,1.333492,650446,30180
1290.03,1.335783,652132,30099
1293.44,1.330789,653907,30530
1296.85,1.328456,655963,30791
1301.39,1.326294,657349,31010
1304.8,1.332497,657558,30580
1308.19,1.327344,658515,30990
1311.58,1.333361,658804,30577
1314.97,1.334422,659011,30512
1318.36,1.333380,658272,30551
1321.73,1.333357,658022,30541
1326.23,1.332220,657870,30614
1329.6,1.329929,656482,30711
1332.97,1.332477,654926,30459
1336.33,1.339958,653727,29884
1339.69,1.331948,652497,30383
1343.04,1.333481,649913,30156
1346.39,1.330557,647671,30255
1349.73,1.337279,645338,29683
1354.18,1.330507,641175,29955
1357.52,1.323505,638376,30309
1360.85,1.322972,635805,30224
1364.17,1.327019,633413,29831
1367.49,1.328316,631026,29630
1370.81,1.329219,628050,29429
1374.12,1.330744,625034,29185
1378.54,1.324811,620272,29361
1381.84,1.329161,616892,28910
1385.14,1.323808,613613,29113
1388.43,1.325818,611526,28880
1391.72,1.332682,610663,28387
1395.01,1.324868,610634,28901
1398.29,1.330598,611700,28572
1402.66,1.334351,614051,28435
1405.93,1.329759,616268,28841
1409.2,1.328671,617795,28985
1412.46,1.327738,618872,29098
1415.72,1.334064,619795,28720
1418.98,1.333949,620495,28760
1422.23,1.327279,621087,29233
1426.56,1.332456,621375,28900
1429.8,1.337293,621616,28591
1433.04,1.336210,622129,28686
1436.27,1.329581,621526,29099
1439.5,1.334759,621113,28735
1442.72,1.329546,620921,29073
1445.94,1.339997,620270,28352
1450.23,1.331582,618860,28841
1453.44,1.331504,617697,28792
1456.64,1.334739,616264,28512
1459.85,1.331457,614413,28642
1463.04,1.335951,612307,28250
1466.24,1.333889,610032,28279
1469.43,1.335688,607345,28038
1473.67,1.333030,603789,28045
1476.85,1.332541,601175,27955
1480.02,1.340395,597737,27297
1483.19,1.335041,594479,27485
1486.36,1.340764,591232,26977
1489.52,1.340810,587853,26820
1492.68,1.338136,583875,26803
1496.89,1.331222,578062,26962
1500.03,1.334902,574159,26554
1503.18,1.340034,570285,26065
1506.32,1.332516,565444,26295
1509.45,1.342380,560571,25483
1512.58,1.338071,555821,25519
1515.71,1.338287,550344,25255
1519.87,1.340504,543983,24836
1522.99,1.341701,538764,24530
1526.1,1.341095,533692,24333
1529.21,1.340590,527902,24097
1532.32,1.341528,521886,23771
1535.42,1.333504,515888,23936
1538.51,1.332646,509987,23709
1541.6,1.331418,503936,23494
1545.72,1.334615,494694,22894
1548.8,1.328636,488378,22915
1551.88,1.337012,481832,22176
1554.95,1.329080,474989,22264
1558.02,1.332797,467818,21741
1561.08,1.339411,460730,21088
1564.15,1.336761,454170,20915
1568.22,1.339829,444181,20311
1571.27,1.332035,436947,20342
1574.32,1.341960,429598,19548
1577.36,1.325889,422039,19928
1580.4,1.326269,414375,19549
1583.43,1.326963,406354,19140
1586.46,1.336103,398475,18378
1590.49,1.321726,388982,18544
1593.51,1.330734,380708,17777
1596.53,1.328080,372727,17511
1599.54,1.335326,365060,16867
1602.55,1.333665,357543,16583
1605.55,1.326826,349495,16467
1608.55,1.336084,341154,15735
1612.54,1.325152,330877,15650
1615.53,1.327716,322904,15183
1618.51,1.315258,315116,15248
1621.49,1.341534,307217,13993
1624.47,1.327212,299481,14098
1627.44,1.326931,292112,13760
1630.41,1.316307,284245,13721
1634.36,1.315922,274079,13242
1637.32,1.317607,266916,12846
1640.27,1.313300,259612,12619
1643.22,1.315487,251804,12178
1646.16,1.308900,244348,11998
1649.1,1.320626,236703,11313
1652.04,1.320276,228171,10914
1655.95,1.301773,215408,10752
1658.88,1.289274,204937,10528
1661.8,1.312072,193395,9427
1664.72,1.282923,179728,9369
1667.63,1.276728,163642,8653
1670.54,1.276820,146312,7735
1673.44,1.221458,128451,7714
1677.31,1.229970,105080,6188
1680.21,1.199581,88906,5615
1683.1,1.196188,75033,4776
1685.99,1.182358,63520,4174
1688.87,1.163297,53714,3688
1691.75,1.188471,45653,2958
1694.62,1.233891,39137,2284
1697.49,1.155696,33776,2360
1701.31,1.246831,28175,1596