Folder: textile_sorting_NIRSCAN_/ML/samples/unknown (part 10)

File: Column 1_078061_20241121_164334.csv
Method:,Column 1,,
Host Date-Time:,21/11/24 @ 16:43:34,,
Header Version:,1,,
System Temp (C):,31.24,,
Detector Temp (C):,26.01,,
Humidity (%):,5.37,,
Lamp PD:,3809,,
Shift Vector Coefficients:,-10.5391,0.0761263,-0.000134223,,
Pixel to Wavelength Coefficients:,1775.68,-0.916766,-0.000235065,,
Serial Number:,5510004,,
Scan Config Name:,Column 1,,
Scan Config Type:,Slew,,
Section 1,,
Start wavelength (nm):,900,,
End wavelength (nm):,1700,,
Pattern Pixel Width (nm):,   7.03,,,,
Exposure (ms):,  0.635,,,,
Digital Resolution:,228,,
Num Repeats:,6,,
PGA Gain:,64,,
Total Measurement Time in sec:,  2.708,,
Wavelength (nm),Absorbance (AU),Reference Signal (unitless),Sample Signal (unitless)
901.51,1.312818,108485,5279
905.376,1.316726,121306,5850
909.237,1.321417,131909,6293
913.095,1.304374,143299,7110
916.948,1.306604,156982,7749
922.079,1.330066,179937,8415
925.923,1.304868,200504,9937
929.762,1.317164,222660,10727
933.597,1.312929,244426,11891
937.427,1.312520,263972,12854
941.254,1.305810,281845,13938
945.076,1.304390,297271,14749
950.165,1.304741,315605,15646
953.978,1.307337,328029,16165
957.786,1.301809,340470,16993
961.59,1.312999,352317,17137
965.389,1.315202,363056,17570
969.185,1.309162,373162,18312
972.976,1.310568,382632,18716
976.763,1.311209,391202,19107
981.806,1.307690,400190,19705
985.583,1.310728,406088,19856
989.355,1.310192,410162,20080
993.124,1.310073,412868,20218
996.888,1.307859,414263,20390
1000.65,1.296079,415476,21012
1004.4,1.311010,415479,20302
1009.41,1.301804,414358,20681
1013.15,1.312846,412923,20092
1016.89,1.311093,411526,20105
1020.63,1.313552,409066,19872
1024.36,1.313833,406777,19748
1028.09,1.304444,404427,20063
1031.82,1.312295,401911,19581
1036.78,1.314211,398410,19325
1040.49,1.306439,396204,19565
1044.2,1.307060,394236,19440
1047.91,1.306607,392042,19352
1051.61,1.317241,389823,18777
1055.31,1.310614,388234,18988
1059,1.313463,387599,18833
1063.92,1.310945,386688,18898
1067.61,1.307981,386598,19023
1071.29,1.305331,387377,19178
1074.96,1.315412,388536,18794
1078.63,1.321157,389855,18610
1082.3,1.321294,391215,18669
1085.96,1.310448,393215,19239
1090.84,1.316367,396270,19126
1094.49,1.328267,398760,18726
1098.14,1.316225,400987,19360
1101.79,1.320960,403477,19269
1105.43,1.314228,406116,19698
1109.06,1.316670,407701,19664
1112.7,1.328023,409859,19258
1117.53,1.320401,412494,19725
1121.15,1.310371,414909,20304
1124.77,1.324021,416559,19754
1128.38,1.322941,418532,19897
1131.99,1.314021,419956,20379
1135.6,1.319540,421946,20217
1139.2,1.319491,423881,20312
1143.99,1.322800,426786,20296
1147.58,1.320210,428617,20505
1151.17,1.321646,431169,20559
1154.75,1.325166,433579,20507
1158.33,1.322208,436264,20775
1161.91,1.324094,439132,20821
1165.48,1.325305,442389,20917
1169.04,1.322463,446101,21231
1173.79,1.314944,451929,21884
1177.34,1.314617,456026,22099
1180.9,1.315782,461306,22295
1184.44,1.319195,467657,22425
1187.99,1.315554,473969,22919
1191.52,1.321275,479856,22900
1195.06,1.314617,487372,23618
1199.76,1.309555,497347,24384
1203.29,1.322777,504311,23984
1206.81,1.323979,511507,24259
1210.33,1.321991,519078,24731
1213.84,1.325205,527163,24931
1217.35,1.325810,534208,25229
1220.85,1.333186,540472,25095
1225.51,1.326136,549929,25952
1229.01,1.321327,556888,26573
1232.5,1.319268,562180,26953
1235.98,1.325013,567975,26873
1239.46,1.322444,574815,27358
1242.94,1.326853,582782,27457
1246.41,1.325602,591476,27947
1251.03,1.328296,604016,28363
1254.5,1.323482,612289,29072
1257.96,1.322251,619125,29480
1261.41,1.328967,624551,29282
1264.86,1.323513,629900,29906
1268.31,1.328780,634345,29754
1271.75,1.330616,638574,29826
1276.33,1.326846,642499,30271
1279.76,1.330709,645905,30162
1283.19,1.324741,648307,30693
1286.61,1.329881,650446,30432
1290.03,1.333108,652132,30285
1293.44,1.332728,653907,30394
1296.85,1.324231,655963,31092
1301.39,1.329203,657349,30803
1304.8,1.330994,657558,30686
1308.19,1.328031,658515,30941
1311.58,1.334371,658804,30506
1314.97,1.331726,659011,30702
1318.36,1.337737,658272,30246
1321.73,1.332902,658022,30573
1326.23,1.335481,657870,30385
1329.6,1.329138,656482,30767
1332.97,1.334907,654926,30289
1336.33,1.331111,653727,30499
1339.69,1.335493,652497,30136
1343.04,1.330511,649913,30363
1346.39,1.328124,647671,30425
1349.73,1.328402,645338,30296
1354.18,1.330044,641175,29987
1357.52,1.335358,638376,29493
1360.85,1.330962,635805,29673
1364.17,1.329135,633413,29686
1367.49,1.324638,631026,29882
1370.81,1.330327,628050,29354
1374.12,1.325537,625034,29537
1378.54,1.330649,620272,28969
1381.84,1.332751,616892,28672
1385.14,1.321086,613613,29296
1388.43,1.326525,611526,28833
1391.72,1.327617,610663,28720
1395.01,1.329871,610634,28570
1398.29,1.331556,611700,28509
1402.66,1.332021,614051,28588
1405.93,1.329473,616268,28860
1409.2,1.326280,617795,29145
1412.46,1.330147,618872,28937
1415.72,1.331005,619795,28923
1418.98,1.330550,620495,28986
1422.23,1.335573,621087,28680
1426.56,1.330971,621375,28999
1429.8,1.328854,621616,29152
1433.04,1.336241,622129,28684
1436.27,1.334112,621526,28797
1439.5,1.327104,621113,29246
1442.72,1.332875,620921,28851
1445.94,1.333309,620270,28792
1450.23,1.330770,618860,28895
1453.44,1.335504,617697,28528
1456.64,1.336494,616264,28397
1459.85,1.346043,614413,27696
1463.04,1.335812,612307,28259
1466.24,1.339375,610032,27924
1469.43,1.331450,607345,28313
1473.67,1.339096,603789,27656
1476.85,1.340554,601175,27444
1480.02,1.336199,597737,27562
1483.19,1.339631,594479,27196
1486.36,1.339815,591232,27036
1489.52,1.336315,587853,27099
1492.68,1.342484,583875,26536
1496.89,1.339401,578062,26459
1500.03,1.339655,574159,26265
1503.18,1.346598,570285,25674
1506.32,1.342676,565444,25687
1509.45,1.341444,560571,25538
1512.58,1.333147,555821,25810
1515.71,1.340528,550344,25125
1519.87,1.333014,543983,25268
1522.99,1.332435,538764,25059
1526.1,1.334295,533692,24717
1529.21,1.335840,527902,24362
1532.32,1.342168,521886,23736
1535.42,1.337203,515888,23733
1538.51,1.335919,509987,23531
1541.6,1.342047,503936,22926
1545.72,1.337451,494694,22745
1548.8,1.335860,488378,22537
1551.88,1.338071,481832,22122
1554.95,1.347693,474989,21330
1558.02,1.340516,467818,21358
1561.08,1.338711,460730,21122
1564.15,1.336947,454170,20906
1568.22,1.344321,444181,20102
1571.27,1.341248,436947,19915
1574.32,1.332358,429598,19985
1577.36,1.326521,422039,19899
1580.4,1.332985,414375,19249
1583.43,1.335093,406354,18785
1586.46,1.336126,398475,18377
1590.49,1.332323,388982,18097
1593.51,1.329221,380708,17839
1596.53,1.322144,372727,17752
1599.54,1.338557,365060,16742
1602.55,1.322598,357543,17011
1605.55,1.327671,349495,16435
1608.55,1.325909,341154,16108
1612.54,1.325235,330877,15647
1615.53,1.339428,322904,14779
1618.51,1.318373,315116,15139
1621.49,1.320808,307217,14677
1624.47,1.330427,299481,13994
1627.44,1.321598,292112,13930
1630.41,1.323005,284245,13511
1634.36,1.324735,274079,12976
1637.32,1.320422,266916,12763
1640.27,1.328143,259612,12195
1643.22,1.320364,251804,12042
1646.16,1.324113,244348,11585
1649.1,1.316120,236703,11431
1652.04,1.325924,228171,10773
1655.95,1.318447,215408,10347
1658.88,1.316380,204937,9891
1661.8,1.328790,193395,9071
1664.72,1.326374,179728,8477
1667.63,1.313528,163642,7950
1670.54,1.325048,146312,6922
1673.44,1.309535,128451,6298
1677.31,1.277775,105080,5543
1680.21,1.310542,88906,4349
1683.1,1.260144,75033,4122
1685.99,1.325355,63520,3003
1688.87,1.310793,53714,2626
1691.75,1.307094,45653,2251
1694.62,1.279776,39137,2055
1697.49,1.286315,33776,1747
1701.31,1.362437,28175,1223

File: Column 1_078064_20241121_164342.csv
Method:,Column 1,,
Host Date-Time:,21/11/24 @ 16:43:42,,
Header Version:,1,,
System Temp (C):,31.37,,
Detector Temp (C):,26.12,,
Humidity (%):,5.37,,
Lamp PD:,3809,,
Shift Vector Coefficients:,-10.5391,0.0761263,-0.000134223,,
Pixel to Wavelength Coefficients:,1775.68,-0.916766,-0.000235065,,
Serial Number:,5510004,,
Scan Config Name:,Column 1,,
Scan Config Type:,Slew,,
Section 1,,
Start wavelength (nm):,900,,
End wavelength (nm):,1700,,
Pattern Pixel Width (nm):,   7.03,,,,
Exposure (ms):,  0.635,,,,
Digital Resolution:,228,,
Num Repeats:,6,,
PGA Gain:,64,,
Total Measurement Time in sec:,  2.707,,
Wavelength (nm),Absorbance (AU),Reference Signal (unitless),Sample Signal (unitless)
901.51,1.335619,108485,5009
905.376,1.311781,121306,5917
909.237,1.301653,131909,6586
913.095,1.297345,143299,7226
916.948,1.299820,156982,7871
922.079,1.314504,179937,8722
925.923,1.313118,200504,9750
929.762,1.324143,222660,10556
933.597,1.309328,244426,11990
937.427,1.307080,263972,13016
941.254,1.313924,281845,13680
945.076,1.323072,297271,14128
950.165,1.322098,315605,15033
953.978,1.300962,328029,16404
957.786,1.305273,340470,16858
961.59,1.309943,352317,17258
965.389,1.318128,363056,17452
969.185,1.305219,373162,18479
972.976,1.311404,382632,18680
976.763,1.303660,391202,19442
981.806,1.310099,400190,19596
985.583,1.312196,406088,19789
989.355,1.310560,410162,20063
993.124,1.315803,412868,19953
996.888,1.308051,414263,20381
1000.65,1.315177,415476,20108
1004.4,1.311310,415479,20288
1009.41,1.307746,414358,20400
1013.15,1.309594,412923,20243
1016.89,1.315457,411526,19904
1020.63,1.314449,409066,19831
1024.36,1.306874,406777,20067
1028.09,1.308358,404427,19883
1031.82,1.319970,401911,19238
1036.78,1.310541,398410,19489
1040.49,1.312024,396204,19315
1044.2,1.312274,394236,19208
1047.91,1.311005,392042,19157
1051.61,1.310745,389823,19060
1055.31,1.319347,388234,18610
1059,1.307213,387599,19106
1063.92,1.305986,386688,19115
1067.61,1.307981,386598,19023
1071.29,1.309723,387377,18985
1074.96,1.313383,388536,18882
1078.63,1.316537,389855,18809
1082.3,1.319646,391215,18740
1085.96,1.319711,393215,18833
1090.84,1.317823,396270,19062
1094.49,1.313358,398760,19380
1098.14,1.315978,400987,19371
1101.79,1.313740,403477,19592
1105.43,1.322014,406116,19348
1109.06,1.318596,407701,19577
1112.7,1.324945,409859,19395
1117.53,1.323184,412494,19599
1121.15,1.316055,414909,20040
1124.77,1.324770,416559,19720
1128.38,1.322265,418532,19928
1131.99,1.319144,419956,20140
1135.6,1.319089,421946,20238
1139.2,1.325281,423881,20043
1143.99,1.324794,426786,20203
1147.58,1.314361,428617,20783
1151.17,1.328716,431169,20227
1154.75,1.324574,433579,20535
1158.33,1.318918,436264,20933
1161.91,1.321764,439132,20933
1165.48,1.322821,442389,21037
1169.04,1.326057,446101,21056
1173.79,1.309148,451929,22178
1177.34,1.322930,456026,21680
1180.9,1.326290,461306,21762
1184.44,1.322500,467657,22255
1187.99,1.321872,473969,22588
1191.52,1.324034,479856,22755
1195.06,1.316885,487372,23495
1199.76,1.323177,497347,23631
1203.29,1.325338,504311,23843
1206.81,1.319668,511507,24501
1210.33,1.327843,519078,24400
1213.84,1.326129,527163,24878
1217.35,1.322347,534208,25431
1220.85,1.321423,540472,25784
1225.51,1.325099,549929,26014
1229.01,1.324477,556888,26381
1232.5,1.324716,562180,26617
1235.98,1.317467,567975,27344
1239.46,1.321065,574815,27445
1242.94,1.327550,582782,27413
1246.41,1.317534,591476,28471
1251.03,1.327149,604016,28438
1254.5,1.330697,612289,28593
1257.96,1.327348,619125,29136
1261.41,1.324584,624551,29579
1264.86,1.329508,629900,29496
1268.31,1.328693,634345,29760
1271.75,1.324285,638574,30264
1276.33,1.331925,642499,29919
1279.76,1.327738,645905,30369
1283.19,1.327353,648307,30509
1286.61,1.330366,650446,30398
1290.03,1.334861,652132,30163
1293.44,1.328930,653907,30661
1296.85,1.333435,655963,30440
1301.39,1.331748,657349,30623
1304.8,1.333734,657558,30493
1308.19,1.332972,658515,30591
1311.58,1.335340,658804,30438
1314.97,1.333413,659011,30583
1318.36,1.327296,658272,30982
1321.73,1.335310,658022,30404
1326.23,1.337702,657870,30230
1329.6,1.331203,656482,30621
1332.97,1.332462,654926,30460
1336.33,1.336426,653727,30128
1339.69,1.329311,652497,30568
1343.04,1.333021,649913,30188
1346.39,1.331736,647671,30173
1349.73,1.329450,645338,30223
1354.18,1.330638,641175,29946
1357.52,1.332232,638376,29706
1360.85,1.334844,635805,29409
1364.17,1.327821,633413,29776
1367.49,1.328726,631026,29602
1370.81,1.328378,628050,29486
1374.12,1.329229,625034,29287
1378.54,1.324412,620272,29388
1381.84,1.330877,616892,28796
1385.14,1.328261,613613,28816
1388.43,1.328881,611526,28677
1391.72,1.327587,610663,28722
1395.01,1.331806,610634,28443
1398.29,1.332899,611700,28421
1402.66,1.334901,614051,28399
1405.93,1.329428,616268,28863
1409.2,1.326757,617795,29113
1412.46,1.331786,618872,28828
1415.72,1.330945,619795,28927
1418.98,1.329712,620495,29042
1422.23,1.326967,621087,29254
1426.56,1.335169,621375,28720
1429.8,1.331184,621616,28996
1433.04,1.331168,622129,29021
1436.27,1.335199,621526,28725
1439.5,1.330518,621113,29017
1442.72,1.333689,620921,28797
1445.94,1.329360,620270,29055
1450.23,1.334498,618860,28648
1453.44,1.333712,617697,28646
1456.64,1.331643,616264,28716
1459.85,1.332991,614413,28541
1463.04,1.338201,612307,28104
1466.24,1.332401,610032,28376
1469.43,1.332356,607345,28254
1473.67,1.334876,603789,27926
1476.85,1.338753,601175,27558
1480.02,1.336058,597737,27571
1483.19,1.336529,594479,27391
1486.36,1.335929,591232,27279
1489.52,1.338114,587853,26987
1492.68,1.335648,583875,26957
1496.89,1.344071,578062,26176
1500.03,1.337116,574159,26419
1503.18,1.337774,570285,26201
1506.32,1.340770,565444,25800
1509.45,1.340560,560571,25590
1512.58,1.341231,555821,25334
1515.71,1.337239,550344,25316
1519.87,1.344174,543983,24627
1522.99,1.337157,538764,24788
1526.1,1.342328,533692,24264
1529.21,1.343738,527902,23923
1532.32,1.340197,521886,23844
1535.42,1.336051,515888,23796
1538.51,1.340185,509987,23301
1541.6,1.334126,503936,23348
1545.72,1.338081,494694,22712
1548.8,1.325859,488378,23062
1551.88,1.339192,481832,22065
1554.95,1.337133,474989,21855
1558.02,1.337275,467818,21518
1561.08,1.339432,460730,21087
1564.15,1.330698,454170,21209
1568.22,1.331212,444181,20718
1571.27,1.339095,436947,20014
1574.32,1.343161,429598,19494
1577.36,1.335073,422039,19511
1580.4,1.338297,414375,19015
1583.43,1.335232,406354,18779
1586.46,1.338330,398475,18284
1590.49,1.333284,388982,18057
1593.51,1.328054,380708,17887
1596.53,1.329322,372727,17461
1599.54,1.334246,365060,16909
1602.55,1.336872,357543,16461
1605.55,1.338643,349495,16025
1608.55,1.332729,341154,15857
1612.54,1.321064,330877,15798
1615.53,1.329435,322904,15123
1618.51,1.331212,315116,14698
1621.49,1.330291,307217,14360
1624.47,1.321641,299481,14280
1627.44,1.330862,292112,13636
1630.41,1.332002,284245,13234
1634.36,1.331617,274079,12772
1637.32,1.325832,266916,12605
1640.27,1.327751,259612,12206
1643.22,1.338180,251804,11558
1646.16,1.329127,244348,11452
1649.1,1.346121,236703,10668
1652.04,1.309314,228171,11193
1655.95,1.316312,215408,10398
1658.88,1.338354,204937,9403
1661.8,1.322044,193395,9213
1664.72,1.317298,179728,8656
1667.63,1.319523,163642,7841
1670.54,1.300532,146312,7324
1673.44,1.321844,128451,6122
1677.31,1.310135,105080,5145
1680.21,1.314756,88906,4307
1683.1,1.327601,75033,3529
1685.99,1.305704,63520,3142
1688.87,1.354790,53714,2373
1691.75,1.358874,45653,1998
1694.62,1.392558,39137,1585
1697.49,1.330501,33776,1578
1701.31,1.275223,28175,1495

File: Column 1_078068_20241121_164354.csv
Method:,Column 1,,
Host Date-Time:,21/11/24 @ 16:43:54,,
Header Version:,1,,
System Temp (C):,31.36,,
Detector Temp (C):,26.27,,
Humidity (%):,5.22,,
Lamp PD:,3809,,
Shift Vector Coefficients:,-10.5391,0.0761263,-0.000134223,,
Pixel to Wavelength Coefficients:,1775.68,-0.916766,-0.000235065,,
Serial Number:,5510004,,
Scan Config Name:,Column 1,,
Scan Config Type:,Slew,,
Section 1,,
Start wavelength (nm):,900,,
End wavelength (nm):,1700,,
Pattern Pixel Width (nm):,   7.03,,,,
Exposure (ms):,  0.635,,,,
Digital Resolution:,228,,
Num Repeats:,6,,
PGA Gain:,64,,
Total Measurement Time in sec:,  2.709,,
Wavelength (nm),Absorbance (AU),Reference Signal (unitless),Sample Signal (unitless)
901.51,1.301691,108485,5416
905.376,1.294443,121306,6158
909.237,1.305095,131909,6534
913.095,1.292207,143299,7312
916.948,1.292434,156982,8006
922.079,1.296461,179937,9092
925.923,1.311962,200504,9776
929.762,1.311013,222660,10880
933.597,1.305506,244426,12096
937.427,1.295199,263972,13377
941.254,1.308247,281845,13860
945.076,1.309425,297271,14579
950.165,1.291994,315605,16112
953.978,1.306183,328029,16208
957.786,1.303345,340470,16933
961.59,1.297100,352317,17776
965.389,1.306369,363056,17931
969.185,1.301731,373162,18628
972.976,1.298373,382632,19249
976.763,1.302834,391202,19479
981.806,1.304615,400190,19845
985.583,1.307221,406088,20017
989.355,1.302453,410162,20441
993.124,1.297873,412868,20794
996.888,1.299505,414263,20786
1000.65,1.297694,415476,20934
1004.4,1.310583,415479,20322
1009.41,1.304966,414358,20531
1013.15,1.310023,412923,20223
1016.89,1.308767,411526,20213
1020.63,1.304383,409066,20296
1024.36,1.295110,406777,20618
1028.09,1.304574,404427,20057
1031.82,1.303447,401911,19984
1036.78,1.310296,398410,19500
1040.49,1.310901,396204,19365
1044.2,1.300453,394236,19738
1047.91,1.307955,392042,19292
1051.61,1.309766,389823,19103
1055.31,1.303581,388234,19298
1059,1.300223,387599,19416
1063.92,1.319767,386688,18518
1067.61,1.309948,386598,18937
1071.29,1.307373,387377,19088
1074.96,1.306062,388536,19203
1078.63,1.305458,389855,19295
1082.3,1.324212,391215,18544
1085.96,1.301179,393215,19654
1090.84,1.307667,396270,19513
1094.49,1.312865,398760,19402
1098.14,1.310963,400987,19596
1101.79,1.310318,403477,19747
1105.43,1.311788,406116,19809
1109.06,1.321958,407701,19426
1112.7,1.314830,409859,19852
1117.53,1.312114,412494,20105
1121.15,1.314088,414909,20131
1124.77,1.313724,416559,20228
1128.38,1.318727,418532,20091
1131.99,1.312935,419956,20430
1135.6,1.305526,421946,20880
1139.2,1.313756,423881,20582
1143.99,1.312795,426786,20769
1147.58,1.324937,428617,20283
1151.17,1.319664,431169,20653
1154.75,1.315967,433579,20946
1158.33,1.321331,436264,20817
1161.91,1.312953,439132,21362
1165.48,1.320350,442389,21157
1169.04,1.309843,446101,21857
1173.79,1.322854,451929,21489
1177.34,1.316883,456026,21984
1180.9,1.315003,461306,22335
1184.44,1.315454,467657,22619
1187.99,1.307817,473969,23331
1191.52,1.315006,479856,23233
1195.06,1.319406,487372,23359
1199.76,1.312790,497347,24203
1203.29,1.312682,504311,24548
1206.81,1.318164,511507,24586
1210.33,1.316009,519078,25074
1213.84,1.311556,527163,25727
1217.35,1.320660,534208,25530
1220.85,1.321642,540472,25771
1225.51,1.321690,549929,26219
1229.01,1.324328,556888,26390
1232.5,1.319284,562180,26952
1235.98,1.321472,567975,27093
1239.46,1.322333,574815,27365
1242.94,1.319497,582782,27926
1246.41,1.326224,591476,27907
1251.03,1.322093,604016,28771
1254.5,1.320890,612289,29246
1257.96,1.320986,619125,29566
1261.41,1.321104,624551,29817
1264.86,1.322672,629900,29964
1268.31,1.334717,634345,29350
1271.75,1.323253,638574,30336
1276.33,1.321669,642499,30634
1279.76,1.322211,645905,30758
1283.19,1.326514,648307,30568
1286.61,1.327135,650446,30625
1290.03,1.332205,652132,30348
1293.44,1.329256,653907,30638
1296.85,1.328089,655963,30817
1301.39,1.330516,657349,30710
1304.8,1.327554,657558,30930
1308.19,1.334180,658515,30506
1311.58,1.332071,658804,30668
1314.97,1.328218,659011,30951
1318.36,1.333522,658272,30541
1321.73,1.327917,658022,30926
1326.23,1.328955,657870,30845
1329.6,1.329646,656482,30731
1332.97,1.328234,654926,30758
1336.33,1.321771,653727,31162
1339.69,1.333107,652497,30302
1343.04,1.323699,649913,30843
1346.39,1.331290,647671,30204
1349.73,1.324577,645338,30564
1354.18,1.320830,641175,30630
1357.52,1.324725,638376,30224
1360.85,1.324051,635805,30149
1364.17,1.322573,633413,30138
1367.49,1.323563,631026,29956
1370.81,1.323618,628050,29811
1374.12,1.326199,625034,29492
1378.54,1.327601,620272,29173
1381.84,1.327796,616892,29001
1385.14,1.328035,613613,28831
1388.43,1.326299,611526,28848
1391.72,1.325821,610663,28839
1395.01,1.324478,610634,28927
1398.29,1.328384,611700,28718
1402.66,1.324640,614051,29078
1405.93,1.327911,616268,28964
1409.2,1.325447,617795,29201
1412.46,1.322103,618872,29478
1415.72,1.329865,619795,28999
1418.98,1.330071,620495,29018
1422.23,1.331099,621087,28977
1426.56,1.324593,621375,29428
1429.8,1.325944,621616,29348
1433.04,1.326524,622129,29333
1436.27,1.331781,621526,28952
1439.5,1.331312,621113,28964
1442.72,1.333116,620921,28835
1445.94,1.331127,620270,28937
1450.23,1.335743,618860,28566
1453.44,1.331594,617697,28786
1456.64,1.338042,616264,28296
1459.85,1.333067,614413,28536
1463.04,1.332933,612307,28447
1466.24,1.336554,610032,28106
1469.43,1.330132,607345,28399
1473.67,1.331361,603789,28153
1476.85,1.331331,601175,28033
1480.02,1.337620,597737,27472
1483.19,1.335942,594479,27428
1486.36,1.327120,591232,27838
1489.52,1.332232,587853,27355
1492.68,1.333912,583875,27065
1496.89,1.335057,578062,26725
1500.03,1.329248,574159,26902
1503.18,1.335311,570285,26350
1506.32,1.332120,565444,26319
1509.45,1.336742,560571,25816
1512.58,1.337918,555821,25528
1515.71,1.328947,550344,25804
1519.87,1.334512,543983,25181
1522.99,1.324501,538764,25521
1526.1,1.334611,533692,24699
1529.21,1.338828,527902,24195
1532.32,1.338252,521886,23951
1535.42,1.328417,515888,24218
1538.51,1.329434,509987,23885
1541.6,1.336177,503936,23238
1545.72,1.329317,494694,23175
1548.8,1.333573,488378,22656
1551.88,1.334201,481832,22320
1554.95,1.331957,474989,22117
1558.02,1.330944,467818,21834
1561.08,1.342408,460730,20943
1564.15,1.324820,454170,21498
1568.22,1.333461,444181,20611
1571.27,1.332078,436947,20340
1574.32,1.332858,429598,19962
1577.36,1.330578,422039,19714
1580.4,1.328943,414375,19429
1583.43,1.331227,406354,18953
1586.46,1.323434,398475,18922
1590.49,1.321164,388982,18568
1593.51,1.327763,380708,17899
1596.53,1.330767,372727,17403
1599.54,1.327215,365060,17185
1602.55,1.320739,357543,17084
1605.55,1.316635,349495,16858
1608.55,1.329129,341154,15989
1612.54,1.333247,330877,15361
1615.53,1.329780,322904,15111
1618.51,1.316627,315116,15200
1621.49,1.311644,307217,14990
1624.47,1.312701,299481,14577
1627.44,1.310760,292112,14282
1630.41,1.318369,284245,13656
1634.36,1.307799,274079,13492
1637.32,1.318419,266916,12822
1640.27,1.321324,259612,12388
1643.22,1.316558,251804,12148
1646.16,1.307058,244348,12049
1649.1,1.317680,236703,11390
1652.04,1.329567,228171,10683
1655.95,1.302298,215408,10739
1658.88,1.312229,204937,9986
1661.8,1.305806,193395,9564
1664.72,1.307182,179728,8860
1667.63,1.313965,163642,7942
1670.54,1.310306,146312,7161
1673.44,1.305964,128451,6350
1677.31,1.278559,105080,5533
1680.21,1.271963,88906,4753
1683.1,1.267476,75033,4053
1685.99,1.276830,63520,3358
1688.87,1.310793,53714,2626
1691.75,1.243162,45653,2608
1694.62,1.274733,39137,2079
1697.49,1.222183,33776,2025
1701.31,1.356793,28175,1239