Folder: textile_sorting_NIRSCAN_/ML/samples/unknown (part 26)

File: Column 1_078168_20241121_164848.csv
Method:,Column 1,,
Host Date-Time:,21/11/24 @ 16:48:48,,
Header Version:,1,,
System Temp (C):,33.49,,
Detector Temp (C):,29.81,,
Humidity (%):,3.33,,
Lamp PD:,3805,,
Shift Vector Coefficients:,-10.5391,0.0761263,-0.000134223,,
Pixel to Wavelength Coefficients:,1775.68,-0.916766,-0.000235065,,
Serial Number:,5510004,,
Scan Config Name:,Column 1,,
Scan Config Type:,Slew,,
Section 1,,
Start wavelength (nm):,900,,
End wavelength (nm):,1700,,
Pattern Pixel Width (nm):,   7.03,,,,
Exposure (ms):,  0.635,,,,
Digital Resolution:,228,,
Num Repeats:,6,,
PGA Gain:,64,,
Total Measurement Time in sec:,  2.727,,
Wavelength (nm),Absorbance (AU),Reference Signal (unitless),Sample Signal (unitless)
901.51,1.291077,108485,5550
905.376,1.289115,121306,6234
909.237,1.310849,131909,6448
913.095,1.326811,143299,6752
916.948,1.297893,156982,7906
922.079,1.307687,179937,8860
925.923,1.301863,200504,10006
929.762,1.301459,222660,11122
933.597,1.312710,244426,11897
937.427,1.308350,263972,12978
941.254,1.315323,281845,13636
945.076,1.315786,297271,14367
950.165,1.307972,315605,15530
953.978,1.305995,328029,16215
957.786,1.304115,340470,16903
961.59,1.316766,352317,16989
965.389,1.305546,363056,17965
969.185,1.303109,373162,18569
972.976,1.297742,382632,19277
976.763,1.305541,391202,19358
981.806,1.299784,400190,20067
985.583,1.302646,406088,20229
989.355,1.306252,410162,20263
993.124,1.300996,412868,20645
996.888,1.303472,414263,20597
1000.65,1.305903,415476,20542
1004.4,1.295297,415479,21050
1009.41,1.303487,414358,20601
1013.15,1.304518,412923,20481
1016.89,1.310316,411526,20141
1020.63,1.306227,409066,20210
1024.36,1.312056,406777,19829
1028.09,1.310570,404427,19782
1031.82,1.305059,401911,19910
1036.78,1.312596,398410,19397
1040.49,1.310767,396204,19371
1044.2,1.310694,394236,19278
1047.91,1.316572,392042,18913
1051.61,1.310881,389823,19054
1055.31,1.301897,388234,19373
1059,1.302038,387599,19335
1063.92,1.306327,386688,19100
1067.61,1.304909,386598,19158
1071.29,1.309700,387377,18986
1074.96,1.303806,388536,19303
1078.63,1.306337,389855,19256
1082.3,1.314463,391215,18965
1085.96,1.309523,393215,19280
1090.84,1.312007,396270,19319
1094.49,1.315132,398760,19301
1098.14,1.313742,400987,19471
1101.79,1.314050,403477,19578
1105.43,1.309426,406116,19917
1109.06,1.310290,407701,19955
1112.7,1.307391,409859,20195
1117.53,1.308500,412494,20273
1121.15,1.311914,414909,20232
1124.77,1.313702,416559,20229
1128.38,1.320460,418532,20011
1131.99,1.320743,419956,20066
1135.6,1.311516,421946,20594
1139.2,1.311358,423881,20696
1143.99,1.309399,426786,20932
1147.58,1.315177,428617,20744
1151.17,1.323997,431169,20448
1154.75,1.317359,433579,20879
1158.33,1.312350,436264,21252
1161.91,1.321784,439132,20932
1165.48,1.318507,442389,21247
1169.04,1.308612,446101,21919
1173.79,1.306512,451929,22313
1177.34,1.317318,456026,21962
1180.9,1.318321,461306,22165
1184.44,1.311897,467657,22805
1187.99,1.314324,473969,22984
1191.52,1.317273,479856,23112
1195.06,1.320374,487372,23307
1199.76,1.319226,497347,23847
1203.29,1.319925,504311,24142
1206.81,1.324498,511507,24230
1210.33,1.318597,519078,24925
1213.84,1.322912,527163,25063
1217.35,1.319403,534208,25604
1220.85,1.323347,540472,25670
1225.51,1.320417,549929,26296
1229.01,1.317115,556888,26832
1232.5,1.324863,562180,26608
1235.98,1.324157,567975,26926
1239.46,1.317660,574815,27661
1242.94,1.325463,582782,27545
1246.41,1.327081,591476,27852
1251.03,1.322562,604016,28740
1254.5,1.325128,612289,28962
1257.96,1.325252,619125,29277
1261.41,1.320464,624551,29861
1264.86,1.326194,629900,29722
1268.31,1.326814,634345,29889
1271.75,1.324285,638574,30264
1276.33,1.328254,642499,30173
1279.76,1.328798,645905,30295
1283.19,1.326798,648307,30548
1286.61,1.322004,650446,30989
1290.03,1.330036,652132,30500
1293.44,1.324350,653907,30986
1296.85,1.326513,655963,30929
1301.39,1.328034,657349,30886
1304.8,1.330881,657558,30694
1308.19,1.327779,658515,30959
1311.58,1.331321,658804,30721
1314.97,1.330906,659011,30760
1318.36,1.329925,658272,30795
1321.73,1.330579,658022,30737
1326.23,1.323805,657870,31213
1329.6,1.323821,656482,31146
1332.97,1.332420,654926,30463
1336.33,1.333180,653727,30354
1339.69,1.328843,652497,30601
1343.04,1.329168,649913,30457
1346.39,1.329668,647671,30317
1349.73,1.331019,645338,30114
1354.18,1.325979,641175,30269
1357.52,1.325717,638376,30155
1360.85,1.327595,635805,29904
1364.17,1.331394,633413,29532
1367.49,1.328653,631026,29607
1370.81,1.316781,628050,30284
1374.12,1.328754,625034,29319
1378.54,1.325107,620272,29341
1381.84,1.322527,616892,29355
1385.14,1.324151,613613,29090
1388.43,1.326857,611526,28811
1391.72,1.327572,610663,28723
1395.01,1.329385,610634,28602
1398.29,1.324995,611700,28943
1402.66,1.328029,614051,28852
1405.93,1.329985,616268,28826
1409.2,1.329121,617795,28955
1412.46,1.332480,618872,28782
1415.72,1.335836,619795,28603
1418.98,1.324140,620495,29417
1422.23,1.332691,621087,28871
1426.56,1.331180,621375,28985
1429.8,1.329003,621616,29142
1433.04,1.328795,622129,29180
1436.27,1.336335,621526,28650
1439.5,1.329770,621113,29067
1442.72,1.332921,620921,28848
1445.94,1.334911,620270,28686
1450.23,1.335728,618860,28567
1453.44,1.336297,617697,28476
1456.64,1.329215,616264,28877
1459.85,1.330276,614413,28720
1463.04,1.329133,612307,28697
1466.24,1.331988,610032,28403
1469.43,1.335890,607345,28025
1473.67,1.335468,603789,27888
1476.85,1.334597,601175,27823
1480.02,1.333106,597737,27759
1483.19,1.333700,594479,27570
1486.36,1.329184,591232,27706
1489.52,1.330347,587853,27474
1492.68,1.334345,583875,27038
1496.89,1.339352,578062,26462
1500.03,1.339853,574159,26253
1503.18,1.333995,570285,26430
1506.32,1.340148,565444,25837
1509.45,1.339831,560571,25633
1512.58,1.342192,555821,25278
1515.71,1.337291,550344,25313
1519.87,1.340714,543983,24824
1522.99,1.343955,538764,24403
1526.1,1.335298,533692,24660
1529.21,1.339528,527902,24156
1532.32,1.336569,521886,24044
1535.42,1.331097,515888,24069
1538.51,1.326661,509987,24038
1541.6,1.330790,503936,23528
1545.72,1.336478,494694,22796
1548.8,1.340042,488378,22321
1551.88,1.332725,481832,22396
1554.95,1.329685,474989,22233
1558.02,1.334920,467818,21635
1561.08,1.332120,460730,21445
1564.15,1.330555,454170,21216
1568.22,1.329538,444181,20798
1571.27,1.332933,436947,20300
1574.32,1.327453,429598,20212
1577.36,1.326630,422039,19894
1580.4,1.326714,414375,19529
1583.43,1.335973,406354,18747
1586.46,1.330561,398475,18614
1590.49,1.325064,388982,18402
1593.51,1.329392,380708,17832
1596.53,1.327708,372727,17526
1599.54,1.326836,365060,17200
1602.55,1.322496,357543,17015
1605.55,1.325457,349495,16519
1608.55,1.321109,341154,16287
1612.54,1.329896,330877,15480
1615.53,1.322965,322904,15350
1618.51,1.311655,315116,15375
1621.49,1.313618,307217,14922
1624.47,1.322859,299481,14240
1627.44,1.307911,292112,14376
1630.41,1.309929,284245,13924
1634.36,1.307960,274079,13487
1637.32,1.321512,266916,12731
1640.27,1.306979,259612,12804
1643.22,1.301693,251804,12571
1646.16,1.316863,244348,11780
1649.1,1.318711,236703,11363
1652.04,1.305913,228171,11281
1655.95,1.291751,215408,11003
1658.88,1.291342,204937,10478
1661.8,1.287358,193395,9979
1664.72,1.278220,179728,9471
1667.63,1.269215,163642,8804
1670.54,1.276371,146312,7743
1673.44,1.265442,128451,6971
1677.31,1.250521,105080,5902
1680.21,1.184904,88906,5808
1683.1,1.198102,75033,4755
1685.99,1.264966,63520,3451
1688.87,1.256309,53714,2977
1691.75,1.239679,45653,2629
1694.62,1.179791,39137,2587
1697.49,1.293080,33776,1720
1701.31,1.158939,28175,1954

File: Column 1_078171_20241121_164857.csv
Method:,Column 1,,
Host Date-Time:,21/11/24 @ 16:48:57,,
Header Version:,1,,
System Temp (C):,33.45,,
Detector Temp (C):,29.82,,
Humidity (%):,3.43,,
Lamp PD:,3805,,
Shift Vector Coefficients:,-10.5391,0.0761263,-0.000134223,,
Pixel to Wavelength Coefficients:,1775.68,-0.916766,-0.000235065,,
Serial Number:,5510004,,
Scan Config Name:,Column 1,,
Scan Config Type:,Slew,,
Section 1,,
Start wavelength (nm):,900,,
End wavelength (nm):,1700,,
Pattern Pixel Width (nm):,   7.03,,,,
Exposure (ms):,  0.635,,,,
Digital Resolution:,228,,
Num Repeats:,6,,
PGA Gain:,64,,
Total Measurement Time in sec:,  2.695,,
Wavelength (nm),Absorbance (AU),Reference Signal (unitless),Sample Signal (unitless)
901.51,1.304910,108485,5376
905.376,1.339355,121306,5553
909.237,1.327183,131909,6210
913.095,1.309164,143299,7032
916.948,1.329090,156982,7358
922.079,1.330273,179937,8411
925.923,1.300043,200504,10048
929.762,1.323485,222660,10572
933.597,1.334915,244426,11304
937.427,1.320602,263972,12617
941.254,1.321708,281845,13437
945.076,1.325105,297271,14062
950.165,1.339817,315605,14432
953.978,1.315335,328029,15870
957.786,1.318535,340470,16351
961.59,1.309641,352317,17270
965.389,1.306611,363056,17921
969.185,1.319773,373162,17870
972.976,1.318176,382632,18391
976.763,1.305227,391202,19372
981.806,1.309612,400190,19618
985.583,1.305921,406088,20077
989.355,1.311318,410162,20028
993.124,1.315759,412868,19955
996.888,1.305078,414263,20521
1000.65,1.307895,415476,20448
1004.4,1.311074,415479,20299
1009.41,1.310543,414358,20269
1013.15,1.309401,412923,20252
1016.89,1.306709,411526,20309
1020.63,1.314471,409066,19830
1024.36,1.312823,406777,19794
1028.09,1.300844,404427,20230
1031.82,1.312717,401911,19562
1036.78,1.315358,398410,19274
1040.49,1.308374,396204,19478
1044.2,1.308537,394236,19374
1047.91,1.302053,392042,19556
1051.61,1.312571,389823,18980
1055.31,1.313207,388234,18875
1059,1.308055,387599,19069
1063.92,1.319274,386688,18539
1067.61,1.315163,386598,18711
1071.29,1.317036,387377,18668
1074.96,1.309627,388536,19046
1078.63,1.313225,389855,18953
1082.3,1.314531,391215,18962
1085.96,1.312847,393215,19133
1090.84,1.311198,396270,19355
1094.49,1.320748,398760,19053
1098.14,1.308488,400987,19708
1101.79,1.323900,403477,19139
1105.43,1.317303,406116,19559
1109.06,1.312975,407701,19832
1112.7,1.310867,409859,20034
1117.53,1.317591,412494,19853
1121.15,1.315232,414909,20078
1124.77,1.318191,416559,20021
1128.38,1.324998,418532,19803
1131.99,1.319597,419956,20119
1135.6,1.320207,421946,20186
1139.2,1.317912,423881,20386
1143.99,1.321113,426786,20375
1147.58,1.318034,428617,20608
1151.17,1.318195,431169,20723
1154.75,1.324256,433579,20550
1158.33,1.324346,436264,20673
1161.91,1.318786,439132,21077
1165.48,1.323275,442389,21015
1169.04,1.309545,446101,21872
1173.79,1.325469,451929,21360
1177.34,1.319339,456026,21860
1180.9,1.320600,461306,22049
1184.44,1.320864,467657,22339
1187.99,1.317587,473969,22812
1191.52,1.327118,479856,22594
1195.06,1.325340,487372,23042
1199.76,1.322535,497347,23666
1203.29,1.312647,504311,24550
1206.81,1.317564,511507,24620
1210.33,1.324863,519078,24568
1213.84,1.324770,527163,24956
1217.35,1.316091,534208,25800
1220.85,1.324805,540472,25584
1225.51,1.323566,549929,26106
1229.01,1.323753,556888,26425
1232.5,1.322649,562180,26744
1235.98,1.323706,567975,26954
1239.46,1.328213,574815,26997
1242.94,1.327708,582782,27403
1246.41,1.326131,591476,27913
1251.03,1.325442,604016,28550
1254.5,1.327398,612289,28811
1257.96,1.327125,619125,29151
1261.41,1.327738,624551,29365
1264.86,1.323528,629900,29905
1268.31,1.328430,634345,29778
1271.75,1.332309,638574,29710
1276.33,1.326874,642499,30269
1279.76,1.326054,645905,30487
1283.19,1.330783,648307,30269
1286.61,1.329410,650446,30465
1290.03,1.328969,652132,30575
1293.44,1.327403,653907,30769
1296.85,1.328244,655963,30806
1301.39,1.329415,657349,30788
1304.8,1.325719,657558,31061
1308.19,1.331866,658515,30669
1311.58,1.335654,658804,30416
1314.97,1.327923,659011,30972
1318.36,1.328236,658272,30915
1321.73,1.334582,658022,30455
1326.23,1.333812,657870,30502
1329.6,1.341305,656482,29917
1332.97,1.334348,654926,30328
1336.33,1.339522,653727,29914
1339.69,1.331719,652497,30399
1343.04,1.329154,649913,30458
1346.39,1.329396,647671,30336
1349.73,1.335105,645338,29832
1354.18,1.328742,641175,30077
1357.52,1.333594,638376,29613
1360.85,1.326927,635805,29950
1364.17,1.330366,633413,29602
1367.49,1.330093,631026,29509
1370.81,1.329233,628050,29428
1374.12,1.329466,625034,29271
1378.54,1.331880,620272,28887
1381.84,1.332494,616892,28689
1385.14,1.332593,613613,28530
1388.43,1.326932,611526,28806
1391.72,1.328677,610663,28650
1395.01,1.330434,610634,28533
1398.29,1.328929,611700,28682
1402.66,1.335360,614051,28369
1405.93,1.330830,616268,28770
1409.2,1.336198,617795,28487
1412.46,1.331335,618872,28858
1415.72,1.332841,619795,28801
1418.98,1.334478,620495,28725
1422.23,1.334409,621087,28757
1426.56,1.332817,621375,28876
1429.8,1.335625,621616,28701
1433.04,1.336816,622129,28646
1436.27,1.336896,621526,28613
1439.5,1.335364,621113,28695
1442.72,1.333704,620921,28796
1445.94,1.331698,620270,28899
1450.23,1.339162,618860,28342
1453.44,1.331956,617697,28762
1456.64,1.329455,616264,28861
1459.85,1.339445,614413,28120
1463.04,1.334049,612307,28374
1466.24,1.340980,610032,27821
1469.43,1.336588,607345,27980
1473.67,1.337716,603789,27744
1476.85,1.337887,601175,27613
1480.02,1.337067,597737,27507
1483.19,1.338244,594479,27283
1486.36,1.329749,591232,27670
1489.52,1.338662,587853,26953
1492.68,1.340215,583875,26675
1496.89,1.343640,578062,26202
1500.03,1.342092,574159,26118
1503.18,1.330949,570285,26616
1506.32,1.338236,565444,25951
1509.45,1.333340,560571,26019
1512.58,1.338974,555821,25466
1515.71,1.336177,550344,25378
1519.87,1.338550,543983,24948
1522.99,1.338631,538764,24704
1526.1,1.348729,533692,23909
1529.21,1.343683,527902,23926
1532.32,1.344296,521886,23620
1535.42,1.335358,515888,23834
1538.51,1.342183,509987,23194
1541.6,1.338519,503936,23113
1545.72,1.333649,494694,22945
1548.8,1.339148,488378,22367
1551.88,1.337208,481832,22166
1554.95,1.330898,474989,22171
1558.02,1.342677,467818,21252
1561.08,1.331979,460730,21452
1564.15,1.339239,454170,20796
1568.22,1.333313,444181,20618
1571.27,1.336391,436947,20139
1574.32,1.337693,429598,19741
1577.36,1.336701,422039,19438
1580.4,1.332309,414375,19279
1583.43,1.340046,406354,18572
1586.46,1.324698,398475,18867
1590.49,1.332347,388982,18096
1593.51,1.329246,380708,17838
1596.53,1.315540,372727,18024
1599.54,1.333015,365060,16957
1602.55,1.337532,357543,16436
1605.55,1.334301,349495,16186
1608.55,1.340467,341154,15577
1612.54,1.321615,330877,15778
1615.53,1.328317,322904,15162
1618.51,1.333493,315116,14621
1621.49,1.331957,307217,14305
1624.47,1.321276,299481,14292
1627.44,1.329336,292112,13684
1630.41,1.321497,284245,13558
1634.36,1.322265,274079,13050
1637.32,1.305866,266916,13198
1640.27,1.331970,259612,12088
1643.22,1.319391,251804,12069
1646.16,1.305834,244348,12083
1649.1,1.319591,236703,11340
1652.04,1.319243,228171,10940
1655.95,1.323981,215408,10216
1658.88,1.302637,204937,10209
1661.8,1.312625,193395,9415
1664.72,1.289555,179728,9227
1667.63,1.276527,163642,8657
1670.54,1.281732,146312,7648
1673.44,1.305964,128451,6350
1677.31,1.249639,105080,5914
1680.21,1.217745,88906,5385
1683.1,1.239568,75033,4322
1685.99,1.215424,63520,3868
1688.87,1.208949,53714,3320
1691.75,1.226981,45653,2707
1694.62,1.332755,39137,1819
1697.49,1.206182,33776,2101
1701.31,1.255905,28175,1563

File: Column 1_078174_20241121_164906.csv
Method:,Column 1,,
Host Date-Time:,21/11/24 @ 16:49:6,,
Header Version:,1,,
System Temp (C):,33.54,,
Detector Temp (C):,29.87,,
Humidity (%):,3.43,,
Lamp PD:,3805,,
Shift Vector Coefficients:,-10.5391,0.0761263,-0.000134223,,
Pixel to Wavelength Coefficients:,1775.68,-0.916766,-0.000235065,,
Serial Number:,5510004,,
Scan Config Name:,Column 1,,
Scan Config Type:,Slew,,
Section 1,,
Start wavelength (nm):,900,,
End wavelength (nm):,1700,,
Pattern Pixel Width (nm):,   7.03,,,,
Exposure (ms):,  0.635,,,,
Digital Resolution:,228,,
Num Repeats:,6,,
PGA Gain:,64,,
Total Measurement Time in sec:,  2.708,,
Wavelength (nm),Absorbance (AU),Reference Signal (unitless),Sample Signal (unitless)
901.51,1.293037,108485,5525
905.376,1.320230,121306,5803
909.237,1.333168,131909,6125
913.095,1.300906,143299,7167
916.948,1.357064,156982,6899
922.079,1.341042,179937,8205
925.923,1.325406,200504,9478
929.762,1.315790,222660,10761
933.597,1.314502,244426,11848
937.427,1.323053,263972,12546
941.254,1.301500,281845,14077
945.076,1.315001,297271,14393
950.165,1.310722,315605,15432
953.978,1.318659,328029,15749
957.786,1.302295,340470,16974
961.59,1.312669,352317,17150
965.389,1.307072,363056,17902
969.185,1.311945,373162,18195
972.976,1.311893,382632,18659
976.763,1.314288,391202,18972
981.806,1.315047,400190,19374
985.583,1.309353,406088,19919
989.355,1.313078,410162,19947
993.124,1.310976,412868,20176
996.888,1.310851,414263,20250
1000.65,1.301779,415476,20738
1004.4,1.307835,415479,20451
1009.41,1.307980,414358,20389
1013.15,1.314904,412923,19997
1016.89,1.306132,411526,20336
1020.63,1.302738,409066,20373
1024.36,1.304650,406777,20170
1028.09,1.305897,404427,19996
1031.82,1.313962,401911,19506
1036.78,1.306526,398410,19670
1040.49,1.303056,396204,19718
1044.2,1.300035,394236,19757
1047.91,1.305867,392042,19385
1051.61,1.310289,389823,19080
1055.31,1.314543,388234,18817
1059,1.317262,387599,18669
1063.92,1.309545,386688,18959
1067.61,1.314050,386598,18759
1071.29,1.314138,387377,18793
1074.96,1.313291,388536,18886
1078.63,1.312401,389855,18989
1082.3,1.310519,391215,19138
1085.96,1.307545,393215,19368
1090.84,1.319078,396270,19007
1094.49,1.316484,398760,19241
1098.14,1.317393,400987,19308
1101.79,1.325833,403477,19054
1105.43,1.312973,406116,19755
1109.06,1.308943,407701,20017
1112.7,1.314131,409859,19884
1117.53,1.315736,412494,19938
1121.15,1.314346,414909,20119
1124.77,1.319298,416559,19970
1128.38,1.315668,418532,20233
1131.99,1.327923,419956,19737
1135.6,1.320616,421946,20167
1139.2,1.323141,423881,20142
1143.99,1.323485,426786,20264
1147.58,1.332301,428617,19942
1151.17,1.321730,431169,20555
1154.75,1.328184,433579,20365
1158.33,1.324052,436264,20687
1161.91,1.316833,439132,21172
1165.48,1.308825,442389,21726
1169.04,1.332018,446101,20769
1173.79,1.311524,451929,22057
1177.34,1.321011,456026,21776
1180.9,1.314673,461306,22352
1184.44,1.319195,467657,22425
1187.99,1.323876,473969,22484
1191.52,1.315230,479856,23221
1195.06,1.329145,487372,22841
1199.76,1.329602,497347,23284
1203.29,1.321276,504311,24067
1206.81,1.322745,511507,24328
1210.33,1.318388,519078,24937
1213.84,1.322271,527163,25100
1217.35,1.332926,534208,24819
1220.85,1.317182,540472,26037
1225.51,1.322984,549929,26141
1229.01,1.325977,556888,26290
1232.5,1.327138,562180,26469
1235.98,1.323561,567975,26963
1239.46,1.321461,574815,27420
1242.94,1.325038,582782,27572
1246.41,1.323695,591476,28070
1251.03,1.320722,604016,28862
1254.5,1.325218,612289,28956
1257.96,1.326054,619125,29223
1261.41,1.328834,624551,29291
1264.86,1.326267,629900,29717
1268.31,1.328459,634345,29776
1271.75,1.321097,638574,30487
1276.33,1.334283,642499,29757
1279.76,1.330939,645905,30146
1283.19,1.331371,648307,30228
1286.61,1.326738,650446,30653
1290.03,1.330677,652132,30455
1293.44,1.329213,653907,30641
1296.85,1.327582,655963,30853
1301.39,1.328625,657349,30844
1304.8,1.332042,657558,30612
1308.19,1.334494,658515,30484
1311.58,1.336426,658804,30362
1314.97,1.326482,659011,31075
1318.36,1.329587,658272,30819
1321.73,1.335810,658022,30369
1326.23,1.338320,657870,30187
1329.6,1.333978,656482,30426
1332.97,1.337049,654926,30140
1336.33,1.331567,653727,30467
1339.69,1.327200,652497,30717
1343.04,1.331656,649913,30283
1346.39,1.333264,647671,30067
1349.73,1.331654,645338,30070
1354.18,1.332644,641175,29808
1357.52,1.331035,638376,29788
1360.85,1.331006,635805,29670
1364.17,1.327573,633413,29793
1367.49,1.328462,631026,29620
1370.81,1.335836,628050,28984
1374.12,1.336436,625034,28805
1378.54,1.329511,620272,29045
1381.84,1.328261,616892,28970
1385.14,1.330482,613613,28669
1388.43,1.324676,611526,28956
1391.72,1.324063,610663,28956
1395.01,1.327309,610634,28739
1398.29,1.326001,611700,28876
1402.66,1.328119,614051,28846
1405.93,1.331918,616268,28698
1409.2,1.328731,617795,28981
1412.46,1.334113,618872,28674
1415.72,1.328594,619795,29084
1418.98,1.333255,620495,28806
1422.23,1.332796,621087,28864
1426.56,1.325450,621375,29370
1429.8,1.338281,621616,28526
1433.04,1.336029,622129,28698
1436.27,1.332531,621526,28902
1439.5,1.329920,621113,29057
1442.72,1.332018,620921,28908
1445.94,1.336017,620270,28613
1450.23,1.333801,618860,28694
1453.44,1.336190,617697,28483
1456.64,1.337766,616264,28314
1459.85,1.335096,614413,28403
1463.04,1.333590,612307,28404
1466.24,1.336847,610032,28087
1469.43,1.338673,607345,27846
1473.67,1.335156,603789,27908
1476.85,1.339573,601175,27506
1480.02,1.330813,597737,27906
1483.19,1.340239,594479,27158
1486.36,1.334023,591232,27399
1489.52,1.342075,587853,26742
1492.68,1.330523,583875,27277
1496.89,1.340914,578062,26367
1500.03,1.344544,574159,25971
1503.18,1.338936,570285,26131
1506.32,1.338922,565444,25910
1509.45,1.339002,560571,25682
1512.58,1.342347,555821,25269
1515.71,1.342451,550344,25014
1519.87,1.343223,543983,24681
1522.99,1.336737,538764,24812
1526.1,1.341220,533692,24326
1529.21,1.338882,527902,24192
1532.32,1.338270,521886,23950
1535.42,1.339754,515888,23594
1538.51,1.341416,509987,23235
1541.6,1.333865,503936,23362
1545.72,1.338636,494694,22683
1548.8,1.340393,488378,22303
1551.88,1.335859,481832,22235
1554.95,1.333236,474989,22052
1558.02,1.332757,467818,21743
1561.08,1.331857,460730,21458
1564.15,1.333822,454170,21057
1568.22,1.329601,444181,20795
1571.27,1.332890,436947,20302
1574.32,1.337297,429598,19759
1577.36,1.343320,422039,19144
1580.4,1.338869,414375,18990
1583.43,1.329603,406354,19024
1586.46,1.334334,398475,18453
1590.49,1.333549,388982,18046
1593.51,1.328978,380708,17849
1596.53,1.326446,372727,17577
1599.54,1.328632,365060,17129
1602.55,1.327141,357543,16834
1605.55,1.329180,349495,16378
1608.55,1.338519,341154,15647
1612.54,1.329503,330877,15494
1615.53,1.332057,322904,15032
1618.51,1.329973,315116,14740
1621.49,1.327607,307217,14449
1624.47,1.313775,299481,14541
1627.44,1.321941,292112,13919
1630.41,1.310210,284245,13915
1634.36,1.314841,274079,13275
1637.32,1.310132,266916,13069
1640.27,1.304274,259612,12884
1643.22,1.314703,251804,12200
1646.16,1.309045,244348,11994
1649.1,1.305907,236703,11703
1652.04,1.312507,228171,11111
1655.95,1.299637,215408,10805
1658.88,1.297899,204937,10321
1661.8,1.292612,193395,9859
1664.72,1.299217,179728,9024
1667.63,1.282640,163642,8536
1670.54,1.270244,146312,7853
1673.44,1.277828,128451,6775
1677.31,1.244892,105080,5979
1680.21,1.231427,88906,5218
1683.1,1.285973,75033,3884
1685.99,1.208739,63520,3928
1688.87,1.190635,53714,3463
1691.75,1.290068,45653,2341
1694.62,1.134706,39137,2870
1697.49,1.210963,33776,2078
1701.31,1.336589,28175,1298