Folder: textile_sorting_NIRSCAN_/ML/samples/unknown (part 130)

File: Column 1_078963_20241121_173038.csv
Method:,Column 1,,
Host Date-Time:,21/11/24 @ 17:30:38,,
Header Version:,1,,
System Temp (C):,37.79,,
Detector Temp (C):,36.83,,
Humidity (%):,0.64,,
Lamp PD:,3795,,
Shift Vector Coefficients:,-10.5391,0.0761263,-0.000134223,,
Pixel to Wavelength Coefficients:,1775.68,-0.916766,-0.000235065,,
Serial Number:,5510004,,
Scan Config Name:,Column 1,,
Scan Config Type:,Slew,,
Section 1,,
Start wavelength (nm):,900,,
End wavelength (nm):,1700,,
Pattern Pixel Width (nm):,   7.03,,,,
Exposure (ms):,  0.635,,,,
Digital Resolution:,228,,
Num Repeats:,6,,
PGA Gain:,64,,
Total Measurement Time in sec:,  2.728,,
Wavelength (nm),Absorbance (AU),Reference Signal (unitless),Sample Signal (unitless)
901.51,1.300890,108485,5426
905.376,1.294020,121306,6164
909.237,1.297714,131909,6646
913.095,1.309844,143299,7021
916.948,1.322820,156982,7465
922.079,1.326059,179937,8493
925.923,1.309570,200504,9830
929.762,1.311333,222660,10872
933.597,1.313185,244426,11884
937.427,1.318473,263972,12679
941.254,1.314878,281845,13650
945.076,1.306160,297271,14689
950.165,1.320743,315605,15080
953.978,1.312988,328029,15956
957.786,1.316785,340470,16417
961.59,1.314395,352317,17082
965.389,1.318402,363056,17441
969.185,1.306207,373162,18437
972.976,1.309664,382632,18755
976.763,1.308354,391202,19233
981.806,1.305031,400190,19826
985.583,1.312130,406088,19792
989.355,1.307432,410162,20208
993.124,1.301354,412868,20628
996.888,1.308989,414263,20337
1000.65,1.304068,415476,20629
1004.4,1.300778,415479,20786
1009.41,1.299125,414358,20809
1013.15,1.309530,412923,20246
1016.89,1.305598,411526,20361
1020.63,1.301504,409066,20431
1024.36,1.300088,406777,20383
1028.09,1.314208,404427,19617
1031.82,1.301994,401911,20051
1036.78,1.311589,398410,19442
1040.49,1.309401,396204,19432
1044.2,1.296576,394236,19915
1047.91,1.301831,392042,19566
1051.61,1.303267,389823,19391
1055.31,1.306268,388234,19179
1059,1.310499,387599,18962
1063.92,1.299783,386688,19390
1067.61,1.307889,386598,19027
1071.29,1.307305,387377,19091
1074.96,1.313268,388536,18887
1078.63,1.312104,389855,19002
1082.3,1.302425,391215,19498
1085.96,1.312189,393215,19162
1090.84,1.315188,396270,19178
1094.49,1.309099,398760,19571
1098.14,1.306355,400987,19805
1101.79,1.309922,403477,19765
1105.43,1.312797,406116,19763
1109.06,1.312538,407701,19852
1112.7,1.321110,409859,19567
1117.53,1.309572,412494,20223
1121.15,1.313549,414909,20156
1124.77,1.318256,416559,20018
1128.38,1.314147,418532,20304
1131.99,1.305203,419956,20797
1135.6,1.320099,421946,20191
1139.2,1.317316,423881,20414
1143.99,1.317335,426786,20553
1147.58,1.313797,428617,20810
1151.17,1.305983,431169,21314
1154.75,1.316984,433579,20897
1158.33,1.314562,436264,21144
1161.91,1.308604,439132,21577
1165.48,1.316061,442389,21367
1169.04,1.312713,446101,21713
1173.79,1.312509,451929,22007
1177.34,1.318883,456026,21883
1180.9,1.315840,461306,22292
1184.44,1.316319,467657,22574
1187.99,1.312307,473969,23091
1191.52,1.311784,479856,23406
1195.06,1.312288,487372,23745
1199.76,1.318843,497347,23868
1203.29,1.317253,504311,24291
1206.81,1.320964,511507,24428
1210.33,1.313350,519078,25228
1213.84,1.315524,527163,25493
1217.35,1.313540,534208,25952
1220.85,1.319691,540472,25887
1225.51,1.316046,549929,26562
1229.01,1.317536,556888,26806
1232.5,1.314206,562180,27269
1235.98,1.316293,567975,27418
1239.46,1.320101,574815,27506
1242.94,1.323795,582782,27651
1246.41,1.316742,591476,28523
1251.03,1.314759,604016,29261
1254.5,1.316237,612289,29561
1257.96,1.321118,619125,29557
1261.41,1.318997,624551,29962
1264.86,1.320676,629900,30102
1268.31,1.319881,634345,30370
1271.75,1.326529,638574,30108
1276.33,1.324528,642499,30433
1279.76,1.319999,645905,30915
1283.19,1.322202,648307,30873
1286.61,1.325776,650446,30721
1290.03,1.326943,652132,30718
1293.44,1.320305,653907,31276
1296.85,1.323840,655963,31120
1301.39,1.332472,657349,30572
1304.8,1.327540,657558,30931
1308.19,1.324272,658515,31210
1311.58,1.322962,658804,31318
1314.97,1.329258,659011,30877
1318.36,1.325589,658272,31104
1321.73,1.325704,658022,31084
1326.23,1.325003,657870,31127
1329.6,1.330155,656482,30695
1332.97,1.327571,654926,30805
1336.33,1.324736,653727,30950
1339.69,1.318632,652497,31329
1343.04,1.326595,649913,30638
1346.39,1.324655,647671,30669
1349.73,1.325060,645338,30530
1354.18,1.326280,641175,30248
1357.52,1.324581,638376,30234
1360.85,1.321265,635805,30343
1364.17,1.322904,633413,30115
1367.49,1.326210,631026,29774
1370.81,1.324113,628050,29777
1374.12,1.322548,625034,29741
1378.54,1.327021,620272,29212
1381.84,1.326465,616892,29090
1385.14,1.326426,613613,28938
1388.43,1.326390,611526,28842
1391.72,1.327345,610663,28738
1395.01,1.317330,610634,29407
1398.29,1.323841,611700,29020
1402.66,1.323864,614051,29130
1405.93,1.327506,616268,28991
1409.2,1.331316,617795,28809
1412.46,1.333961,618872,28684
1415.72,1.333067,619795,28786
1418.98,1.327192,620495,29211
1422.23,1.330485,621087,29018
1426.56,1.323179,621375,29524
1429.8,1.322509,621616,29581
1433.04,1.330211,622129,29085
1436.27,1.328419,621526,29177
1439.5,1.325104,621113,29381
1442.72,1.332334,620921,28887
1445.94,1.327079,620270,29208
1450.23,1.332215,618860,28799
1453.44,1.325066,617697,29222
1456.64,1.335273,616264,28477
1459.85,1.328887,614413,28812
1463.04,1.331287,612307,28555
1466.24,1.329518,610032,28565
1469.43,1.333787,607345,28161
1473.67,1.330374,603789,28217
1476.85,1.325560,601175,28408
1480.02,1.335114,597737,27631
1483.19,1.328906,594479,27876
1486.36,1.329969,591232,27656
1489.52,1.330015,587853,27495
1492.68,1.331991,583875,27185
1496.89,1.329887,578062,27045
1500.03,1.333058,574159,26667
1503.18,1.337907,570285,26193
1506.32,1.335450,565444,26118
1509.45,1.332256,560571,26084
1512.58,1.338548,555821,25491
1515.71,1.335185,550344,25436
1519.87,1.337246,543983,25023
1522.99,1.333615,538764,24991
1526.1,1.329890,533692,24969
1529.21,1.330666,527902,24654
1532.32,1.330204,521886,24399
1535.42,1.330412,515888,24107
1538.51,1.335845,509987,23535
1541.6,1.330514,503936,23543
1545.72,1.329523,494694,23164
1548.8,1.330936,488378,22794
1551.88,1.330732,481832,22499
1554.95,1.331447,474989,22143
1558.02,1.329276,467818,21918
1561.08,1.328470,460730,21626
1564.15,1.326419,454170,21419
1568.22,1.329455,444181,20802
1571.27,1.339898,436947,19977
1574.32,1.323965,429598,20375
1577.36,1.331261,422039,19683
1580.4,1.315778,414375,20027
1583.43,1.326214,406354,19173
1586.46,1.326752,398475,18778
1590.49,1.312389,388982,18947
1593.51,1.323466,380708,18077
1596.53,1.328676,372727,17487
1599.54,1.328328,365060,17141
1602.55,1.318634,357543,17167
1605.55,1.323385,349495,16598
1608.55,1.321910,341154,16257
1612.54,1.314381,330877,16043
1615.53,1.309373,322904,15838
1618.51,1.320415,315116,15068
1621.49,1.317096,307217,14803
1624.47,1.314881,299481,14504
1627.44,1.312925,292112,14211
1630.41,1.318847,284245,13641
1634.36,1.303093,274079,13639
1637.32,1.305834,266916,13199
1640.27,1.309292,259612,12736
1643.22,1.308272,251804,12382
1646.16,1.294377,244348,12406
1649.1,1.312827,236703,11518
1652.04,1.295002,228171,11568
1655.95,1.288800,215408,11078
1658.88,1.282561,204937,10692
1661.8,1.273018,193395,10314
1664.72,1.253098,179728,10035
1667.63,1.229638,163642,9644
1670.54,1.200832,146312,9214
1673.44,1.205648,128451,8000
1677.31,1.175678,105080,7012
1680.21,1.150280,88906,6290
1683.1,1.118312,75033,5714
1685.99,1.155136,63520,4444
1688.87,1.117410,53714,4099
1691.75,1.046474,45653,4102
1694.62,1.100386,39137,3106
1697.49,1.106840,33776,2641
1701.31,1.241691,28175,1615

File: Column 1_078964_20241121_173041.csv
Method:,Column 1,,
Host Date-Time:,21/11/24 @ 17:30:41,,
Header Version:,1,,
System Temp (C):,37.87,,
Detector Temp (C):,36.83,,
Humidity (%):,0.68,,
Lamp PD:,3795,,
Shift Vector Coefficients:,-10.5391,0.0761263,-0.000134223,,
Pixel to Wavelength Coefficients:,1775.68,-0.916766,-0.000235065,,
Serial Number:,5510004,,
Scan Config Name:,Column 1,,
Scan Config Type:,Slew,,
Section 1,,
Start wavelength (nm):,900,,
End wavelength (nm):,1700,,
Pattern Pixel Width (nm):,   7.03,,,,
Exposure (ms):,  0.635,,,,
Digital Resolution:,228,,
Num Repeats:,6,,
PGA Gain:,64,,
Total Measurement Time in sec:,  2.706,,
Wavelength (nm),Absorbance (AU),Reference Signal (unitless),Sample Signal (unitless)
901.51,1.327034,108485,5109
905.376,1.293879,121306,6166
909.237,1.318802,131909,6331
913.095,1.341263,143299,6531
916.948,1.317558,156982,7556
922.079,1.319210,179937,8628
925.923,1.334201,200504,9288
929.762,1.328859,222660,10442
933.597,1.327827,244426,11490
937.427,1.321705,263972,12585
941.254,1.332938,281845,13094
945.076,1.312714,297271,14469
950.165,1.326599,315605,14878
953.978,1.316459,328029,15829
957.786,1.312861,340470,16566
961.59,1.307209,352317,17367
965.389,1.304243,363056,18019
969.185,1.302548,373162,18593
972.976,1.309479,382632,18763
976.763,1.303147,391202,19465
981.806,1.298056,400190,20147
985.583,1.301531,406088,20281
989.355,1.299447,410162,20583
993.124,1.302788,412868,20560
996.888,1.310080,414263,20286
1000.65,1.308108,415476,20438
1004.4,1.304197,415479,20623
1009.41,1.299521,414358,20790
1013.15,1.312327,412923,20116
1016.89,1.308401,411526,20230
1020.63,1.305755,409066,20232
1024.36,1.321107,406777,19420
1028.09,1.307420,404427,19926
1031.82,1.315635,401911,19431
1036.78,1.306371,398410,19677
1040.49,1.314233,396204,19217
1044.2,1.299289,394236,19791
1047.91,1.316572,392042,18913
1051.61,1.324377,389823,18471
1055.31,1.308652,388234,19074
1059,1.316564,387599,18699
1063.92,1.306964,386688,19072
1067.61,1.311971,386598,18849
1071.29,1.313007,387377,18842
1074.96,1.312235,388536,18932
1078.63,1.316307,389855,18819
1082.3,1.305263,391215,19371
1085.96,1.309163,393215,19296
1090.84,1.310682,396270,19378
1094.49,1.318588,398760,19148
1098.14,1.310741,400987,19606
1101.79,1.312191,403477,19662
1105.43,1.314802,406116,19672
1109.06,1.316339,407701,19679
1112.7,1.311952,409859,19984
1117.53,1.318007,412494,19834
1121.15,1.312580,414909,20201
1124.77,1.318690,416559,19998
1128.38,1.318619,418532,20096
1131.99,1.326100,419956,19820
1135.6,1.317804,421946,20298
1139.2,1.324891,423881,20061
1143.99,1.312648,426786,20776
1147.58,1.317718,428617,20623
1151.17,1.316709,431169,20794
1154.75,1.318337,433579,20832
1158.33,1.310453,436264,21345
1161.91,1.311188,439132,21449
1165.48,1.323172,442389,21020
1169.04,1.315865,446101,21556
1173.79,1.314686,451929,21897
1177.34,1.318585,456026,21898
1180.9,1.318753,461306,22143
1184.44,1.318788,467657,22446
1187.99,1.312834,473969,23063
1191.52,1.316691,479856,23143
1195.06,1.324249,487372,23100
1199.76,1.320028,497347,23803
1203.29,1.316860,504311,24313
1206.81,1.324122,511507,24251
1210.33,1.316754,519078,25031
1213.84,1.323831,527163,25010
1217.35,1.320847,534208,25519
1220.85,1.323381,540472,25668
1225.51,1.318719,549929,26399
1229.01,1.320315,556888,26635
1232.5,1.325255,562180,26584
1235.98,1.315471,567975,27470
1239.46,1.322222,574815,27372
1242.94,1.324424,582782,27611
1246.41,1.318176,591476,28429
1251.03,1.322124,604016,28769
1254.5,1.325218,612289,28956
1257.96,1.323860,619125,29371
1261.41,1.325510,624551,29516
1264.86,1.322933,629900,29946
1268.31,1.324221,634345,30068
1271.75,1.329235,638574,29921
1276.33,1.324542,642499,30432
1279.76,1.323200,645905,30688
1283.19,1.325180,648307,30662
1286.61,1.327164,650446,30623
1290.03,1.327523,652132,30677
1293.44,1.327544,653907,30759
1296.85,1.328131,655963,30814
1301.39,1.326743,657349,30978
1304.8,1.329369,657558,30801
1308.19,1.328270,658515,30924
1311.58,1.323420,658804,31285
1314.97,1.330243,659011,30807
1318.36,1.332585,658272,30607
1321.73,1.331725,658022,30656
1326.23,1.332248,657870,30612
1329.6,1.336325,656482,30262
1332.97,1.332263,654926,30474
1336.33,1.331952,653727,30440
1339.69,1.333380,652497,30283
1343.04,1.327049,649913,30606
1346.39,1.327625,647671,30460
1349.73,1.329349,645338,30230
1354.18,1.326840,641175,30209
1357.52,1.329042,638376,29925
1360.85,1.324974,635805,30085
1364.17,1.324218,633413,30024
1367.49,1.328917,631026,29589
1370.81,1.330401,628050,29349
1374.12,1.334315,625034,28946
1378.54,1.323261,620272,29466
1381.84,1.324425,616892,29227
1385.14,1.327327,613613,28878
1388.43,1.325112,611526,28927
1391.72,1.325611,610663,28853
1395.01,1.319893,610634,29234
1398.29,1.323482,611700,29044
1402.66,1.328029,614051,28852
1405.93,1.330061,616268,28821
1409.2,1.331889,617795,28771
1412.46,1.330974,618872,28882
1415.72,1.327461,619795,29160
1418.98,1.333285,620495,28804
1422.23,1.329573,621087,29079
1426.56,1.330417,621375,29036
1429.8,1.334100,621616,28802
1433.04,1.330137,622129,29090
1436.27,1.333901,621526,28811
1439.5,1.331807,621113,28931
1442.72,1.332289,620921,28890
1445.94,1.335744,620270,28631
1450.23,1.332728,618860,28765
1453.44,1.330043,617697,28889
1456.64,1.333082,616264,28621
1459.85,1.329732,614413,28756
1463.04,1.336612,612307,28207
1466.24,1.335797,610032,28155
1469.43,1.332571,607345,28240
1473.67,1.339017,603789,27661
1476.85,1.332790,601175,27939
1480.02,1.341494,597737,27228
1483.19,1.341777,594479,27062
1486.36,1.337844,591232,27159
1489.52,1.337551,587853,27022
1492.68,1.333816,583875,27071
1496.89,1.333224,578062,26838
1500.03,1.334919,574159,26553
1503.18,1.335691,570285,26327
1506.32,1.337667,565444,25985
1509.45,1.341359,560571,25543
1512.58,1.338804,555821,25476
1515.71,1.337874,550344,25279
1519.87,1.335151,543983,25144
1522.99,1.335042,538764,24909
1526.1,1.329924,533692,24967
1529.21,1.332820,527902,24532
1532.32,1.335396,521886,24109
1535.42,1.332055,515888,24016
1538.51,1.342427,509987,23181
1541.6,1.332455,503936,23438
1545.72,1.344457,494694,22381
1548.8,1.332386,488378,22718
1551.88,1.332415,481832,22412
1554.95,1.332449,474989,22092
1558.02,1.335121,467818,21625
1561.08,1.339123,460730,21102
1564.15,1.334937,454170,21003
1568.22,1.323710,444181,21079
1571.27,1.329035,436947,20483
1574.32,1.332880,429598,19961
1577.36,1.331305,422039,19681
1580.4,1.331229,414375,19327
1583.43,1.328918,406354,19054
1586.46,1.332455,398475,18533
1590.49,1.340462,388982,17761
1593.51,1.329977,380708,17808
1596.53,1.331216,372727,17385
1599.54,1.318607,365060,17529
1602.55,1.333220,357543,16600
1605.55,1.330242,349495,16338
1608.55,1.322766,341154,16225
1612.54,1.332767,330877,15378
1615.53,1.324354,322904,15301
1618.51,1.319954,315116,15084
1621.49,1.321934,307217,14639
1624.47,1.329869,299481,14012
1627.44,1.319639,292112,13993
1630.41,1.324712,284245,13458
1634.36,1.308379,274079,13474
1637.32,1.318385,266916,12823
1640.27,1.310316,259612,12706
1643.22,1.306836,251804,12423
1646.16,1.312754,244348,11892
1649.1,1.323399,236703,11241
1652.04,1.298735,228171,11469
1655.95,1.306851,215408,10627
1658.88,1.269991,204937,11006
1661.8,1.271337,193395,10354
1664.72,1.274431,179728,9554
1667.63,1.239199,163642,9434
1670.54,1.230378,146312,8608
1673.44,1.219660,128451,7746
1677.31,1.142424,105080,7570
1680.21,1.155630,88906,6213
1683.1,1.168193,75033,5094
1685.99,1.156703,63520,4428
1688.87,1.108600,53714,4183
1691.75,1.176739,45653,3039
1694.62,1.144345,39137,2807
1697.49,1.116484,33776,2583
1701.31,1.111009,28175,2182

File: Column 1_078971_20241121_173101.csv
Method:,Column 1,,
Host Date-Time:,21/11/24 @ 17:31:1,,
Header Version:,1,,
System Temp (C):,37.74,,
Detector Temp (C):,36.89,,
Humidity (%):,0.59,,
Lamp PD:,3795,,
Shift Vector Coefficients:,-10.5391,0.0761263,-0.000134223,,
Pixel to Wavelength Coefficients:,1775.68,-0.916766,-0.000235065,,
Serial Number:,5510004,,
Scan Config Name:,Column 1,,
Scan Config Type:,Slew,,
Section 1,,
Start wavelength (nm):,900,,
End wavelength (nm):,1700,,
Pattern Pixel Width (nm):,   7.03,,,,
Exposure (ms):,  0.635,,,,
Digital Resolution:,228,,
Num Repeats:,6,,
PGA Gain:,64,,
Total Measurement Time in sec:,  2.722,,
Wavelength (nm),Absorbance (AU),Reference Signal (unitless),Sample Signal (unitless)
901.51,1.305962,108485,5363
905.376,1.307981,121306,5969
909.237,1.311591,131909,6437
913.095,1.306026,143299,7083
916.948,1.312018,156982,7653
922.079,1.334059,179937,8338
925.923,1.314010,200504,9730
929.762,1.323814,222660,10564
933.597,1.314466,244426,11849
937.427,1.315333,263972,12771
941.254,1.326551,281845,13288
945.076,1.322672,297271,14141
950.165,1.312188,315605,15380
953.978,1.309599,328029,16081
957.786,1.302192,340470,16978
961.59,1.312315,352317,17164
965.389,1.308725,363056,17834
969.185,1.313045,373162,18149
972.976,1.315093,382632,18522
976.763,1.301454,391202,19541
981.806,1.315114,400190,19371
985.583,1.304820,406088,20128
989.355,1.308077,410162,20178
993.124,1.308208,412868,20305
996.888,1.302945,414263,20622
1000.65,1.313453,415476,20188
1004.4,1.303776,415479,20643
1009.41,1.308022,414358,20387
1013.15,1.301833,412923,20608
1016.89,1.305172,411526,20381
1020.63,1.303506,409066,20337
1024.36,1.303833,406777,20208
1028.09,1.302457,404427,20155
1031.82,1.320625,401911,19209
1036.78,1.314166,398410,19327
1040.49,1.301078,396204,19808
1044.2,1.307619,394236,19415
1047.91,1.302853,392042,19520
1051.61,1.301635,389823,19464
1055.31,1.301135,388234,19407
1059,1.310407,387599,18966
1063.92,1.307352,386688,19055
1067.61,1.304705,386598,19167
1071.29,1.312938,387377,18845
1074.96,1.309673,388536,19044
1078.63,1.310507,389855,19072
1082.3,1.312019,391215,19072
1085.96,1.316174,393215,18987
1090.84,1.314713,396270,19199
1094.49,1.314300,398760,19338
1098.14,1.314166,400987,19452
1101.79,1.317234,403477,19435
1105.43,1.313831,406116,19716
1109.06,1.318662,407701,19574
1112.7,1.317353,409859,19737
1117.53,1.311056,412494,20154
1121.15,1.307281,414909,20449
1124.77,1.318256,416559,20018
1128.38,1.321742,418532,19952
1131.99,1.318390,419956,20175
1135.6,1.315989,421946,20383
1139.2,1.318274,423881,20369
1143.99,1.315395,426786,20645
1147.58,1.324980,428617,20281
1151.17,1.323551,431169,20469
1154.75,1.310282,433579,21222
1158.33,1.316023,436264,21073
1161.91,1.315093,439132,21257
1165.48,1.313548,442389,21491
1169.04,1.322013,446101,21253
1173.79,1.308600,451929,22206
1177.34,1.316488,456026,22004
1180.9,1.312347,461306,22472
1184.44,1.312965,467657,22749
1187.99,1.320030,473969,22684
1191.52,1.314165,479856,23278
1195.06,1.317218,487372,23477
1199.76,1.312826,497347,24201
1203.29,1.319224,504311,24181
1206.81,1.313054,511507,24877
1210.33,1.313677,519078,25209
1213.84,1.318636,527163,25311
1217.35,1.320506,534208,25539
1220.85,1.318686,540472,25947
1225.51,1.323217,549929,26127
1229.01,1.328512,556888,26137
1232.5,1.320511,562180,26876
1235.98,1.318230,567975,27296
1239.46,1.317425,574815,27676
1242.94,1.319109,582782,27951
1246.41,1.318252,591476,28424
1251.03,1.325975,604016,28515
1254.5,1.322065,612289,29167
1257.96,1.324570,619125,29323
1261.41,1.322490,624551,29722
1264.86,1.323078,629900,29936
1268.31,1.325668,634345,29968
1271.75,1.322924,638574,30359
1276.33,1.322975,642499,30542
1279.76,1.328110,645905,30343
1283.19,1.324204,648307,30731
1286.61,1.324590,650446,30805
1290.03,1.330919,652132,30438
1293.44,1.325010,653907,30939
1296.85,1.323143,655963,31170
1301.39,1.322960,657349,31249
1304.8,1.322001,657558,31328
1308.19,1.327190,658515,31001
1311.58,1.327745,658804,30975
1314.97,1.327839,659011,30978
1318.36,1.327478,658272,30969
1321.73,1.325899,658022,31070
1326.23,1.329730,657870,30790
1329.6,1.326366,656482,30964
1332.97,1.329464,654926,30671
1336.33,1.323503,653727,31038
1339.69,1.327766,652497,30677
1343.04,1.324770,649913,30767
1346.39,1.328381,647671,30407
1349.73,1.330140,645338,30175
1354.18,1.324632,641175,30363
1357.52,1.325789,638376,30150
1360.85,1.327624,635805,29902
1364.17,1.329941,633413,29631
1367.49,1.321019,631026,30132
1370.81,1.321670,628050,29945
1374.12,1.320785,625034,29862
1378.54,1.323187,620272,29471
1381.84,1.330515,616892,28820
1385.14,1.327673,613613,28855
1388.43,1.326119,611526,28860
1391.72,1.325039,610663,28891
1395.01,1.325590,610634,28853
1398.29,1.327101,611700,28803
1402.66,1.323879,614051,29129
1405.93,1.331479,616268,28727
1409.2,1.328357,617795,29006
1412.46,1.324392,618872,29323
1415.72,1.327624,619795,29149
1418.98,1.330610,620495,28982
1422.23,1.327027,621087,29250
1426.56,1.333148,621375,28854
1429.8,1.335171,621616,28731
1433.04,1.323955,622129,29507
1436.27,1.329940,621526,29075
1439.5,1.330099,621113,29045
1442.72,1.332154,620921,28899
1445.94,1.333098,620270,28806
1450.23,1.331552,618860,28843
1453.44,1.331534,617697,28790
1456.64,1.334480,616264,28529
1459.85,1.330321,614413,28717
1463.04,1.331804,612307,28521
1466.24,1.334626,610032,28231
1469.43,1.333294,607345,28193
1473.67,1.329037,603789,28304
1476.85,1.329986,601175,28120
1480.02,1.337636,597737,27471
1483.19,1.328268,594479,27917
1486.36,1.338500,591232,27118
1489.52,1.327040,587853,27684
1492.68,1.328522,583875,27403
1496.89,1.334164,578062,26780
1500.03,1.336607,574159,26450
1503.18,1.337062,570285,26244
1506.32,1.331922,565444,26331
1509.45,1.329204,560571,26268
1512.58,1.338838,555821,25474
1515.71,1.332055,550344,25620
1519.87,1.334754,543983,25167
1522.99,1.336597,538764,24820
1526.1,1.336003,533692,24620
1529.21,1.338541,527902,24211
1532.32,1.330453,521886,24385
1535.42,1.333812,515888,23919
1538.51,1.328018,509987,23963
1541.6,1.325725,503936,23804
1545.72,1.336002,494694,22821
1548.8,1.332042,488378,22736
1551.88,1.339093,481832,22070
1554.95,1.327912,474989,22324
1558.02,1.329514,467818,21906
1561.08,1.327888,460730,21655
1564.15,1.330350,454170,21226
1568.22,1.320303,444181,21245
1571.27,1.326266,436947,20614
1574.32,1.327474,429598,20211
1577.36,1.330336,422039,19725
1580.4,1.325536,414375,19582
1583.43,1.334308,406354,18819
1586.46,1.329234,398475,18671
1590.49,1.332779,388982,18078
1593.51,1.321883,380708,18143
1596.53,1.326174,372727,17588
1599.54,1.324218,365060,17304
1602.55,1.323928,357543,16959
1605.55,1.326774,349495,16469
1608.55,1.314520,341154,16536
1612.54,1.318843,330877,15879
1615.53,1.319611,322904,15469
1618.51,1.314347,315116,15280
1621.49,1.327668,307217,14447
1624.47,1.319275,299481,14358
1627.44,1.324225,292112,13846
1630.41,1.314917,284245,13765
1634.36,1.313894,274079,13304
1637.32,1.323255,266916,12680
1640.27,1.312853,259612,12632
1643.22,1.299075,251804,12647
1646.16,1.302504,244348,12176
1649.1,1.316462,236703,11422
1652.04,1.299834,228171,11440
1655.95,1.279914,215408,11307
1658.88,1.291632,204937,10471
1661.8,1.283502,193395,10068
1664.72,1.257623,179728,9931
1667.63,1.247612,163642,9253
1670.54,1.235657,146312,8504
1673.44,1.204130,128451,8028
1677.31,1.159687,105080,7275
1680.21,1.171867,88906,5985
1683.1,1.118616,75033,5710
1685.99,1.112626,63520,4901
1688.87,1.138355,53714,3906
1691.75,1.145187,45653,3268
1694.62,1.173458,39137,2625
1697.49,1.157540,33776,2350
1701.31,1.057167,28175,2470