Folder: textile_sorting_NIRSCAN_/ML/samples/unknown (part 89)

File: Column 1_078628_20241121_171203.csv
Method:,Column 1,,
Host Date-Time:,21/11/24 @ 17:12:3,,
Header Version:,1,,
System Temp (C):,36.9,,
Detector Temp (C):,35.16,,
Humidity (%):,0.88,,
Lamp PD:,3797,,
Shift Vector Coefficients:,-10.5391,0.0761263,-0.000134223,,
Pixel to Wavelength Coefficients:,1775.68,-0.916766,-0.000235065,,
Serial Number:,5510004,,
Scan Config Name:,Column 1,,
Scan Config Type:,Slew,,
Section 1,,
Start wavelength (nm):,900,,
End wavelength (nm):,1700,,
Pattern Pixel Width (nm):,   7.03,,,,
Exposure (ms):,  0.635,,,,
Digital Resolution:,228,,
Num Repeats:,6,,
PGA Gain:,64,,
Total Measurement Time in sec:,  2.730,,
Wavelength (nm),Absorbance (AU),Reference Signal (unitless),Sample Signal (unitless)
901.51,1.314962,108485,5253
905.376,1.328465,121306,5694
909.237,1.320039,131909,6313
913.095,1.303458,143299,7125
916.948,1.339786,156982,7179
922.079,1.327545,179937,8464
925.923,1.337628,200504,9215
929.762,1.331696,222660,10374
933.597,1.325002,244426,11565
937.427,1.329294,263972,12367
941.254,1.324269,281845,13358
945.076,1.318881,297271,14265
950.165,1.302719,315605,15719
953.978,1.308952,328029,16105
957.786,1.311422,340470,16621
961.59,1.303796,352317,17504
965.389,1.323714,363056,17229
969.185,1.302408,373162,18599
972.976,1.304783,382632,18967
976.763,1.299348,391202,19636
981.806,1.303741,400190,19885
985.583,1.306614,406088,20045
989.355,1.304818,410162,20330
993.124,1.307076,412868,20358
996.888,1.308349,414263,20367
1000.65,1.305798,415476,20547
1004.4,1.310390,415479,20331
1009.41,1.303361,414358,20607
1013.15,1.304052,412923,20503
1016.89,1.305108,411526,20384
1020.63,1.308187,409066,20119
1024.36,1.310132,406777,19917
1028.09,1.307006,404427,19945
1031.82,1.300977,401911,20098
1036.78,1.298584,398410,20033
1040.49,1.303872,396204,19681
1044.2,1.304232,394236,19567
1047.91,1.297919,392042,19743
1051.61,1.304119,389823,19353
1055.31,1.308219,388234,19093
1059,1.309926,387599,18987
1063.92,1.309064,386688,18980
1067.61,1.307319,386598,19052
1071.29,1.317222,387377,18660
1074.96,1.317218,388536,18716
1078.63,1.301180,389855,19486
1082.3,1.313182,391215,19021
1085.96,1.311917,393215,19174
1090.84,1.307378,396270,19526
1094.49,1.317750,398760,19185
1098.14,1.314859,400987,19421
1101.79,1.315918,403477,19494
1105.43,1.315774,406116,19628
1109.06,1.311532,407701,19898
1112.7,1.311257,409859,20016
1117.53,1.316936,412494,19883
1121.15,1.318380,414909,19933
1124.77,1.316913,416559,20080
1128.38,1.316377,418532,20200
1131.99,1.315472,419956,20311
1135.6,1.323337,421946,20041
1139.2,1.318957,423881,20337
1143.99,1.322372,426786,20316
1147.58,1.307458,428617,21116
1151.17,1.315666,431169,20844
1154.75,1.315283,433579,20979
1158.33,1.309457,436264,21394
1161.91,1.320107,439132,21013
1165.48,1.314458,442389,21446
1169.04,1.314598,446101,21619
1173.79,1.318110,451929,21725
1177.34,1.312930,456026,22185
1180.9,1.319008,461306,22130
1184.44,1.318015,467657,22486
1187.99,1.315990,473969,22896
1191.52,1.312341,479856,23376
1195.06,1.315888,487372,23549
1199.76,1.325795,497347,23489
1203.29,1.318578,504311,24217
1206.81,1.318676,511507,24557
1210.33,1.319994,519078,24845
1213.84,1.320217,527163,25219
1217.35,1.317794,534208,25699
1220.85,1.318251,540472,25973
1225.51,1.322155,549929,26191
1229.01,1.318899,556888,26722
1232.5,1.321222,562180,26832
1235.98,1.320703,567975,27141
1239.46,1.309787,574815,28167
1242.94,1.317759,582782,28038
1246.41,1.320980,591476,28246
1251.03,1.325808,604016,28526
1254.5,1.318934,612289,29378
1257.96,1.320956,619125,29568
1261.41,1.320027,624551,29891
1264.86,1.318130,629900,30279
1268.31,1.321844,634345,30233
1271.75,1.320527,638574,30527
1276.33,1.326358,642499,30305
1279.76,1.327252,645905,30403
1283.19,1.327467,648307,30501
1286.61,1.325112,650446,30768
1290.03,1.325249,652132,30838
1293.44,1.324266,653907,30992
1296.85,1.320822,655963,31337
1301.39,1.321808,657349,31332
1304.8,1.329496,657558,30792
1308.19,1.321885,658515,31382
1311.58,1.327044,658804,31025
1314.97,1.325839,659011,31121
1318.36,1.322209,658272,31347
1321.73,1.324573,658022,31165
1326.23,1.330380,657870,30744
1329.6,1.330113,656482,30698
1332.97,1.331295,654926,30542
1336.33,1.329320,653727,30625
1339.69,1.326748,652497,30749
1343.04,1.326964,649913,30612
1346.39,1.326827,647671,30516
1349.73,1.331091,645338,30109
1354.18,1.326366,641175,30242
1357.52,1.320606,638376,30512
1360.85,1.322599,635805,30250
1364.17,1.322630,633413,30134
1367.49,1.315349,631026,30528
1370.81,1.322149,628050,29912
1374.12,1.325346,625034,29550
1378.54,1.329571,620272,29041
1381.84,1.320667,616892,29481
1385.14,1.327403,613613,28873
1388.43,1.320527,611526,29234
1391.72,1.323508,610663,28993
1395.01,1.322172,610634,29081
1398.29,1.324710,611700,28962
1402.66,1.326166,614051,28976
1405.93,1.327746,616268,28975
1409.2,1.323799,617795,29312
1412.46,1.327529,618872,29112
1415.72,1.323428,619795,29432
1418.98,1.324524,620495,29391
1422.23,1.327799,621087,29198
1426.56,1.331750,621375,28947
1429.8,1.329614,621616,29101
1433.04,1.325474,622129,29404
1436.27,1.327764,621526,29221
1439.5,1.330892,621113,28992
1442.72,1.330384,620921,29017
1445.94,1.334245,620270,28730
1450.23,1.330004,618860,28946
1453.44,1.326316,617697,29138
1456.64,1.336693,616264,28384
1459.85,1.336505,614413,28311
1463.04,1.331713,612307,28527
1466.24,1.335689,610032,28162
1469.43,1.329109,607345,28466
1473.67,1.333975,603789,27984
1476.85,1.333132,601175,27917
1480.02,1.334925,597737,27643
1483.19,1.335483,594479,27457
1486.36,1.335150,591232,27328
1489.52,1.332248,587853,27354
1492.68,1.333479,583875,27092
1496.89,1.332998,578062,26852
1500.03,1.331741,574159,26748
1503.18,1.334406,570285,26405
1506.32,1.334968,565444,26147
1509.45,1.330362,560571,26198
1512.58,1.336831,555821,25592
1515.71,1.333583,550344,25530
1519.87,1.330017,543983,25443
1522.99,1.330912,538764,25147
1526.1,1.328917,533692,25025
1529.21,1.326703,527902,24880
1532.32,1.336118,521886,24069
1535.42,1.343265,515888,23404
1538.51,1.358282,509987,22350
1541.6,1.335355,503936,23282
1545.72,1.333119,494694,22973
1548.8,1.333899,488378,22639
1551.88,1.331602,481832,22454
1554.95,1.334261,474989,22000
1558.02,1.328900,467818,21937
1561.08,1.330705,460730,21515
1564.15,1.331867,454170,21152
1568.22,1.334875,444181,20544
1571.27,1.329863,436947,20444
1574.32,1.330299,429598,20080
1577.36,1.328030,422039,19830
1580.4,1.326313,414375,19547
1583.43,1.326056,406354,19180
1586.46,1.330701,398475,18608
1590.49,1.322476,388982,18512
1593.51,1.322290,380708,18126
1596.53,1.317036,372727,17962
1599.54,1.322240,365060,17383
1602.55,1.328873,357543,16767
1605.55,1.321479,349495,16671
1608.55,1.317419,341154,16426
1612.54,1.323048,330877,15726
1615.53,1.309702,322904,15826
1618.51,1.325634,315116,14888
1621.49,1.323479,307217,14587
1624.47,1.315931,299481,14469
1627.44,1.301613,292112,14586
1630.41,1.319707,284245,13614
1634.36,1.316776,274079,13216
1637.32,1.309568,266916,13086
1640.27,1.309565,259612,12728
1643.22,1.320148,251804,12048
1646.16,1.320083,244348,11693
1649.1,1.303317,236703,11773
1652.04,1.298849,228171,11466
1655.95,1.301692,215408,10754
1658.88,1.291715,204937,10469
1661.8,1.280236,193395,10144
1664.72,1.266592,179728,9728
1667.63,1.251194,163642,9177
1670.54,1.225960,146312,8696
1673.44,1.208207,128451,7953
1677.31,1.175926,105080,7008
1680.21,1.138228,88906,6467
1683.1,1.159834,75033,5193
1685.99,1.123119,63520,4784
1688.87,1.135364,53714,3933
1691.75,1.153235,45653,3208
1694.62,1.172137,39137,2633
1697.49,1.118506,33776,2571
1701.31,1.140660,28175,2038

File: Column 1_078629_20241121_171206.csv
Method:,Column 1,,
Host Date-Time:,21/11/24 @ 17:12:6,,
Header Version:,1,,
System Temp (C):,36.84,,
Detector Temp (C):,35.16,,
Humidity (%):,0.88,,
Lamp PD:,3797,,
Shift Vector Coefficients:,-10.5391,0.0761263,-0.000134223,,
Pixel to Wavelength Coefficients:,1775.68,-0.916766,-0.000235065,,
Serial Number:,5510004,,
Scan Config Name:,Column 1,,
Scan Config Type:,Slew,,
Section 1,,
Start wavelength (nm):,900,,
End wavelength (nm):,1700,,
Pattern Pixel Width (nm):,   7.03,,,,
Exposure (ms):,  0.635,,,,
Digital Resolution:,228,,
Num Repeats:,6,,
PGA Gain:,64,,
Total Measurement Time in sec:,  2.730,,
Wavelength (nm),Absorbance (AU),Reference Signal (unitless),Sample Signal (unitless)
901.51,1.297224,108485,5472
905.376,1.347008,121306,5456
909.237,1.309437,131909,6469
913.095,1.328874,143299,6720
916.948,1.316467,156982,7575
922.079,1.317051,179937,8671
925.923,1.305743,200504,9917
929.762,1.313616,222660,10815
933.597,1.311908,244426,11919
937.427,1.312689,263972,12849
941.254,1.305997,281845,13932
945.076,1.312084,297271,14490
950.165,1.301367,315605,15768
953.978,1.304498,328029,16271
957.786,1.295920,340470,17225
961.59,1.298200,352317,17731
965.389,1.313426,363056,17642
969.185,1.305336,373162,18474
972.976,1.307746,382632,18838
976.763,1.301365,391202,19545
981.806,1.302258,400190,19953
985.583,1.297142,406088,20487
989.355,1.305395,410162,20303
993.124,1.296997,412868,20836
996.888,1.307965,414263,20385
1000.65,1.306157,415476,20530
1004.4,1.297344,415479,20951
1009.41,1.302645,414358,20641
1013.15,1.311077,412923,20174
1016.89,1.304874,411526,20395
1020.63,1.297463,409066,20622
1024.36,1.305340,406777,20138
1028.09,1.303320,404427,20115
1031.82,1.297041,401911,20281
1036.78,1.303468,398410,19809
1040.49,1.297628,396204,19966
1044.2,1.304365,394236,19561
1047.91,1.309534,392042,19222
1051.61,1.305648,389823,19285
1055.31,1.309495,388234,19037
1059,1.307531,387599,19092
1063.92,1.309522,386688,18960
1067.61,1.307570,386598,19041
1071.29,1.306464,387377,19128
1074.96,1.305678,388536,19220
1078.63,1.306811,389855,19235
1082.3,1.313068,391215,19026
1085.96,1.300826,393215,19670
1090.84,1.308938,396270,19456
1094.49,1.308832,398760,19583
1098.14,1.302578,400987,19978
1101.79,1.313873,403477,19586
1105.43,1.312687,406116,19768
1109.06,1.316228,407701,19684
1112.7,1.310542,409859,20049
1117.53,1.312957,412494,20066
1121.15,1.310008,414909,20321
1124.77,1.304000,416559,20686
1128.38,1.305674,418532,20704
1131.99,1.312489,419956,20451
1135.6,1.310547,421946,20640
1139.2,1.310666,423881,20729
1143.99,1.315879,426786,20622
1147.58,1.310989,428617,20945
1151.17,1.312221,431169,21010
1154.75,1.317941,433579,20851
1158.33,1.311921,436264,21273
1161.91,1.316054,439132,21210
1165.48,1.316244,442389,21358
1169.04,1.317116,446101,21494
1173.79,1.313438,451929,21960
1177.34,1.315719,456026,22043
1180.9,1.318204,461306,22171
1184.44,1.313997,467657,22695
1187.99,1.314135,473969,22994
1191.52,1.313345,479856,23322
1195.06,1.310536,487372,23841
1199.76,1.314138,497347,24128
1203.29,1.319116,504311,24187
1206.81,1.324624,511507,24223
1210.33,1.320658,519078,24807
1213.84,1.320407,527163,25208
1217.35,1.316478,534208,25777
1220.85,1.332546,540472,25132
1225.51,1.315033,549929,26624
1229.01,1.320429,556888,26628
1232.5,1.317917,562180,27037
1235.98,1.325450,567975,26846
1239.46,1.316657,574815,27725
1242.94,1.320931,582782,27834
1246.41,1.323617,591476,28075
1251.03,1.320030,604016,28908
1254.5,1.317915,612289,29447
1257.96,1.316456,619125,29876
1261.41,1.323660,624551,29642
1264.86,1.321543,629900,30042
1268.31,1.324626,634345,30040
1271.75,1.321595,638574,30452
1276.33,1.320861,642499,30691
1279.76,1.319045,645905,30983
1283.19,1.324317,648307,30723
1286.61,1.322930,650446,30923
1290.03,1.324012,652132,30926
1293.44,1.325024,653907,30938
1296.85,1.331243,655963,30594
1301.39,1.321171,657349,31378
1304.8,1.324490,657558,31149
1308.19,1.325428,658515,31127
1311.58,1.327899,658804,30964
1314.97,1.327937,659011,30971
1318.36,1.328798,658272,30875
1321.73,1.323529,658022,31240
1326.23,1.332802,657870,30573
1329.6,1.328545,656482,30809
1332.97,1.325644,654926,30942
1336.33,1.330940,653727,30511
1339.69,1.324339,652497,30920
1343.04,1.327688,649913,30561
1346.39,1.327112,647671,30496
1349.73,1.328273,645338,30305
1354.18,1.324889,641175,30345
1357.52,1.323061,638376,30340
1360.85,1.323878,635805,30161
1364.17,1.324971,633413,29972
1367.49,1.329651,631026,29539
1370.81,1.324463,628050,29753
1374.12,1.325831,625034,29517
1378.54,1.322128,620272,29543
1381.84,1.321906,616892,29397
1385.14,1.324166,613613,29089
1388.43,1.322850,611526,29078
1391.72,1.324513,610663,28926
1395.01,1.320770,610634,29175
1398.29,1.321572,611700,29172
1402.66,1.318029,614051,29524
1405.93,1.319550,616268,29527
1409.2,1.322970,617795,29368
1412.46,1.325846,618872,29225
1415.72,1.332449,619795,28827
1418.98,1.328860,620495,29099
1422.23,1.329663,621087,29073
1426.56,1.330686,621375,29018
1429.8,1.329256,621616,29125
1433.04,1.328795,622129,29180
1436.27,1.324477,621526,29443
1439.5,1.329755,621113,29068
1442.72,1.327193,620921,29231
1445.94,1.326336,620270,29258
1450.23,1.326448,618860,29184
1453.44,1.331715,617697,28778
1456.64,1.331507,616264,28725
1459.85,1.331836,614413,28617
1463.04,1.328513,612307,28738
1466.24,1.325342,610032,28841
1469.43,1.332094,607345,28271
1473.67,1.328746,603789,28323
1476.85,1.333677,601175,27882
1480.02,1.324800,597737,28295
1483.19,1.330123,594479,27798
1486.36,1.331983,591232,27528
1489.52,1.326256,587853,27734
1492.68,1.341308,583875,26608
1496.89,1.328317,578062,27143
1500.03,1.331497,574159,26763
1503.18,1.333896,570285,26436
1506.32,1.332715,565444,26283
1509.45,1.331674,560571,26119
1512.58,1.339554,555821,25432
1515.71,1.325678,550344,25999
1519.87,1.333857,543983,25219
1522.99,1.333337,538764,25007
1526.1,1.327392,533692,25113
1529.21,1.332431,527902,24554
1532.32,1.335072,521886,24127
1535.42,1.329045,515888,24183
1538.51,1.331804,509987,23755
1541.6,1.334349,503936,23336
1545.72,1.336345,494694,22803
1548.8,1.334705,488378,22597
1551.88,1.327540,481832,22665
1554.95,1.329354,474989,22250
1558.02,1.329851,467818,21889
1561.08,1.334782,460730,21314
1564.15,1.324618,454170,21508
1568.22,1.326770,444181,20931
1571.27,1.331992,436947,20344
1574.32,1.322751,429598,20432
1577.36,1.319636,422039,20217
1580.4,1.325847,414375,19568
1583.43,1.317891,406354,19544
1586.46,1.319004,398475,19116
1590.49,1.322523,388982,18510
1593.51,1.323874,380708,18060
1596.53,1.320532,372727,17818
1599.54,1.315201,365060,17667
1602.55,1.326677,357543,16852
1605.55,1.321401,349495,16674
1608.55,1.313733,341154,16566
1612.54,1.317206,330877,15939
1615.53,1.312400,322904,15728
1618.51,1.312900,315116,15331
1621.49,1.308900,307217,15085
1624.47,1.314672,299481,14511
1627.44,1.320913,292112,13952
1630.41,1.300854,284245,14218
1634.36,1.327387,274079,12897
1637.32,1.303177,266916,13280
1640.27,1.301552,259612,12965
1643.22,1.287855,251804,12978
1646.16,1.312206,244348,11907
1649.1,1.296618,236703,11956
1652.04,1.302424,228171,11372
1655.95,1.287939,215408,11100
1658.88,1.306526,204937,10118
1661.8,1.258322,193395,10669
1664.72,1.261797,179728,9836
1667.63,1.256287,163642,9070
1670.54,1.238577,146312,8447
1673.44,1.195825,128451,8183
1677.31,1.187863,105080,6818
1680.21,1.163103,88906,6107
1683.1,1.158665,75033,5207
1685.99,1.119323,63520,4826
1688.87,1.171379,53714,3620
1691.75,1.108630,45653,3555
1694.62,1.140648,39137,2831
1697.49,1.175462,33776,2255
1701.31,1.133684,28175,2071

File: Column 1_078630_20241121_171209.csv
Method:,Column 1,,
Host Date-Time:,21/11/24 @ 17:12:9,,
Header Version:,1,,
System Temp (C):,36.87,,
Detector Temp (C):,35.19,,
Humidity (%):,0.88,,
Lamp PD:,3797,,
Shift Vector Coefficients:,-10.5391,0.0761263,-0.000134223,,
Pixel to Wavelength Coefficients:,1775.68,-0.916766,-0.000235065,,
Serial Number:,5510004,,
Scan Config Name:,Column 1,,
Scan Config Type:,Slew,,
Section 1,,
Start wavelength (nm):,900,,
End wavelength (nm):,1700,,
Pattern Pixel Width (nm):,   7.03,,,,
Exposure (ms):,  0.635,,,,
Digital Resolution:,228,,
Num Repeats:,6,,
PGA Gain:,64,,
Total Measurement Time in sec:,  2.727,,
Wavelength (nm),Absorbance (AU),Reference Signal (unitless),Sample Signal (unitless)
901.51,1.316453,108485,5235
905.376,1.318810,121306,5822
909.237,1.325090,131909,6240
913.095,1.304435,143299,7109
916.948,1.311281,156982,7666
922.079,1.327801,179937,8459
925.923,1.314904,200504,9710
929.762,1.321681,222660,10616
933.597,1.327676,244426,11494
937.427,1.327681,263972,12413
941.254,1.313861,281845,13682
945.076,1.320222,297271,14221
950.165,1.331354,315605,14716
953.978,1.307444,328029,16161
957.786,1.316071,340470,16444
961.59,1.318456,352317,16923
965.389,1.310947,363056,17743
969.185,1.312112,373162,18188
972.976,1.303685,382632,19015
976.763,1.306461,391202,19317
981.806,1.307183,400190,19728
985.583,1.307069,406088,20024
989.355,1.303240,410162,20404
993.124,1.306863,412868,20368
996.888,1.304803,414263,20534
1000.65,1.300754,415476,20787
1004.4,1.310497,415479,20326
1009.41,1.311638,414358,20218
1013.15,1.293753,412923,20995
1016.89,1.305641,411526,20359
1020.63,1.306743,409066,20186
1024.36,1.307892,406777,20020
1028.09,1.313964,404427,19628
1031.82,1.305692,401911,19881
1036.78,1.300518,398410,19944
1040.49,1.303739,396204,19687
1044.2,1.319754,394236,18880
1047.91,1.298999,392042,19694
1051.61,1.308767,389823,19147
1055.31,1.306358,388234,19175
1059,1.308283,387599,19059
1063.92,1.307329,386688,19056
1067.61,1.310040,386598,18933
1071.29,1.309975,387377,18974
1074.96,1.314904,388536,18816
1078.63,1.313363,389855,18947
1082.3,1.306723,391215,19306
1085.96,1.311578,393215,19189
1090.84,1.319100,396270,19006
1094.49,1.314907,398760,19311
1098.14,1.317528,400987,19302
1101.79,1.321320,403477,19253
1105.43,1.315221,406116,19653
1109.06,1.312669,407701,19846
1112.7,1.311301,409859,20014
1117.53,1.309851,412494,20210
1121.15,1.317858,414909,19957
1124.77,1.316826,416559,20084
1128.38,1.309424,418532,20526
1131.99,1.314746,419956,20345
1135.6,1.312804,421946,20533
1139.2,1.316126,423881,20470
1143.99,1.312983,426786,20760
1147.58,1.317739,428617,20622
1151.17,1.315375,431169,20858
1154.75,1.315180,433579,20984
1158.33,1.323339,436264,20721
1161.91,1.317675,439132,21131
1165.48,1.313245,442389,21506
1169.04,1.308513,446101,21924
1173.79,1.318570,451929,21702
1177.34,1.314008,456026,22130
1180.9,1.316054,461306,22281
1184.44,1.315128,467657,22636
1187.99,1.307351,473969,23356
1191.52,1.319289,479856,23005
1195.06,1.316516,487372,23515
1199.76,1.316394,497347,24003
1203.29,1.322777,504311,23984
1206.81,1.313281,511507,24864
1210.33,1.321236,519078,24774
1213.84,1.315200,527163,25512
1217.35,1.326396,534208,25195
1220.85,1.317934,540472,25992
1225.51,1.323317,549929,26121
1229.01,1.317860,556888,26786
1232.5,1.317997,562180,27032
1235.98,1.322082,567975,27055
1239.46,1.321920,574815,27391
1242.94,1.317001,582782,28087
1246.41,1.321288,591476,28226
1251.03,1.320181,604016,28898
1254.5,1.330621,612289,28598
1257.96,1.324629,619125,29319
1261.41,1.322548,624551,29718
1264.86,1.328083,629900,29593
1268.31,1.322678,634345,30175
1271.75,1.325434,638574,30184
1276.33,1.319801,642499,30766
1279.76,1.319059,645905,30982
1283.19,1.322174,648307,30875
1286.61,1.323267,650446,30899
1290.03,1.321533,652132,31103
1293.44,1.328406,653907,30698
1296.85,1.327962,655963,30826
1301.39,1.326014,657349,31030
1304.8,1.323626,657558,31211
1308.19,1.328635,658515,30898
1311.58,1.328180,658804,30944
1314.97,1.323501,659011,31289
1318.36,1.325045,658272,31143
1321.73,1.328648,658022,30874
1326.23,1.332092,657870,30623
1329.6,1.333764,656482,30441
1332.97,1.327205,654926,30831
1336.33,1.322566,653727,31105
1339.69,1.323287,652497,30995
1343.04,1.332101,649913,30252
1346.39,1.328638,647671,30389
1349.73,1.326000,645338,30464
1354.18,1.325233,641175,30321
1357.52,1.328361,638376,29972
1360.85,1.326550,635805,29976
1364.17,1.324566,633413,30000
1367.49,1.322463,631026,30032
1370.81,1.319615,628050,30087
1374.12,1.328088,625034,29364
1378.54,1.324161,620272,29405
1381.84,1.320711,616892,29478
1385.14,1.325961,613613,28969
1388.43,1.322194,611526,29122
1391.72,1.325204,610663,28880
1395.01,1.318721,610634,29313
1398.29,1.330765,611700,28561
1402.66,1.326181,614051,28975
1405.93,1.328196,616268,28945
1409.2,1.328237,617795,29014
1412.46,1.329203,618872,29000
1415.72,1.334351,619795,28701
1418.98,1.326731,620495,29242
1422.23,1.332886,621087,28858
1426.56,1.325760,621375,29349
1429.8,1.332339,621616,28919
1433.04,1.334609,622129,28792
1436.27,1.329074,621526,29133
1439.5,1.332739,621113,28869
1442.72,1.331328,620921,28954
1445.94,1.329270,620270,29061
1450.23,1.335895,618860,28556
1453.44,1.330133,617697,28883
1456.64,1.334770,616264,28510
1459.85,1.330336,614413,28716
1463.04,1.335597,612307,28273
1466.24,1.327289,610032,28712
1469.43,1.336541,607345,27983
1473.67,1.329544,603789,28271
1476.85,1.328783,601175,28198
1480.02,1.336609,597737,27536
1483.19,1.334788,594479,27501
1486.36,1.335802,591232,27287
1489.52,1.333775,587853,27258
1492.68,1.334795,583875,27010
1496.89,1.325621,578062,27312
1500.03,1.341860,574159,26132
1503.18,1.331946,570285,26555
1506.32,1.335949,565444,26088
1509.45,1.331491,560571,26130
1512.58,1.340871,555821,25355
1515.71,1.333634,550344,25527
1519.87,1.334185,543983,25200
1522.99,1.333285,538764,25010
1526.1,1.335720,533692,24636
1529.21,1.332024,527902,24577
1532.32,1.334173,521886,24177
1535.42,1.335723,515888,23814
1538.51,1.333489,509987,23663
1541.6,1.327187,503936,23724
1545.72,1.333573,494694,22949
1548.8,1.329813,488378,22853
1551.88,1.330559,481832,22508
1554.95,1.333965,474989,22015
1558.02,1.326511,467818,22058
1561.08,1.328531,460730,21623
1564.15,1.328248,454170,21329
1568.22,1.330605,444181,20747
1571.27,1.330820,436947,20399
1574.32,1.329456,429598,20119
1577.36,1.327155,422039,19870
1580.4,1.334432,414375,19185
1583.43,1.327258,406354,19127
1586.46,1.322242,398475,18974
1590.49,1.319204,388982,18652
1593.51,1.324259,380708,18044
1596.53,1.325952,372727,17597
1599.54,1.334375,365060,16904
1602.55,1.316564,357543,17249
1605.55,1.319867,349495,16733
1608.55,1.328505,341154,16012
1612.54,1.320652,330877,15813
1615.53,1.335072,322904,14928
1618.51,1.333315,315116,14627
1621.49,1.332140,307217,14299
1624.47,1.314283,299481,14524
1627.44,1.311826,292112,14247
1630.41,1.309212,284245,13947
1634.36,1.324635,274079,12979
1637.32,1.315011,266916,12923
1640.27,1.316616,259612,12523
1643.22,1.304709,251804,12484
1646.16,1.300973,244348,12219
1649.1,1.306761,236703,11680
1652.04,1.306761,228171,11259
1655.95,1.297272,215408,10864
1658.88,1.281628,204937,10715
1661.8,1.293892,193395,9830
1664.72,1.270854,179728,9633
1667.63,1.254233,163642,9113
1670.54,1.240949,146312,8401
1673.44,1.228954,128451,7582
1677.31,1.189778,105080,6788
1680.21,1.174049,88906,5955
1683.1,1.133313,75033,5520
1685.99,1.178216,63520,4214
1688.87,1.114769,53714,4124
1691.75,1.177597,45653,3033
1694.62,1.189295,39137,2531
1697.49,1.216431,33776,2052
1701.31,1.192425,28175,1809