Folder: textile_sorting_NIRSCAN_/ML/samples/unknown (part 37)

File: Column 1_078238_20241121_165216.csv
Method:,Column 1,,
Host Date-Time:,21/11/24 @ 16:52:16,,
Header Version:,1,,
System Temp (C):,34.18,,
Detector Temp (C):,31.53,,
Humidity (%):,2.74,,
Lamp PD:,3802,,
Shift Vector Coefficients:,-10.5391,0.0761263,-0.000134223,,
Pixel to Wavelength Coefficients:,1775.68,-0.916766,-0.000235065,,
Serial Number:,5510004,,
Scan Config Name:,Column 1,,
Scan Config Type:,Slew,,
Section 1,,
Start wavelength (nm):,900,,
End wavelength (nm):,1700,,
Pattern Pixel Width (nm):,   7.03,,,,
Exposure (ms):,  0.635,,,,
Digital Resolution:,228,,
Num Repeats:,6,,
PGA Gain:,64,,
Total Measurement Time in sec:,  2.726,,
Wavelength (nm),Absorbance (AU),Reference Signal (unitless),Sample Signal (unitless)
901.51,1.357216,108485,4766
905.376,1.315540,121306,5866
909.237,1.318596,131909,6334
913.095,1.321950,143299,6828
916.948,1.322878,156982,7464
922.079,1.307344,179937,8867
925.923,1.340987,200504,9144
929.762,1.315547,222660,10767
933.597,1.325603,244426,11549
937.427,1.325970,263972,12462
941.254,1.319355,281845,13510
945.076,1.317513,297271,14310
950.165,1.323429,315605,14987
953.978,1.309923,328029,16069
957.786,1.322323,340470,16209
961.59,1.309591,352317,17272
965.389,1.315672,363056,17551
969.185,1.321209,373162,17811
972.976,1.302932,382632,19048
976.763,1.314586,391202,18959
981.806,1.310387,400190,19583
985.583,1.318920,406088,19485
989.355,1.308680,410162,20150
993.124,1.297978,412868,20789
996.888,1.309673,414263,20305
1000.65,1.309896,415476,20354
1004.4,1.305801,415479,20547
1009.41,1.311895,414358,20206
1013.15,1.318109,412923,19850
1016.89,1.310920,411526,20113
1020.63,1.304233,409066,20303
1024.36,1.310023,406777,19922
1028.09,1.319330,404427,19387
1031.82,1.305059,401911,19910
1036.78,1.315043,398410,19288
1040.49,1.300290,396204,19844
1044.2,1.315064,394236,19085
1047.91,1.309918,392042,19205
1051.61,1.310722,389823,19061
1055.31,1.309472,388234,19038
1059,1.317681,387599,18651
1063.92,1.308973,386688,18984
1067.61,1.313448,386598,18785
1071.29,1.307373,387377,19088
1074.96,1.314212,388536,18846
1078.63,1.316168,389855,18825
1082.3,1.316713,391215,18867
1085.96,1.315694,393215,19008
1090.84,1.316412,396270,19124
1094.49,1.314390,398760,19334
1098.14,1.315306,400987,19401
1101.79,1.320509,403477,19289
1105.43,1.312007,406116,19799
1109.06,1.320641,407701,19485
1112.7,1.322756,409859,19493
1117.53,1.319631,412494,19760
1121.15,1.313204,414909,20172
1124.77,1.317151,416559,20069
1128.38,1.324012,418532,19848
1131.99,1.322065,419956,20005
1135.6,1.318596,421946,20261
1139.2,1.317805,423881,20391
1143.99,1.321859,426786,20340
1147.58,1.323420,428617,20354
1151.17,1.325273,431169,20388
1154.75,1.330622,433579,20251
1158.33,1.320518,436264,20856
1161.91,1.323073,439132,20870
1165.48,1.321460,442389,21103
1169.04,1.328975,446101,20915
1173.79,1.322692,451929,21497
1177.34,1.314126,456026,22124
1180.9,1.313664,461306,22404
1184.44,1.317089,467657,22534
1187.99,1.322161,473969,22573
1191.52,1.318365,479856,23054
1195.06,1.317884,487372,23441
1199.76,1.329360,497347,23297
1203.29,1.316842,504311,24314
1206.81,1.326276,511507,24131
1210.33,1.326262,519078,24489
1213.84,1.325066,527163,24939
1217.35,1.330762,534208,24943
1220.85,1.323094,540472,25685
1225.51,1.325116,549929,26013
1229.01,1.321001,556888,26593
1232.5,1.320608,562180,26870
1235.98,1.325595,567975,26837
1239.46,1.321603,574815,27411
1242.94,1.326300,582782,27492
1246.41,1.324764,591476,28001
1251.03,1.323606,604016,28671
1254.5,1.321856,612289,29181
1257.96,1.329335,619125,29003
1261.41,1.327841,624551,29358
1264.86,1.333681,629900,29214
1268.31,1.327585,634345,29836
1271.75,1.332016,638574,29730
1276.33,1.328355,642499,30166
1279.76,1.329228,645905,30265
1283.19,1.328593,648307,30422
1286.61,1.332615,650446,30241
1290.03,1.327268,652132,30695
1293.44,1.333372,653907,30349
1296.85,1.327751,655963,30841
1301.39,1.331082,657349,30670
1304.8,1.335947,657558,30338
1308.19,1.332873,658515,30598
1311.58,1.333219,658804,30587
1314.97,1.336119,659011,30393
1318.36,1.326316,658272,31052
1321.73,1.330480,658022,30744
1326.23,1.333911,657870,30495
1329.6,1.334278,656482,30405
1332.97,1.334506,654926,30317
1336.33,1.332023,653727,30435
1339.69,1.331934,652497,30384
1343.04,1.334419,649913,30091
1346.39,1.328509,647671,30398
1349.73,1.332724,645338,29996
1354.18,1.326380,641175,30241
1357.52,1.329347,638376,29904
1360.85,1.325032,635805,30081
1364.17,1.328361,633413,29739
1367.49,1.326210,631026,29774
1370.81,1.336301,628050,28953
1374.12,1.347677,625034,28069
1378.54,1.325463,620272,29317
1381.84,1.328921,616892,28926
1385.14,1.321650,613613,29258
1388.43,1.327626,611526,28760
1391.72,1.327723,610663,28713
1395.01,1.326826,610634,28771
1398.29,1.324051,611700,29006
1402.66,1.332233,614051,28574
1405.93,1.331253,616268,28742
1409.2,1.328372,617795,29005
1412.46,1.338099,618872,28412
1415.72,1.330930,619795,28928
1418.98,1.334856,620495,28700
1422.23,1.330216,621087,29036
1426.56,1.338890,621375,28475
1429.8,1.335051,621616,28739
1433.04,1.335016,622129,28765
1436.27,1.338843,621526,28485
1439.5,1.331732,621113,28936
1442.72,1.333478,620921,28811
1445.94,1.334896,620270,28687
1450.23,1.333741,618860,28698
1453.44,1.333984,617697,28628
1456.64,1.332536,616264,28657
1459.85,1.334959,614413,28412
1463.04,1.334830,612307,28323
1466.24,1.334457,610032,28242
1469.43,1.335255,607345,28066
1473.67,1.341363,603789,27512
1476.85,1.333646,601175,27884
1480.02,1.331280,597737,27876
1483.19,1.333196,594479,27602
1486.36,1.338709,591232,27105
1489.52,1.338613,587853,26956
1492.68,1.340443,583875,26661
1496.89,1.339319,578062,26464
1500.03,1.338977,574159,26306
1503.18,1.340001,570285,26067
1506.32,1.335234,565444,26131
1509.45,1.344653,560571,25350
1512.58,1.333787,555821,25772
1515.71,1.340857,550344,25106
1519.87,1.360892,543983,23697
1522.99,1.336649,538764,24817
1526.1,1.343529,533692,24197
1529.21,1.342722,527902,23979
1532.32,1.340452,521886,23830
1535.42,1.333576,515888,23932
1538.51,1.341454,509987,23233
1541.6,1.346713,503936,22681
1545.72,1.336955,494694,22771
1548.8,1.328674,488378,22913
1551.88,1.344479,481832,21798
1554.95,1.335209,474989,21952
1558.02,1.338407,467818,21462
1561.08,1.336149,460730,21247
1564.15,1.335268,454170,20987
1568.22,1.334621,444181,20556
1571.27,1.345720,436947,19711
1574.32,1.332423,429598,19982
1577.36,1.344820,422039,19078
1580.4,1.334296,414375,19191
1583.43,1.328417,406354,19076
1586.46,1.333065,398475,18507
1590.49,1.332539,388982,18088
1593.51,1.334192,380708,17636
1596.53,1.334023,372727,17273
1599.54,1.336332,365060,16828
1602.55,1.328692,357543,16774
1605.55,1.334221,349495,16189
1608.55,1.330435,341154,15941
1612.54,1.320845,330877,15806
1615.53,1.322824,322904,15355
1618.51,1.324935,315116,14912
1621.49,1.314026,307217,14908
1624.47,1.335390,299481,13835
1627.44,1.320260,292112,13973
1630.41,1.325326,284245,13439
1634.36,1.323098,274079,13025
1637.32,1.306525,266916,13178
1640.27,1.321534,259612,12382
1643.22,1.340327,251804,11501
1646.16,1.330952,244348,11404
1649.1,1.308811,236703,11625
1652.04,1.309469,228171,11189
1655.95,1.313108,215408,10475
1658.88,1.311534,204937,10002
1661.8,1.280065,193395,10148
1664.72,1.289038,179728,9238
1667.63,1.273378,163642,8720
1670.54,1.284067,146312,7607
1673.44,1.268820,128451,6917
1677.31,1.220666,105080,6322
1680.21,1.259800,88906,4888
1683.1,1.236364,75033,4354
1685.99,1.221872,63520,3811
1688.87,1.238306,53714,3103
1691.75,1.233121,45653,2669
1694.62,1.187754,39137,2540
1697.49,1.188362,33776,2189
1701.31,1.316006,28175,1361

File: Column 1_078239_20241121_165219.csv
Method:,Column 1,,
Host Date-Time:,21/11/24 @ 16:52:19,,
Header Version:,1,,
System Temp (C):,34.07,,
Detector Temp (C):,31.53,,
Humidity (%):,2.64,,
Lamp PD:,3803,,
Shift Vector Coefficients:,-10.5391,0.0761263,-0.000134223,,
Pixel to Wavelength Coefficients:,1775.68,-0.916766,-0.000235065,,
Serial Number:,5510004,,
Scan Config Name:,Column 1,,
Scan Config Type:,Slew,,
Section 1,,
Start wavelength (nm):,900,,
End wavelength (nm):,1700,,
Pattern Pixel Width (nm):,   7.03,,,,
Exposure (ms):,  0.635,,,,
Digital Resolution:,228,,
Num Repeats:,6,,
PGA Gain:,64,,
Total Measurement Time in sec:,  2.725,,
Wavelength (nm),Absorbance (AU),Reference Signal (unitless),Sample Signal (unitless)
901.51,1.307666,108485,5342
905.376,1.325955,121306,5727
909.237,1.329637,131909,6175
913.095,1.326554,143299,6756
916.948,1.330568,156982,7333
922.079,1.318959,179937,8633
925.923,1.345907,200504,9041
929.762,1.329858,222660,10418
933.597,1.323952,244426,11593
937.427,1.318576,263972,12676
941.254,1.326616,281845,13286
945.076,1.317756,297271,14302
950.165,1.315220,315605,15273
953.978,1.313533,328029,15936
957.786,1.302755,340470,16956
961.59,1.309541,352317,17274
965.389,1.310726,363056,17752
969.185,1.314603,373162,18084
972.976,1.322495,382632,18209
976.763,1.297252,391202,19731
981.806,1.310232,400190,19590
985.583,1.306462,406088,20052
989.355,1.309392,410162,20117
993.124,1.305649,412868,20425
996.888,1.306455,414263,20456
1000.65,1.308235,415476,20432
1004.4,1.309793,415479,20359
1009.41,1.310693,414358,20262
1013.15,1.304794,412923,20468
1016.89,1.298364,411526,20703
1020.63,1.315457,409066,19785
1024.36,1.311224,406777,19867
1028.09,1.307682,404427,19914
1031.82,1.307267,401911,19809
1036.78,1.318229,398410,19147
1040.49,1.307128,396204,19534
1044.2,1.310086,394236,19305
1047.91,1.315265,392042,18970
1051.61,1.309470,389823,19116
1055.31,1.301673,388234,19383
1059,1.312979,387599,18854
1063.92,1.299760,386688,19391
1067.61,1.309650,386598,18950
1071.29,1.313099,387377,18838
1074.96,1.314304,388536,18842
1078.63,1.307059,389855,19224
1082.3,1.316736,391215,18866
1085.96,1.320934,393215,18780
1090.84,1.314464,396270,19210
1094.49,1.317772,398760,19184
1098.14,1.319400,400987,19219
1101.79,1.311463,403477,19695
1105.43,1.318727,406116,19495
1109.06,1.306153,407701,20146
1112.7,1.324810,409859,19401
1117.53,1.316368,412494,19909
1121.15,1.325055,414909,19629
1124.77,1.320671,416559,19907
1128.38,1.313399,418532,20339
1131.99,1.316757,419956,20251
1135.6,1.319068,421946,20239
1139.2,1.318509,423881,20358
1143.99,1.318626,426786,20492
1147.58,1.314633,428617,20770
1151.17,1.314917,431169,20880
1154.75,1.316237,433579,20933
1158.33,1.317571,436264,20998
1161.91,1.319199,439132,21057
1165.48,1.321069,442389,21122
1169.04,1.317561,446101,21472
1173.79,1.313972,451929,21933
1177.34,1.318446,456026,21905
1180.9,1.332643,461306,21446
1184.44,1.315224,467657,22631
1187.99,1.317415,473969,22821
1191.52,1.317255,479856,23113
1195.06,1.319165,487372,23372
1199.76,1.322314,497347,23678
1203.29,1.325429,504311,23838
1206.81,1.324911,511507,24207
1210.33,1.322799,519078,24685
1213.84,1.321597,527163,25139
1217.35,1.322518,534208,25421
1220.85,1.323838,540472,25641
1225.51,1.326019,549929,25959
1229.01,1.322096,556888,26526
1232.5,1.325647,562180,26560
1235.98,1.327981,567975,26690
1239.46,1.323859,574815,27269
1242.94,1.324581,582782,27601
1246.41,1.326972,591476,27859
1251.03,1.328557,604016,28346
1254.5,1.324603,612289,28997
1257.96,1.324170,619125,29350
1261.41,1.323119,624551,29679
1264.86,1.329141,629900,29521
1268.31,1.323254,634345,30135
1271.75,1.329424,638574,29908
1276.33,1.328038,642499,30188
1279.76,1.325314,645905,30539
1283.19,1.330266,648307,30305
1286.61,1.327831,650446,30576
1290.03,1.324911,652132,30862
1293.44,1.330306,653907,30564
1296.85,1.334106,655963,30393
1301.39,1.330941,657349,30680
1304.8,1.329383,657558,30800
1308.19,1.335878,658515,30387
1311.58,1.328390,658804,30929
1314.97,1.327699,659011,30988
1318.36,1.333309,658272,30556
1321.73,1.328380,658022,30893
1326.23,1.338133,657870,30200
1329.6,1.333379,656482,30468
1332.97,1.332947,654926,30426
1336.33,1.330286,653727,30557
1339.69,1.332119,652497,30371
1343.04,1.327276,649913,30590
1346.39,1.332096,647671,30148
1349.73,1.332883,645338,29985
1354.18,1.329262,641175,30041
1357.52,1.334049,638376,29582
1360.85,1.328205,635805,29862
1364.17,1.322299,633413,30157
1367.49,1.332972,631026,29314
1370.81,1.329352,628050,29420
1374.12,1.327482,625034,29405
1378.54,1.327125,620272,29205
1381.84,1.330169,616892,28843
1385.14,1.329967,613613,28703
1388.43,1.327098,611526,28795
1391.72,1.328768,610663,28644
1395.01,1.327113,610634,28752
1398.29,1.325400,611700,28916
1402.66,1.335422,614051,28365
1405.93,1.330392,616268,28799
1409.2,1.334023,617795,28630
1412.46,1.333870,618872,28690
1415.72,1.333580,619795,28752
1418.98,1.328159,620495,29146
1422.23,1.333881,621087,28792
1426.56,1.334444,621375,28768
1429.8,1.335413,621616,28715
1433.04,1.335197,622129,28753
1436.27,1.333811,621526,28817
1439.5,1.337793,621113,28535
1442.72,1.335700,620921,28664
1445.94,1.332330,620270,28857
1450.23,1.337373,618860,28459
1453.44,1.334698,617697,28581
1456.64,1.335837,616264,28440
1459.85,1.333204,614413,28527
1463.04,1.330770,612307,28589
1466.24,1.333290,610032,28318
1469.43,1.340141,607345,27752
1473.67,1.333324,603789,28026
1476.85,1.335519,601175,27764
1480.02,1.338015,597737,27447
1483.19,1.338770,594479,27250
1486.36,1.333595,591232,27426
1489.52,1.339016,587853,26931
1492.68,1.339890,583875,26695
1496.89,1.332367,578062,26891
1500.03,1.340101,574159,26238
1503.18,1.343329,570285,25868
1506.32,1.339442,565444,25879
1509.45,1.332406,560571,26075
1512.58,1.338122,555821,25516
1515.71,1.345640,550344,24831
1519.87,1.340941,543983,24811
1522.99,1.342605,538764,24479
1526.1,1.342203,533692,24271
1529.21,1.326720,527902,24879
1532.32,1.343928,521886,23640
1535.42,1.341432,515888,23503
1538.51,1.335384,509987,23560
1541.6,1.335150,503936,23293
1545.72,1.328643,494694,23211
1548.8,1.333458,488378,22662
1551.88,1.336680,481832,22193
1554.95,1.332625,474989,22083
1558.02,1.328010,467818,21982
1561.08,1.339411,460730,21088
1564.15,1.335206,454170,20990
1568.22,1.334833,444181,20546
1571.27,1.341161,436947,19919
1574.32,1.329456,429598,20119
1577.36,1.344865,422039,19076
1580.4,1.331521,414375,19314
1583.43,1.338109,406354,18655
1586.46,1.325459,398475,18834
1590.49,1.328690,388982,18249
1593.51,1.339170,380708,17435
1596.53,1.341811,372727,16966
1599.54,1.324619,365060,17288
1602.55,1.332906,357543,16612
1605.55,1.328677,349495,16397
1608.55,1.328342,341154,16018
1612.54,1.330682,330877,15452
1615.53,1.338812,322904,14800
1618.51,1.319609,315116,15096
1621.49,1.319095,307217,14735
1624.47,1.327366,299481,14093
1627.44,1.322503,292112,13901
1630.41,1.319930,284245,13607
1634.36,1.315299,274079,13261
1637.32,1.313066,266916,12981
1640.27,1.315093,259612,12567
1643.22,1.300589,251804,12603
1646.16,1.317971,244348,11750
1649.1,1.319782,236703,11335
1652.04,1.307224,228171,11247
1655.95,1.294960,215408,10922
1658.88,1.289563,204937,10521
1661.8,1.304129,193395,9601
1664.72,1.288005,179728,9260
1667.63,1.277985,163642,8628
1670.54,1.268368,146312,7887
1673.44,1.255953,128451,7125
1677.31,1.238832,105080,6063
1680.21,1.216216,88906,5404
1683.1,1.190766,75033,4836
1685.99,1.175237,63520,4243
1688.87,1.179004,53714,3557
1691.75,1.215268,45653,2781
1694.62,1.208234,39137,2423
1697.49,1.202682,33776,2118
1701.31,1.178487,28175,1868

File: Column 1_078240_20241121_165221.csv
Method:,Column 1,,
Host Date-Time:,21/11/24 @ 16:52:21,,
Header Version:,1,,
System Temp (C):,34.07,,
Detector Temp (C):,31.61,,
Humidity (%):,2.6,,
Lamp PD:,3803,,
Shift Vector Coefficients:,-10.5391,0.0761263,-0.000134223,,
Pixel to Wavelength Coefficients:,1775.68,-0.916766,-0.000235065,,
Serial Number:,5510004,,
Scan Config Name:,Column 1,,
Scan Config Type:,Slew,,
Section 1,,
Start wavelength (nm):,900,,
End wavelength (nm):,1700,,
Pattern Pixel Width (nm):,   7.03,,,,
Exposure (ms):,  0.635,,,,
Digital Resolution:,228,,
Num Repeats:,6,,
PGA Gain:,64,,
Total Measurement Time in sec:,  2.726,,
Wavelength (nm),Absorbance (AU),Reference Signal (unitless),Sample Signal (unitless)
901.51,1.313889,108485,5266
905.376,1.303133,121306,6036
909.237,1.332035,131909,6141
913.095,1.332899,143299,6658
916.948,1.312984,156982,7636
922.079,1.321431,179937,8584
925.923,1.312896,200504,9755
929.762,1.329441,222660,10428
933.597,1.325377,244426,11555
937.427,1.318096,263972,12690
941.254,1.323652,281845,13377
945.076,1.313646,297271,14438
950.165,1.324416,315605,14953
953.978,1.324014,328029,15556
957.786,1.310013,340470,16675
961.59,1.317636,352317,16955
965.389,1.307169,363056,17898
969.185,1.313069,373162,18148
972.976,1.313993,382632,18569
976.763,1.308625,391202,19221
981.806,1.304725,400190,19840
985.583,1.309614,406088,19907
989.355,1.312230,410162,19986
993.124,1.309000,412868,20268
996.888,1.313842,414263,20111
1000.65,1.304089,415476,20628
1004.4,1.313736,415479,20175
1009.41,1.311809,414358,20210
1013.15,1.321381,412923,19701
1016.89,1.308058,411526,20246
1020.63,1.318144,409066,19663
1024.36,1.304500,406777,20177
1028.09,1.313102,404427,19667
1031.82,1.309069,401911,19727
1036.78,1.310184,398410,19505
1040.49,1.316545,396204,19115
1044.2,1.316432,394236,19025
1047.91,1.312572,392042,19088
1051.61,1.320072,389823,18655
1055.31,1.322768,388234,18464
1059,1.310911,387599,18944
1063.92,1.315984,386688,18680
1067.61,1.313865,386598,18767
1071.29,1.320071,387377,18538
1074.96,1.314120,388536,18850
1078.63,1.311213,389855,19041
1082.3,1.319994,391215,18725
1085.96,1.322278,393215,18722
1090.84,1.316367,396270,19126
1094.49,1.311123,398760,19480
1098.14,1.330662,400987,18727
1101.79,1.317011,403477,19445
1105.43,1.319574,406116,19457
1109.06,1.319528,407701,19535
1112.7,1.317353,409859,19737
1117.53,1.328826,412494,19346
1121.15,1.313441,414909,20161
1124.77,1.322091,416559,19842
1128.38,1.324012,418532,19848
1131.99,1.322326,419956,19993
1135.6,1.323207,421946,20047
1139.2,1.321012,423881,20241
1143.99,1.327749,426786,20066
1147.58,1.327407,428617,20168
1151.17,1.318698,431169,20699
1154.75,1.326885,433579,20426
1158.33,1.313885,436264,21177
1161.91,1.317038,439132,21162
1165.48,1.323606,442389,20999
1169.04,1.313995,446101,21649
1173.79,1.328079,451929,21232
1177.34,1.324817,456026,21586
1180.9,1.317988,461306,22182
1184.44,1.317243,467657,22526
1187.99,1.320816,473969,22643
1191.52,1.322719,479856,22824
1195.06,1.321624,487372,23240
1199.76,1.319608,497347,23826
1203.29,1.327017,504311,23751
1206.81,1.323603,511507,24280
1210.33,1.326492,519078,24476
1213.84,1.324613,527163,24965
1217.35,1.322023,534208,25450
1220.85,1.323567,540472,25657
1225.51,1.325768,549929,25974
1229.01,1.330260,556888,26032
1232.5,1.325435,562180,26573
1235.98,1.320431,567975,27158
1239.46,1.324209,574815,27247
1242.94,1.323858,582782,27647
1246.41,1.327986,591476,27794
1251.03,1.327929,604016,28387
1254.5,1.331990,612289,28508
1257.96,1.331452,619125,28862
1261.41,1.323968,624551,29621
1264.86,1.331974,629900,29329
1268.31,1.333550,634345,29429
1271.75,1.329467,638574,29905
1276.33,1.335204,642499,29694
1279.76,1.330421,645905,30182
1283.19,1.330338,648307,30300
1286.61,1.331568,650446,30314
1290.03,1.330463,652132,30470
1293.44,1.328873,653907,30665
1296.85,1.328992,655963,30753
1301.39,1.332146,657349,30595
1304.8,1.332142,657558,30605
1308.19,1.334921,658515,30454
1311.58,1.331377,658804,30717
1314.97,1.331556,659011,30714
1318.36,1.331111,658272,30711
1321.73,1.331923,658022,30642
1326.23,1.327493,657870,30949
1329.6,1.328503,656482,30812
1332.97,1.336516,654926,30177
1336.33,1.336224,653727,30142
1339.69,1.331962,652497,30382
1343.04,1.330911,649913,30335
1346.39,1.336105,647671,29871
1349.73,1.333637,645338,29933
1354.18,1.327099,641175,30191
1357.52,1.332349,638376,29698
1360.85,1.336353,635805,29307
1364.17,1.328989,633413,29696
1367.49,1.332410,631026,29352
1370.81,1.332998,628050,29174
1374.12,1.335713,625034,28853
1378.54,1.331955,620272,28882
1381.84,1.327602,616892,29014
1385.14,1.332365,613613,28545
1388.43,1.332394,611526,28446
1391.72,1.332346,610663,28409
1395.01,1.326042,610634,28823
1398.29,1.327538,611700,28774
1402.66,1.327216,614051,28906
1405.93,1.333434,616268,28598
1409.2,1.329481,617795,28931
1412.46,1.331575,618872,28842
1415.72,1.334745,619795,28675
1418.98,1.336069,620495,28620
1422.23,1.339345,621087,28432
1426.56,1.335896,621375,28672
1429.8,1.337430,621616,28582
1433.04,1.332232,622129,28950
1436.27,1.336759,621526,28622
1439.5,1.339226,621113,28441
1442.72,1.336929,620921,28583
1445.94,1.333098,620270,28806
1450.23,1.343443,618860,28064
1453.44,1.333499,617697,28660
1456.64,1.341045,616264,28101
1459.85,1.338088,614413,28208
1463.04,1.339718,612307,28006
1466.24,1.334242,610032,28256
1469.43,1.342086,607345,27628
1473.67,1.339316,603789,27642
1476.85,1.342139,601175,27344
1480.02,1.337746,597737,27464
1483.19,1.344562,594479,26889
1486.36,1.336838,591232,27222
1489.52,1.332248,587853,27354
1492.68,1.338169,583875,26801
1496.89,1.341903,578062,26307
1500.03,1.347867,574159,25773
1503.18,1.341185,570285,25996
1506.32,1.336182,565444,26074
1509.45,1.333407,560571,26015
1512.58,1.338190,555821,25512
1515.71,1.342104,550344,25034
1519.87,1.335203,543983,25141
1522.99,1.332972,538764,25028
1526.1,1.342758,533692,24240
1529.21,1.337537,527902,24267
1532.32,1.337274,521886,24005
1535.42,1.332652,515888,23983
1538.51,1.347762,509987,22898
1541.6,1.340270,503936,23020
1545.72,1.341055,494694,22557
1548.8,1.335359,488378,22563
1551.88,1.331641,481832,22452
1554.95,1.337630,474989,21830
1558.02,1.335061,467818,21628
1561.08,1.338835,460730,21116
1564.15,1.345931,454170,20478
1568.22,1.335827,444181,20499
1571.27,1.343457,436947,19814
1574.32,1.342293,429598,19533
1577.36,1.346096,422039,19022
1580.4,1.334500,414375,19182
1583.43,1.341334,406354,18517
1586.46,1.332526,398475,18530
1590.49,1.334343,388982,18013
1593.51,1.332202,380708,17717
1596.53,1.331966,372727,17355
1599.54,1.334400,365060,16903
1602.55,1.331810,357543,16654
1605.55,1.321818,349495,16658
1608.55,1.336387,341154,15724
1612.54,1.320735,330877,15810
1615.53,1.328288,322904,15163
1618.51,1.338302,315116,14460
1621.49,1.325838,307217,14508
1624.47,1.328631,299481,14052
1627.44,1.317935,292112,14048
1630.41,1.324229,284245,13473
1634.36,1.318125,274079,13175
1637.32,1.325866,266916,12604
1640.27,1.308746,259612,12752
1643.22,1.319679,251804,12061
1646.16,1.329355,244348,11446
1649.1,1.318481,236703,11369
1652.04,1.302347,228171,11374
1655.95,1.310545,215408,10537
1658.88,1.300939,204937,10249
1661.8,1.302098,193395,9646
1664.72,1.304008,179728,8925
1667.63,1.285448,163642,8481
1670.54,1.250990,146312,8209
1673.44,1.232173,128451,7526
1677.31,1.217517,105080,6368
1680.21,1.223673,88906,5312
1683.1,1.199016,75033,4745
1685.99,1.251217,63520,3562
1688.87,1.198353,53714,3402
1691.75,1.201587,45653,2870
1694.62,1.280410,39137,2052
1697.49,1.224764,33776,2013
1701.31,1.217885,28175,1706