Folder: textile_sorting_NIRSCAN_/ML/samples/unknown (part 111)

File: Column 1_078802_20241121_172253.csv
Method:,Column 1,,
Host Date-Time:,21/11/24 @ 17:22:53,,
Header Version:,1,,
System Temp (C):,36.64,,
Detector Temp (C):,35.3,,
Humidity (%):,0.53,,
Lamp PD:,3797,,
Shift Vector Coefficients:,-10.5391,0.0761263,-0.000134223,,
Pixel to Wavelength Coefficients:,1775.68,-0.916766,-0.000235065,,
Serial Number:,5510004,,
Scan Config Name:,Column 1,,
Scan Config Type:,Slew,,
Section 1,,
Start wavelength (nm):,900,,
End wavelength (nm):,1700,,
Pattern Pixel Width (nm):,   7.03,,,,
Exposure (ms):,  0.635,,,,
Digital Resolution:,228,,
Num Repeats:,6,,
PGA Gain:,64,,
Total Measurement Time in sec:,  2.723,,
Wavelength (nm),Absorbance (AU),Reference Signal (unitless),Sample Signal (unitless)
901.51,1.310930,108485,5302
905.376,1.293738,121306,6168
909.237,1.338734,131909,6047
913.095,1.309535,143299,7026
916.948,1.328382,156982,7370
922.079,1.313460,179937,8743
925.923,1.305524,200504,9922
929.762,1.306013,222660,11006
933.597,1.325265,244426,11558
937.427,1.305615,263972,13060
941.254,1.316344,281845,13604
945.076,1.306131,297271,14690
950.165,1.314793,315605,15288
953.978,1.310004,328029,16066
957.786,1.319385,340470,16319
961.59,1.320592,352317,16840
965.389,1.303857,363056,18035
969.185,1.313117,373162,18146
972.976,1.304851,382632,18964
976.763,1.301499,391202,19539
981.806,1.315271,400190,19364
985.583,1.306766,406088,20038
989.355,1.299046,410162,20602
993.124,1.302113,412868,20592
996.888,1.302566,414263,20640
1000.65,1.305776,415476,20548
1004.4,1.302831,415479,20688
1009.41,1.311144,414358,20241
1013.15,1.305197,412923,20449
1016.89,1.304554,411526,20410
1020.63,1.301887,409066,20413
1024.36,1.302396,406777,20275
1028.09,1.298126,404427,20357
1031.82,1.293415,401911,20451
1036.78,1.304609,398410,19757
1040.49,1.311171,396204,19353
1044.2,1.302548,394236,19643
1047.91,1.301586,392042,19577
1051.61,1.309289,389823,19124
1055.31,1.301158,388234,19406
1059,1.309583,387599,19002
1063.92,1.310485,386688,18918
1067.61,1.316395,386598,18658
1071.29,1.307601,387377,19078
1074.96,1.305904,388536,19210
1078.63,1.308576,389855,19157
1082.3,1.309408,391215,19187
1085.96,1.314986,393215,19039
1090.84,1.310458,396270,19388
1094.49,1.305761,398760,19722
1098.14,1.303340,400987,19943
1101.79,1.315317,403477,19521
1105.43,1.317926,406116,19531
1109.06,1.313282,407701,19818
1112.7,1.310217,409859,20064
1117.53,1.311272,412494,20144
1121.15,1.310371,414909,20304
1124.77,1.316394,416559,20104
1128.38,1.308980,418532,20547
1131.99,1.314255,419956,20368
1135.6,1.310190,421946,20657
1139.2,1.316084,423881,20472
1143.99,1.325440,426786,20173
1147.58,1.313839,428617,20808
1151.17,1.317671,431169,20748
1154.75,1.313630,433579,21059
1158.33,1.316828,436264,21034
1161.91,1.311391,439132,21439
1165.48,1.313932,442389,21472
1169.04,1.318938,446101,21404
1173.79,1.305598,451929,22360
1177.34,1.310471,456026,22311
1180.9,1.313237,461306,22426
1184.44,1.311003,467657,22852
1187.99,1.323317,473969,22513
1191.52,1.317217,479856,23115
1195.06,1.311813,487372,23771
1199.76,1.316575,497347,23993
1203.29,1.315558,504311,24386
1206.81,1.316982,511507,24653
1210.33,1.318075,519078,24955
1213.84,1.318807,527163,25301
1217.35,1.320472,534208,25541
1220.85,1.322063,540472,25746
1225.51,1.320054,549929,26318
1229.01,1.317925,556888,26782
1232.5,1.319156,562180,26960
1235.98,1.321857,567975,27069
1239.46,1.325822,574815,27146
1242.94,1.312524,582782,28378
1246.41,1.317916,591476,28446
1251.03,1.314196,604016,29299
1254.5,1.327745,612289,28788
1257.96,1.314947,619125,29980
1261.41,1.323221,624551,29672
1264.86,1.320936,629900,30084
1268.31,1.326509,634345,29910
1271.75,1.319121,638574,30626
1276.33,1.315909,642499,31043
1279.76,1.319887,645905,30923
1283.19,1.322878,648307,30825
1286.61,1.326526,650446,30668
1290.03,1.329054,652132,30569
1293.44,1.324252,653907,30993
1296.85,1.319881,655963,31405
1301.39,1.328245,657349,30871
1304.8,1.325984,657558,31042
1308.19,1.326938,658515,31019
1311.58,1.325619,658804,31127
1314.97,1.330398,659011,30796
1318.36,1.329728,658272,30809
1321.73,1.330000,658022,30778
1326.23,1.327227,657870,30968
1329.6,1.328672,656482,30800
1332.97,1.327980,654926,30776
1336.33,1.324553,653727,30963
1339.69,1.324943,652497,30877
1343.04,1.330025,649913,30397
1346.39,1.319755,647671,31017
1349.73,1.323782,645338,30620
1354.18,1.322748,641175,30495
1357.52,1.328520,638376,29961
1360.85,1.323533,635805,30185
1364.17,1.324161,633413,30028
1367.49,1.326794,631026,29734
1370.81,1.327863,628050,29521
1374.12,1.321600,625034,29806
1378.54,1.324737,620272,29366
1381.84,1.326943,616892,29058
1385.14,1.321977,613613,29236
1388.43,1.320126,611526,29261
1391.72,1.329557,610663,28592
1395.01,1.321128,610634,29151
1398.29,1.326393,611700,28850
1402.66,1.324192,614051,29108
1405.93,1.327971,616268,28960
1409.2,1.331135,617795,28821
1412.46,1.321146,618872,29543
1415.72,1.331576,619795,28885
1418.98,1.325115,620495,29351
1422.23,1.328276,621087,29166
1426.56,1.325746,621375,29350
1429.8,1.333632,621616,28833
1433.04,1.328929,622129,29171
1436.27,1.328300,621526,29185
1439.5,1.334050,621113,28782
1442.72,1.327059,620921,29240
1445.94,1.329091,620270,29073
1450.23,1.328357,618860,29056
1453.44,1.330163,617697,28881
1456.64,1.332369,616264,28668
1459.85,1.327999,614413,28871
1463.04,1.334677,612307,28333
1466.24,1.331316,610032,28447
1469.43,1.333202,607345,28199
1473.67,1.334954,603789,27921
1476.85,1.331920,601175,27995
1480.02,1.334454,597737,27673
1483.19,1.335199,594479,27475
1486.36,1.329749,591232,27670
1489.52,1.331978,587853,27371
1492.68,1.333639,583875,27082
1496.89,1.324462,578062,27385
1500.03,1.337297,574159,26408
1503.18,1.333026,570285,26489
1506.32,1.330161,565444,26438
1509.45,1.329667,560571,26240
1512.58,1.334630,555821,25722
1515.71,1.341463,550344,25071
1519.87,1.334961,543983,25155
1522.99,1.336597,538764,24820
1526.1,1.329003,533692,25020
1529.21,1.327927,527902,24810
1532.32,1.329155,521886,24458
1535.42,1.331278,515888,24059
1538.51,1.327239,509987,24006
1541.6,1.338275,503936,23126
1545.72,1.335755,494694,22834
1548.8,1.324787,488378,23119
1551.88,1.333851,481832,22338
1554.95,1.329529,474989,22241
1558.02,1.337174,467818,21523
1561.08,1.329073,460730,21596
1564.15,1.329492,454170,21268
1568.22,1.331778,444181,20691
1571.27,1.322428,436947,20797
1574.32,1.334624,429598,19881
1577.36,1.330093,422039,19736
1580.4,1.332985,414375,19249
1583.43,1.323595,406354,19289
1586.46,1.329722,398475,18650
1590.49,1.327217,388982,18311
1593.51,1.323634,380708,18070
1596.53,1.321777,372727,17767
1599.54,1.350683,365060,16281
1602.55,1.328148,357543,16795
1605.55,1.317434,349495,16827
1608.55,1.326529,341154,16085
1612.54,1.328579,330877,15527
1615.53,1.323900,322904,15317
1618.51,1.324935,315116,14912
1621.49,1.322082,307217,14634
1624.47,1.314253,299481,14525
1627.44,1.309303,292112,14330
1630.41,1.315833,284245,13736
1634.36,1.291221,274079,14017
1637.32,1.319776,266916,12782
1640.27,1.313851,259612,12603
1643.22,1.314347,251804,12210
1646.16,1.297010,244348,12331
1649.1,1.303612,236703,11765
1652.04,1.296883,228171,11518
1655.95,1.305586,215408,10658
1658.88,1.297352,204937,10334
1661.8,1.272808,193395,10319
1664.72,1.260255,179728,9871
1667.63,1.262703,163642,8937
1670.54,1.223918,146312,8737
1673.44,1.201918,128451,8069
1677.31,1.179160,105080,6956
1680.21,1.163032,88906,6108
1683.1,1.142698,75033,5402
1685.99,1.155430,63520,4441
1688.87,1.167914,53714,3649
1691.75,1.155951,45653,3188
1694.62,1.099967,39137,3109
1697.49,1.145152,33776,2418
1701.31,1.175475,28175,1881

File: Column 1_078803_20241121_172256.csv
Method:,Column 1,,
Host Date-Time:,21/11/24 @ 17:22:56,,
Header Version:,1,,
System Temp (C):,36.72,,
Detector Temp (C):,35.29,,
Humidity (%):,0.53,,
Lamp PD:,3797,,
Shift Vector Coefficients:,-10.5391,0.0761263,-0.000134223,,
Pixel to Wavelength Coefficients:,1775.68,-0.916766,-0.000235065,,
Serial Number:,5510004,,
Scan Config Name:,Column 1,,
Scan Config Type:,Slew,,
Section 1,,
Start wavelength (nm):,900,,
End wavelength (nm):,1700,,
Pattern Pixel Width (nm):,   7.03,,,,
Exposure (ms):,  0.635,,,,
Digital Resolution:,228,,
Num Repeats:,6,,
PGA Gain:,64,,
Total Measurement Time in sec:,  2.725,,
Wavelength (nm),Absorbance (AU),Reference Signal (unitless),Sample Signal (unitless)
901.51,1.307585,108485,5343
905.376,1.314136,121306,5885
909.237,1.297845,131909,6644
913.095,1.295606,143299,7255
916.948,1.317328,156982,7560
922.079,1.316751,179937,8677
925.923,1.348557,200504,8986
929.762,1.307832,222660,10960
933.597,1.333841,244426,11332
937.427,1.303723,263972,13117
941.254,1.308310,281845,13858
945.076,1.319551,297271,14243
950.165,1.307274,315605,15555
953.978,1.306880,328029,16182
957.786,1.305247,340470,16859
961.59,1.298764,352317,17708
965.389,1.304918,363056,17991
969.185,1.313380,373162,18135
972.976,1.301498,382632,19111
976.763,1.306192,391202,19329
981.806,1.296635,400190,20213
985.583,1.309723,406088,19902
989.355,1.295289,410162,20781
993.124,1.300492,412868,20669
996.888,1.302461,414263,20645
1000.65,1.299377,415476,20853
1004.4,1.304640,415479,20602
1009.41,1.302077,414358,20668
1013.15,1.299060,412923,20740
1016.89,1.301691,411526,20545
1020.63,1.309246,409066,20070
1024.36,1.307567,406777,20035
1028.09,1.301768,404427,20187
1031.82,1.301669,401911,20066
1036.78,1.294077,398410,20242
1040.49,1.297802,396204,19958
1044.2,1.297952,394236,19852
1047.91,1.288110,392042,20194
1051.61,1.312686,389823,18975
1055.31,1.294275,388234,19716
1059,1.290885,387599,19838
1063.92,1.304920,386688,19162
1067.61,1.302603,386598,19260
1071.29,1.300310,387377,19401
1074.96,1.309833,388536,19037
1078.63,1.308938,389855,19141
1082.3,1.313068,391215,19026
1085.96,1.305666,393215,19452
1090.84,1.305757,396270,19599
1094.49,1.310165,398760,19523
1098.14,1.306531,400987,19797
1101.79,1.316922,403477,19449
1105.43,1.316860,406116,19579
1109.06,1.306239,407701,20142
1112.7,1.309568,409859,20094
1117.53,1.304682,412494,20452
1121.15,1.309602,414909,20340
1124.77,1.305873,416559,20597
1128.38,1.305632,418532,20706
1131.99,1.319144,419956,20140
1135.6,1.312678,421946,20539
1139.2,1.315787,423881,20486
1143.99,1.308881,426786,20957
1147.58,1.319046,428617,20560
1151.17,1.311643,431169,21038
1154.75,1.309607,433579,21255
1158.33,1.308342,436264,21449
1161.91,1.308745,439132,21570
1165.48,1.304746,442389,21931
1169.04,1.312813,446101,21708
1173.79,1.310305,451929,22119
1177.34,1.298074,456026,22957
1180.9,1.317304,461306,22217
1184.44,1.307973,467657,23012
1187.99,1.309832,473969,23223
1191.52,1.313271,479856,23326
1195.06,1.306908,487372,24041
1199.76,1.310357,497347,24339
1203.29,1.311481,504311,24616
1206.81,1.313683,511507,24841
1210.33,1.315645,519078,25095
1213.84,1.315354,527163,25503
1217.35,1.316697,534208,25764
1220.85,1.322198,540472,25738
1225.51,1.318209,549929,26430
1229.01,1.314935,556888,26967
1232.5,1.312299,562180,27389
1235.98,1.321104,567975,27116
1239.46,1.313193,574815,27947
1242.94,1.319202,582782,27945
1246.41,1.315784,591476,28586
1251.03,1.319730,604016,28928
1254.5,1.322631,612289,29129
1257.96,1.322369,619125,29472
1261.41,1.317897,624551,30038
1264.86,1.320056,629900,30145
1268.31,1.323110,634345,30145
1271.75,1.322023,638574,30422
1276.33,1.325042,642499,30397
1279.76,1.323625,645905,30658
1283.19,1.325393,648307,30647
1286.61,1.321555,650446,31021
1290.03,1.320738,652132,31160
1293.44,1.322100,653907,31147
1296.85,1.322433,655963,31221
1301.39,1.325497,657349,31067
1304.8,1.328918,657558,30833
1308.19,1.323105,658515,31294
1311.58,1.327969,658804,30959
1314.97,1.324668,659011,31205
1318.36,1.323667,658272,31242
1321.73,1.324629,658022,31161
1326.23,1.329251,657870,30824
1329.6,1.321346,656482,31324
1332.97,1.325335,654926,30964
1336.33,1.325171,653727,30919
1339.69,1.324508,652497,30908
1343.04,1.325788,649913,30695
1346.39,1.322494,647671,30822
1349.73,1.326228,645338,30448
1354.18,1.323332,641175,30454
1357.52,1.328883,638376,29936
1360.85,1.318085,635805,30566
1364.17,1.321781,633413,30193
1367.49,1.317660,631026,30366
1370.81,1.326013,628050,29647
1374.12,1.321804,625034,29792
1378.54,1.323423,620272,29455
1381.84,1.318477,616892,29630
1385.14,1.320198,613613,29356
1388.43,1.323882,611526,29009
1391.72,1.319512,610663,29261
1395.01,1.320830,610634,29171
1398.29,1.320933,611700,29215
1402.66,1.324028,614051,29119
1405.93,1.324759,616268,29175
1409.2,1.328791,617795,28977
1412.46,1.322427,618872,29456
1415.72,1.324433,619795,29364
1418.98,1.326642,620495,29248
1422.23,1.326656,621087,29275
1426.56,1.329983,621375,29065
1429.8,1.330451,621616,29045
1433.04,1.325666,622129,29391
1436.27,1.322505,621526,29577
1439.5,1.327743,621113,29203
1442.72,1.324807,620921,29392
1445.94,1.324352,620270,29392
1450.23,1.325541,618860,29245
1453.44,1.325809,617697,29172
1456.64,1.331703,616264,28712
1459.85,1.331351,614413,28649
1463.04,1.324511,612307,29004
1466.24,1.331637,610032,28426
1469.43,1.331281,607345,28324
1473.67,1.334146,603789,27973
1476.85,1.331223,601175,28040
1480.02,1.334627,597737,27662
1483.19,1.337513,594479,27329
1486.36,1.324259,591232,28022
1489.52,1.334684,587853,27201
1492.68,1.332822,583875,27133
1496.89,1.329438,578062,27073
1500.03,1.327443,574159,27014
1503.18,1.330069,570285,26670
1506.32,1.325830,565444,26703
1509.45,1.333941,560571,25983
1512.58,1.326335,555821,26218
1515.71,1.346638,550344,24774
1519.87,1.326583,543983,25645
1522.99,1.329981,538764,25201
1526.1,1.328240,533692,25064
1529.21,1.326424,527902,24896
1532.32,1.329066,521886,24463
1535.42,1.328812,515888,24196
1538.51,1.330380,509987,23833
1541.6,1.325798,503936,23800
1545.72,1.332854,494694,22987
1548.8,1.326972,488378,23003
1551.88,1.325247,481832,22785
1554.95,1.337431,474989,21840
1558.02,1.330665,467818,21848
1561.08,1.328611,460730,21619
1564.15,1.330084,454170,21239
1568.22,1.332661,444181,20649
1571.27,1.323704,436947,20736
1574.32,1.332510,429598,19978
1577.36,1.333362,422039,19588
1580.4,1.326580,414375,19535
1583.43,1.317580,406354,19558
1586.46,1.324468,398475,18877
1590.49,1.332347,388982,18096
1593.51,1.327157,380708,17924
1596.53,1.316625,372727,17979
1599.54,1.314931,365060,17678
1602.55,1.314254,357543,17341
1605.55,1.321557,349495,16668
1608.55,1.324670,341154,16154
1612.54,1.315167,330877,16014
1615.53,1.318742,322904,15500
1618.51,1.316798,315116,15194
1621.49,1.313502,307217,14926
1624.47,1.302804,299481,14913
1627.44,1.315069,292112,14141
1630.41,1.303735,284245,14124
1634.36,1.311257,274079,13385
1637.32,1.313167,266916,12978
1640.27,1.315681,259612,12550
1643.22,1.309783,251804,12339
1646.16,1.300121,244348,12243
1649.1,1.295457,236703,11988
1652.04,1.303801,228171,11336
1655.95,1.299356,215408,10812
1658.88,1.280576,204937,10741
1661.8,1.285404,193395,10024
1664.72,1.260651,179728,9862
1667.63,1.259025,163642,9013
1670.54,1.261051,146312,8021
1673.44,1.199235,128451,8119
1677.31,1.182797,105080,6898
1680.21,1.153468,88906,6244
1683.1,1.152372,75033,5283
1685.99,1.133036,63520,4676
1688.87,1.109119,53714,4178
1691.75,1.139248,45653,3313
1694.62,1.131089,39137,2894
1697.49,1.123946,33776,2539
1701.31,1.093647,28175,2271

File: Column 1_078804_20241121_172258.csv
Method:,Column 1,,
Host Date-Time:,21/11/24 @ 17:22:58,,
Header Version:,1,,
System Temp (C):,36.75,,
Detector Temp (C):,35.35,,
Humidity (%):,0.63,,
Lamp PD:,3797,,
Shift Vector Coefficients:,-10.5391,0.0761263,-0.000134223,,
Pixel to Wavelength Coefficients:,1775.68,-0.916766,-0.000235065,,
Serial Number:,5510004,,
Scan Config Name:,Column 1,,
Scan Config Type:,Slew,,
Section 1,,
Start wavelength (nm):,900,,
End wavelength (nm):,1700,,
Pattern Pixel Width (nm):,   7.03,,,,
Exposure (ms):,  0.635,,,,
Digital Resolution:,228,,
Num Repeats:,6,,
PGA Gain:,64,,
Total Measurement Time in sec:,  2.728,,
Wavelength (nm),Absorbance (AU),Reference Signal (unitless),Sample Signal (unitless)
901.51,1.313147,108485,5275
905.376,1.324063,121306,5752
909.237,1.298106,131909,6640
913.095,1.312948,143299,6971
916.948,1.336531,156982,7233
922.079,1.333278,179937,8353
925.923,1.324628,200504,9495
929.762,1.316921,222660,10733
933.597,1.314686,244426,11843
937.427,1.309624,263972,12940
941.254,1.319387,281845,13509
945.076,1.318120,297271,14290
950.165,1.315931,315605,15248
953.978,1.311765,328029,16001
957.786,1.298220,340470,17134
961.59,1.308913,352317,17299
965.389,1.300308,363056,18183
969.185,1.302571,373162,18592
972.976,1.307954,382632,18829
976.763,1.302634,391202,19488
981.806,1.300846,400190,20018
985.583,1.304992,406088,20120
989.355,1.309241,410162,20124
993.124,1.295686,412868,20899
996.888,1.304274,414263,20559
1000.65,1.302387,415476,20709
1004.4,1.304429,415479,20612
1009.41,1.311938,414358,20204
1013.15,1.305494,412923,20435
1016.89,1.306260,411526,20330
1020.63,1.302036,409066,20406
1024.36,1.312406,406777,19813
1028.09,1.311493,404427,19740
1031.82,1.297812,401911,20245
1036.78,1.304697,398410,19753
1040.49,1.304601,396204,19648
1044.2,1.306948,394236,19445
1047.91,1.307415,392042,19316
1051.61,1.304905,389823,19318
1055.31,1.305521,388234,19212
1059,1.305149,387599,19197
1063.92,1.304489,386688,19181
1067.61,1.306340,386598,19095
1071.29,1.308969,387377,19018
1074.96,1.310541,388536,19006
1078.63,1.315914,389855,18836
1082.3,1.307849,391215,19256
1085.96,1.305331,393215,19467
1090.84,1.305270,396270,19621
1094.49,1.310232,398760,19520
1098.14,1.306706,400987,19789
1101.79,1.312898,403477,19630
1105.43,1.318526,406116,19504
1109.06,1.309572,407701,19988
1112.7,1.316694,409859,19767
1117.53,1.307644,412494,20313
1121.15,1.308089,414909,20411
1124.77,1.312823,416559,20270
1128.38,1.316033,418532,20216
1131.99,1.310899,419956,20526
1135.6,1.314415,421946,20457
1139.2,1.317848,423881,20389
1143.99,1.323742,426786,20252
1147.58,1.315763,428617,20716
1151.17,1.309954,431169,21120
1154.75,1.312765,433579,21101
1158.33,1.322564,436264,20758
1161.91,1.314358,439132,21293
1165.48,1.314438,442389,21447
1169.04,1.321135,446101,21296
1173.79,1.307955,451929,22239
1177.34,1.311094,456026,22279
1180.9,1.308959,461306,22648
1184.44,1.314399,467657,22674
1187.99,1.309832,473969,23223
1191.52,1.312081,479856,23390
1195.06,1.317310,487372,23472
1199.76,1.321655,497347,23714
1203.29,1.315932,504311,24365
1206.81,1.317775,511507,24608
1210.33,1.311272,519078,25349
1213.84,1.314979,527163,25525
1217.35,1.322176,534208,25441
1220.85,1.327717,540472,25413
1225.51,1.317651,549929,26464
1229.01,1.321834,556888,26542
1232.5,1.319284,562180,26952
1235.98,1.316246,567975,27421
1239.46,1.313333,574815,27938
1242.94,1.314949,582782,28220
1246.41,1.319522,591476,28341
1251.03,1.320511,604016,28876
1254.5,1.325068,612289,28966
1257.96,1.324363,619125,29337
1261.41,1.324232,624551,29603
1264.86,1.319337,629900,30195
1268.31,1.321701,634345,30243
1271.75,1.326688,638574,30097
1276.33,1.323971,642499,30472
1279.76,1.325101,645905,30554
1283.19,1.328422,648307,30434
1286.61,1.322382,650446,30962
1290.03,1.321449,652132,31109
1293.44,1.323608,653907,31039
1296.85,1.323979,655963,31110
1301.39,1.323224,657349,31230
1304.8,1.324629,657558,31139
1308.19,1.324968,658515,31160
1311.58,1.327072,658804,31023
1314.97,1.324599,659011,31210
1318.36,1.329841,658272,30801
1321.73,1.325983,658022,31064
1326.23,1.332887,657870,30567
1329.6,1.326450,656482,30958
1332.97,1.326881,654926,30854
1336.33,1.326254,653727,30842
1339.69,1.328559,652497,30621
1343.04,1.323347,649913,30868
1346.39,1.330213,647671,30279
1349.73,1.326728,645338,30413
1354.18,1.327977,641175,30130
1357.52,1.326005,638376,30135
1360.85,1.327217,635805,29930
1364.17,1.325479,633413,29937
1367.49,1.326940,631026,29724
1370.81,1.319110,628050,30122
1374.12,1.331235,625034,29152
1378.54,1.322863,620272,29493
1381.84,1.318375,616892,29637
1385.14,1.317308,613613,29552
1388.43,1.323433,611526,29039
1391.72,1.331338,610663,28475
1395.01,1.324222,610634,28944
1398.29,1.327674,611700,28765
1402.66,1.326826,614051,28932
1405.93,1.328571,616268,28920
1409.2,1.325016,617795,29230
1412.46,1.328664,618872,29036
1415.72,1.333565,619795,28753
1418.98,1.325441,620495,29329
1422.23,1.334092,621087,28778
1426.56,1.332171,621375,28919
1429.8,1.326417,621616,29316
1433.04,1.323646,622129,29528
1436.27,1.329432,621526,29109
1439.5,1.326852,621113,29263
1442.72,1.323568,620921,29476
1445.94,1.335926,620270,28619
1450.23,1.331793,618860,28827
1453.44,1.335489,617697,28529
1456.64,1.329049,616264,28888
1459.85,1.333204,614413,28527
1463.04,1.330102,612307,28633
1466.24,1.328425,610032,28637
1469.43,1.329827,607345,28419
1473.67,1.328271,603789,28354
1476.85,1.330836,601175,28065
1480.02,1.335916,597737,27580
1483.19,1.324488,594479,28161
1486.36,1.329404,591232,27692
1489.52,1.335211,587853,27168
1492.68,1.329823,583875,27321
1496.89,1.329775,578062,27052
1500.03,1.338449,574159,26338
1503.18,1.326469,570285,26892
1506.32,1.325147,565444,26745
1509.45,1.330479,560571,26191
1512.58,1.330614,555821,25961
1515.71,1.329672,550344,25761
1519.87,1.327974,543983,25563
1522.99,1.324756,538764,25506
1526.1,1.333347,533692,24771
1529.21,1.327437,527902,24838
1532.32,1.332882,521886,24249
1535.42,1.332815,515888,23974
1538.51,1.332078,509987,23740
1541.6,1.329740,503936,23585
1545.72,1.320689,494694,23640
1548.8,1.323156,488378,23206
1551.88,1.333463,481832,22358
1554.95,1.332645,474989,22082
1558.02,1.326098,467818,22079
1561.08,1.334110,460730,21347
1564.15,1.323791,454170,21549
1568.22,1.328308,444181,20857
1571.27,1.331352,436947,20374
1574.32,1.335805,429598,19827
1577.36,1.324540,422039,19990
1580.4,1.329771,414375,19392
1583.43,1.331112,406354,18958
1586.46,1.329513,398475,18659
1590.49,1.324004,388982,18447
1593.51,1.321787,380708,18147
1596.53,1.324449,372727,17658
1599.54,1.320892,365060,17437
1602.55,1.319419,357543,17136
1605.55,1.320335,349495,16715
1608.55,1.305707,341154,16875
1612.54,1.330401,330877,15462
1615.53,1.316032,322904,15597
1618.51,1.327066,315116,14839
1621.49,1.322171,307217,14631
1624.47,1.317675,299481,14411
1627.44,1.314732,292112,14152
1630.41,1.308652,284245,13965
1634.36,1.320671,274079,13098
1637.32,1.312331,266916,13003
1640.27,1.316825,259612,12517
1643.22,1.315451,251804,12179
1646.16,1.298775,244348,12281
1649.1,1.305647,236703,11710
1652.04,1.317975,228171,10972
1655.95,1.300603,215408,10781
1658.88,1.287463,204937,10572
1661.8,1.292568,193395,9860
1664.72,1.251888,179728,10063
1667.63,1.246909,163642,9268
1670.54,1.231287,146312,8590
1673.44,1.185390,128451,8382
1677.31,1.146922,105080,7492
1680.21,1.154095,88906,6235
1683.1,1.151879,75033,5289
1685.99,1.155821,63520,4437
1688.87,1.128028,53714,4000
1691.75,1.136634,45653,3333
1694.62,1.140341,39137,2833
1697.49,1.164808,33776,2311
1701.31,1.122709,28175,2124