Folder: textile_sorting_NIRSCAN_/ML/samples/unknown (part 114)

File: Column 1_078825_20241121_172359.csv
Method:,Column 1,,
Host Date-Time:,21/11/24 @ 17:23:59,,
Header Version:,1,,
System Temp (C):,37.43,,
Detector Temp (C):,35.56,,
Humidity (%):,1.08,,
Lamp PD:,3797,,
Shift Vector Coefficients:,-10.5391,0.0761263,-0.000134223,,
Pixel to Wavelength Coefficients:,1775.68,-0.916766,-0.000235065,,
Serial Number:,5510004,,
Scan Config Name:,Column 1,,
Scan Config Type:,Slew,,
Section 1,,
Start wavelength (nm):,900,,
End wavelength (nm):,1700,,
Pattern Pixel Width (nm):,   7.03,,,,
Exposure (ms):,  0.635,,,,
Digital Resolution:,228,,
Num Repeats:,6,,
PGA Gain:,64,,
Total Measurement Time in sec:,  2.727,,
Wavelength (nm),Absorbance (AU),Reference Signal (unitless),Sample Signal (unitless)
901.51,1.305395,108485,5370
905.376,1.314579,121306,5879
909.237,1.333239,131909,6124
913.095,1.299998,143299,7182
916.948,1.328618,156982,7366
922.079,1.330531,179937,8406
925.923,1.319716,200504,9603
929.762,1.329275,222660,10432
933.597,1.327941,244426,11487
937.427,1.309892,263972,12932
941.254,1.323522,281845,13381
945.076,1.316210,297271,14353
950.165,1.311595,315605,15401
953.978,1.312907,328029,15959
957.786,1.309232,340470,16705
961.59,1.310220,352317,17247
965.389,1.310213,363056,17773
969.185,1.304163,373162,18524
972.976,1.310870,382632,18703
976.763,1.304018,391202,19426
981.806,1.306062,400190,19779
985.583,1.303893,406088,20171
989.355,1.301477,410162,20487
993.124,1.307482,412868,20339
996.888,1.300426,414263,20742
1000.65,1.307195,415476,20481
1004.4,1.304766,415479,20596
1009.41,1.304670,414358,20545
1013.15,1.303121,412923,20547
1016.89,1.317491,411526,19811
1020.63,1.302611,409066,20379
1024.36,1.306658,406777,20077
1028.09,1.305767,404427,20002
1031.82,1.307640,401911,19792
1036.78,1.305842,398410,19701
1040.49,1.307662,396204,19510
1044.2,1.305143,394236,19526
1047.91,1.314031,392042,19024
1051.61,1.310153,389823,19086
1055.31,1.312035,388234,18926
1059,1.301343,387599,19366
1063.92,1.314267,386688,18754
1067.61,1.305726,386598,19122
1071.29,1.316106,387377,18708
1074.96,1.307989,388536,19118
1078.63,1.309007,389855,19138
1082.3,1.315494,391215,18920
1085.96,1.321721,393215,18746
1090.84,1.316140,396270,19136
1094.49,1.309831,398760,19538
1098.14,1.321098,400987,19144
1101.79,1.308584,403477,19826
1105.43,1.311809,406116,19808
1109.06,1.318174,407701,19596
1112.7,1.314699,409859,19858
1117.53,1.309894,412494,20208
1121.15,1.312430,414909,20208
1124.77,1.315854,416559,20129
1128.38,1.316506,418532,20194
1131.99,1.315451,419956,20312
1135.6,1.307674,421946,20777
1139.2,1.322086,423881,20191
1143.99,1.316301,426786,20602
1147.58,1.319110,428617,20557
1151.17,1.310200,431169,21108
1154.75,1.320197,433579,20743
1158.33,1.305960,436264,21567
1161.91,1.319508,439132,21042
1165.48,1.316773,442389,21332
1169.04,1.321482,446101,21279
1173.79,1.314051,451929,21929
1177.34,1.312930,456026,22185
1180.9,1.312231,461306,22478
1184.44,1.311498,467657,22826
1187.99,1.311312,473969,23144
1191.52,1.317875,479856,23080
1195.06,1.310937,487372,23819
1199.76,1.316358,497347,24005
1203.29,1.314899,504311,24423
1206.81,1.321302,511507,24409
1210.33,1.318929,519078,24906
1213.84,1.318481,527163,25320
1217.35,1.316124,534208,25798
1220.85,1.318736,540472,25944
1225.51,1.319641,549929,26343
1229.01,1.317261,556888,26823
1232.5,1.320753,562180,26861
1235.98,1.323497,567975,26967
1239.46,1.317488,574815,27672
1242.94,1.316151,582782,28142
1246.41,1.321873,591476,28188
1251.03,1.322093,604016,28771
1254.5,1.325098,612289,28964
1257.96,1.321294,619125,29545
1261.41,1.319084,624551,29956
1264.86,1.330570,629900,29424
1268.31,1.327701,634345,29828
1271.75,1.325535,638574,30177
1276.33,1.321385,642499,30654
1279.76,1.322804,645905,30716
1283.19,1.324770,648307,30691
1286.61,1.328997,650446,30494
1290.03,1.327863,652132,30653
1293.44,1.326444,653907,30837
1296.85,1.325322,655963,31014
1301.39,1.323127,657349,31237
1304.8,1.322043,657558,31325
1308.19,1.323382,658515,31274
1311.58,1.327016,658804,31027
1314.97,1.328695,659011,30917
1318.36,1.324780,658272,31162
1321.73,1.329239,658022,30832
1326.23,1.331752,657870,30647
1329.6,1.327700,656482,30869
1332.97,1.325069,654926,30983
1336.33,1.326719,653727,30809
1339.69,1.322839,652497,31027
1343.04,1.330711,649913,30349
1346.39,1.322339,647671,30833
1349.73,1.323782,645338,30620
1354.18,1.323974,641175,30409
1357.52,1.317882,638376,30704
1360.85,1.323317,635805,30200
1364.17,1.325667,633413,29924
1367.49,1.321192,631026,30120
1370.81,1.326791,628050,29594
1374.12,1.329659,625034,29258
1378.54,1.317812,620272,29838
1381.84,1.320947,616892,29462
1385.14,1.312296,613613,29895
1388.43,1.319355,611526,29313
1391.72,1.328026,610663,28693
1395.01,1.326012,610634,28825
1398.29,1.323886,611700,29017
1402.66,1.327788,614051,28868
1405.93,1.326130,616268,29083
1409.2,1.323740,617795,29316
1412.46,1.331124,618872,28872
1415.72,1.331170,619795,28912
1418.98,1.326672,620495,29246
1422.23,1.329095,621087,29111
1426.56,1.327941,621375,29202
1429.8,1.326773,621616,29292
1433.04,1.332652,622129,28922
1436.27,1.330044,621526,29068
1439.5,1.329278,621113,29100
1442.72,1.333222,620921,28828
1445.94,1.332269,620270,28861
1450.23,1.333635,618860,28705
1453.44,1.330645,617697,28849
1456.64,1.328989,616264,28892
1459.85,1.331321,614413,28651
1463.04,1.331926,612307,28513
1466.24,1.332004,610032,28402
1469.43,1.342700,607345,27589
1473.67,1.335219,603789,27904
1476.85,1.328013,601175,28248
1480.02,1.330906,597737,27900
1483.19,1.335041,594479,27485
1486.36,1.340314,591232,27005
1489.52,1.329399,587853,27534
1492.68,1.330030,583875,27308
1496.89,1.335821,578062,26678
1500.03,1.328538,574159,26946
1503.18,1.333551,570285,26457
1506.32,1.333525,565444,26234
1509.45,1.331093,560571,26154
1512.58,1.339554,555821,25432
1515.71,1.336126,550344,25381
1519.87,1.329898,543983,25450
1522.99,1.339229,538764,24670
1526.1,1.331371,533692,24884
1529.21,1.336197,527902,24342
1532.32,1.334101,521886,24181
1535.42,1.320703,515888,24652
1538.51,1.329707,509987,23870
1541.6,1.330458,503936,23546
1545.72,1.327316,494694,23282
1548.8,1.334110,488378,22628
1551.88,1.330269,481832,22523
1554.95,1.320180,474989,22725
1558.02,1.336872,467818,21538
1561.08,1.326527,460730,21723
1564.15,1.330596,454170,21214
1568.22,1.340064,444181,20300
1571.27,1.328929,436947,20488
1574.32,1.336002,429598,19818
1577.36,1.335697,422039,19483
1580.4,1.320334,414375,19818
1583.43,1.321192,406354,19396
1586.46,1.330958,398475,18597
1590.49,1.323533,388982,18467
1593.51,1.324139,380708,18049
1596.53,1.326570,372727,17572
1599.54,1.318087,365060,17550
1602.55,1.319951,357543,17115
1605.55,1.317718,349495,16816
1608.55,1.313890,341154,16560
1612.54,1.317642,330877,15923
1615.53,1.316645,322904,15575
1618.51,1.318029,315116,15151
1621.49,1.322201,307217,14630
1624.47,1.317103,299481,14430
1627.44,1.321692,292112,13927
1630.41,1.313782,284245,13801
1634.36,1.302934,274079,13644
1637.32,1.312665,266916,12993
1640.27,1.304240,259612,12885
1643.22,1.318421,251804,12096
1646.16,1.300050,244348,12245
1649.1,1.295529,236703,11986
1652.04,1.307417,228171,11242
1655.95,1.285792,215408,11155
1658.88,1.301617,204937,10233
1661.8,1.279039,193395,10172
1664.72,1.269594,179728,9661
1667.63,1.264749,163642,8895
1670.54,1.211762,146312,8985
1673.44,1.218652,128451,7764
1677.31,1.174503,105080,7031
1680.21,1.151941,88906,6266
1683.1,1.124513,75033,5633
1685.99,1.116006,63520,4863
1688.87,1.120066,53714,4074
1691.75,1.076724,45653,3826
1694.62,1.139116,39137,2841
1697.49,1.123604,33776,2541
1701.31,1.210815,28175,1734

File: Column 1_078828_20241121_172408.csv
Method:,Column 1,,
Host Date-Time:,21/11/24 @ 17:24:8,,
Header Version:,1,,
System Temp (C):,37.47,,
Detector Temp (C):,35.65,,
Humidity (%):,1.08,,
Lamp PD:,3797,,
Shift Vector Coefficients:,-10.5391,0.0761263,-0.000134223,,
Pixel to Wavelength Coefficients:,1775.68,-0.916766,-0.000235065,,
Serial Number:,5510004,,
Scan Config Name:,Column 1,,
Scan Config Type:,Slew,,
Section 1,,
Start wavelength (nm):,900,,
End wavelength (nm):,1700,,
Pattern Pixel Width (nm):,   7.03,,,,
Exposure (ms):,  0.635,,,,
Digital Resolution:,228,,
Num Repeats:,6,,
PGA Gain:,64,,
Total Measurement Time in sec:,  2.727,,
Wavelength (nm),Absorbance (AU),Reference Signal (unitless),Sample Signal (unitless)
901.51,1.335272,108485,5013
905.376,1.341629,121306,5524
909.237,1.330764,131909,6159
913.095,1.313447,143299,6963
916.948,1.329444,156982,7352
922.079,1.316351,179937,8685
925.923,1.337392,200504,9220
929.762,1.327157,222660,10483
933.597,1.323353,244426,11609
937.427,1.319364,263972,12653
941.254,1.326191,281845,13299
945.076,1.322826,297271,14136
950.165,1.313007,315605,15351
953.978,1.316267,328029,15836
957.786,1.313202,340470,16553
961.59,1.311102,352317,17212
965.389,1.314535,363056,17597
969.185,1.323752,373162,17707
972.976,1.317845,382632,18405
976.763,1.312871,391202,19034
981.806,1.310298,400190,19587
985.583,1.307720,406088,19994
989.355,1.307905,410162,20186
993.124,1.303359,412868,20533
996.888,1.307838,414263,20391
1000.65,1.311307,415476,20288
1004.4,1.306160,415479,20530
1009.41,1.307937,414358,20391
1013.15,1.307241,412923,20353
1016.89,1.308015,411526,20248
1020.63,1.311524,409066,19965
1024.36,1.311333,406777,19862
1028.09,1.311559,404427,19737
1031.82,1.301409,401911,20078
1036.78,1.307875,398410,19609
1040.49,1.306928,396204,19543
1044.2,1.307686,394236,19412
1047.91,1.306315,392042,19365
1051.61,1.310312,389823,19079
1055.31,1.303401,388234,19306
1059,1.314710,387599,18779
1063.92,1.323393,386688,18364
1067.61,1.307981,386598,19023
1071.29,1.307123,387377,19099
1074.96,1.312625,388536,18915
1078.63,1.306134,389855,19265
1082.3,1.308730,391215,19217
1085.96,1.306291,393215,19424
1090.84,1.311872,396270,19325
1094.49,1.321638,398760,19014
1098.14,1.310874,400987,19600
1101.79,1.311198,403477,19707
1105.43,1.310103,406116,19886
1109.06,1.307059,407701,20104
1112.7,1.320644,409859,19588
1117.53,1.326699,412494,19441
1121.15,1.308216,414909,20405
1124.77,1.311582,416559,20328
1128.38,1.327174,418532,19704
1131.99,1.318067,419956,20190
1135.6,1.319863,421946,20202
1139.2,1.318893,423881,20340
1143.99,1.318859,426786,20481
1147.58,1.316687,428617,20672
1151.17,1.318866,431169,20691
1154.75,1.318108,433579,20843
1158.33,1.326304,436264,20580
1161.91,1.317737,439132,21128
1165.48,1.314114,442389,21463
1169.04,1.306616,446101,22020
1173.79,1.320054,451929,21628
1177.34,1.316192,456026,22019
1180.9,1.318910,461306,22135
1184.44,1.317475,467657,22514
1187.99,1.313682,473969,23018
1191.52,1.317837,479856,23082
1195.06,1.321270,487372,23259
1199.76,1.328559,497347,23340
1203.29,1.314846,504311,24426
1206.81,1.323603,511507,24280
1210.33,1.319592,519078,24868
1213.84,1.322254,527163,25101
1217.35,1.323407,534208,25369
1220.85,1.315983,540472,26109
1225.51,1.324299,549929,26062
1229.01,1.322702,556888,26489
1232.5,1.319526,562180,26937
1235.98,1.319393,567975,27223
1239.46,1.324480,574815,27230
1242.94,1.323732,582782,27655
1246.41,1.323293,591476,28096
1251.03,1.321068,604016,28839
1254.5,1.321990,612289,29172
1257.96,1.330370,619125,28934
1261.41,1.322928,624551,29692
1264.86,1.329199,629900,29517
1268.31,1.326741,634345,29894
1271.75,1.323282,638574,30334
1276.33,1.323715,642499,30490
1279.76,1.320309,645905,30893
1283.19,1.318532,648307,31135
1286.61,1.327291,650446,30614
1290.03,1.330563,652132,30463
1293.44,1.330022,653907,30584
1296.85,1.327357,655963,30869
1301.39,1.330870,657349,30685
1304.8,1.331986,657558,30616
1308.19,1.329311,658515,30850
1311.58,1.323795,658804,31258
1314.97,1.331712,659011,30703
1318.36,1.329573,658272,30820
1321.73,1.334069,658022,30491
1326.23,1.329209,657870,30827
1329.6,1.324770,656482,31078
1332.97,1.330570,654926,30593
1336.33,1.329675,653727,30600
1339.69,1.330421,652497,30490
1343.04,1.332029,649913,30257
1346.39,1.331635,647671,30180
1349.73,1.327729,645338,30343
1354.18,1.329494,641175,30025
1357.52,1.327897,638376,30004
1360.85,1.326420,635805,29985
1364.17,1.327310,633413,29811
1367.49,1.323375,631026,29969
1370.81,1.324551,628050,29747
1374.12,1.325229,625034,29558
1378.54,1.327720,620272,29165
1381.84,1.327916,616892,28993
1385.14,1.324151,613613,29090
1388.43,1.326073,611526,28863
1391.72,1.323404,610663,29000
1395.01,1.325831,610634,28837
1398.29,1.328158,611700,28733
1402.66,1.322257,614051,29238
1405.93,1.334240,616268,28545
1409.2,1.330277,617795,28878
1412.46,1.327842,618872,29091
1415.72,1.323783,619795,29408
1418.98,1.325219,620495,29344
1422.23,1.337303,621087,28566
1426.56,1.330148,621375,29054
1429.8,1.335489,621616,28710
1433.04,1.329615,622129,29125
1436.27,1.335305,621526,28718
1439.5,1.332588,621113,28879
1442.72,1.331913,620921,28915
1445.94,1.333128,620270,28804
1450.23,1.337251,618860,28467
1453.44,1.336251,617697,28479
1456.64,1.331734,616264,28710
1459.85,1.337657,614413,28236
1463.04,1.329648,612307,28663
1466.24,1.333259,610032,28320
1469.43,1.332786,607345,28226
1473.67,1.333758,603789,27998
1476.85,1.331269,601175,28037
1480.02,1.341096,597737,27253
1483.19,1.333905,594479,27557
1486.36,1.335420,591232,27311
1489.52,1.336171,587853,27108
1492.68,1.328110,583875,27429
1496.89,1.331980,578062,26915
1500.03,1.336245,574159,26472
1503.18,1.338687,570285,26146
1506.32,1.337116,565444,26018
1509.45,1.328592,560571,26305
1512.58,1.333669,555821,25779
1515.71,1.332462,550344,25596
1519.87,1.334443,543983,25185
1522.99,1.333615,538764,24991
1526.1,1.338923,533692,24455
1529.21,1.335057,527902,24406
1532.32,1.335955,521886,24078
1535.42,1.337972,515888,23691
1538.51,1.336510,509987,23499
1541.6,1.339083,503936,23083
1545.72,1.335108,494694,22868
1548.8,1.330041,488378,22841
1551.88,1.331235,481832,22473
1554.95,1.339304,474989,21746
1558.02,1.342616,467818,21255
1561.08,1.331069,460730,21497
1564.15,1.338905,454170,20812
1568.22,1.334600,444181,20557
1571.27,1.334240,436947,20239
1574.32,1.334493,429598,19887
1577.36,1.329851,422039,19747
1580.4,1.326891,414375,19521
1583.43,1.325332,406354,19212
1586.46,1.325067,398475,18851
1590.49,1.325041,388982,18403
1593.51,1.328419,380708,17872
1596.53,1.329670,372727,17447
1599.54,1.329622,365060,17090
1602.55,1.324851,357543,16923
1605.55,1.321714,349495,16662
1608.55,1.321590,341154,16269
1612.54,1.310286,330877,16195
1615.53,1.320679,322904,15431
1618.51,1.318058,315116,15150
1621.49,1.307033,307217,15150
1624.47,1.313775,299481,14541
1627.44,1.312070,292112,14239
1630.41,1.325746,284245,13426
1634.36,1.312069,274079,13360
1637.32,1.313334,266916,12973
1640.27,1.318737,259612,12462
1643.22,1.330360,251804,11768
1646.16,1.318970,244348,11723
1649.1,1.306538,236703,11686
1652.04,1.302729,228171,11364
1655.95,1.321226,215408,10281
1658.88,1.287381,204937,10574
1661.8,1.289496,193395,9930
1664.72,1.272028,179728,9607
1667.63,1.243501,163642,9341
1670.54,1.233161,146312,8553
1673.44,1.201756,128451,8072
1677.31,1.193634,105080,6728
1680.21,1.154582,88906,6228
1683.1,1.160671,75033,5183
1685.99,1.173297,63520,4262
1688.87,1.140361,53714,3888
1691.75,1.119140,45653,3470
1694.62,1.216924,39137,2375
1697.49,1.188759,33776,2187
1701.31,1.231328,28175,1654

File: Column 1_078829_20241121_172411.csv
Method:,Column 1,,
Host Date-Time:,21/11/24 @ 17:24:11,,
Header Version:,1,,
System Temp (C):,37.49,,
Detector Temp (C):,35.68,,
Humidity (%):,1.08,,
Lamp PD:,3797,,
Shift Vector Coefficients:,-10.5391,0.0761263,-0.000134223,,
Pixel to Wavelength Coefficients:,1775.68,-0.916766,-0.000235065,,
Serial Number:,5510004,,
Scan Config Name:,Column 1,,
Scan Config Type:,Slew,,
Section 1,,
Start wavelength (nm):,900,,
End wavelength (nm):,1700,,
Pattern Pixel Width (nm):,   7.03,,,,
Exposure (ms):,  0.635,,,,
Digital Resolution:,228,,
Num Repeats:,6,,
PGA Gain:,64,,
Total Measurement Time in sec:,  2.725,,
Wavelength (nm),Absorbance (AU),Reference Signal (unitless),Sample Signal (unitless)
901.51,1.312325,108485,5285
905.376,1.297770,121306,6111
909.237,1.327953,131909,6199
913.095,1.329456,143299,6711
916.948,1.336411,156982,7235
922.079,1.332084,179937,8376
925.923,1.344707,200504,9066
929.762,1.339170,222660,10197
933.597,1.325077,244426,11563
937.427,1.336624,263972,12160
941.254,1.318328,281845,13542
945.076,1.325044,297271,14064
950.165,1.316530,315605,15227
953.978,1.315746,328029,15855
957.786,1.309753,340470,16685
961.59,1.308486,352317,17316
965.389,1.305619,363056,17962
969.185,1.310754,373162,18245
972.976,1.313012,382632,18611
976.763,1.305832,391202,19345
981.806,1.312365,400190,19494
985.583,1.309178,406088,19927
989.355,1.299468,410162,20582
993.124,1.299086,412868,20736
996.888,1.309930,414263,20293
1000.65,1.306136,415476,20531
1004.4,1.302432,415479,20707
1009.41,1.306831,414358,20443
1013.15,1.299815,412923,20704
1016.89,1.313346,411526,20001
1020.63,1.305690,409066,20235
1024.36,1.312231,406777,19821
1028.09,1.306941,404427,19948
1031.82,1.311298,401911,19626
1036.78,1.304939,398410,19742
1040.49,1.313601,396204,19245
1044.2,1.303345,394236,19607
1047.91,1.315036,392042,18980
1051.61,1.312365,389823,18989
1055.31,1.313230,388234,18874
1059,1.308533,387599,19048
1063.92,1.316123,386688,18674
1067.61,1.312778,386598,18814
1071.29,1.314184,387377,18791
1074.96,1.319872,388536,18602
1078.63,1.311533,389855,19027
1082.3,1.313479,391215,19008
1085.96,1.310222,393215,19249
1090.84,1.316594,396270,19116
1094.49,1.314098,398760,19347
1098.14,1.328834,400987,18806
1101.79,1.314317,403477,19566
1105.43,1.315929,406116,19621
1109.06,1.318152,407701,19597
1112.7,1.314262,409859,19878
1117.53,1.316827,412494,19888
1121.15,1.324966,414909,19633
1124.77,1.319734,416559,19950
1128.38,1.323531,418532,19870
1131.99,1.316350,419956,20270
1135.6,1.322299,421946,20089
1139.2,1.315363,423881,20506
1143.99,1.325806,426786,20156
1147.58,1.316162,428617,20697
1151.17,1.315354,431169,20859
1154.75,1.318692,433579,20815
1158.33,1.312697,436264,21235
1161.91,1.314828,439132,21270
1165.48,1.323916,442389,20984
1169.04,1.315020,446101,21598
1173.79,1.312608,451929,22002
1177.34,1.319141,456026,21870
1180.9,1.314653,461306,22353
1184.44,1.319679,467657,22400
1187.99,1.314135,473969,22994
1191.52,1.325774,479856,22664
1195.06,1.316719,487372,23504
1199.76,1.319335,497347,23841
1203.29,1.320735,504311,24097
1206.81,1.318871,511507,24546
1210.33,1.320099,519078,24839
1213.84,1.320872,527163,25181
1217.35,1.319216,534208,25615
1220.85,1.323364,540472,25669
1225.51,1.328249,549929,25826
1229.01,1.322768,556888,26485
1232.5,1.320883,562180,26853
1235.98,1.320176,567975,27174
1239.46,1.324289,574815,27242
1242.94,1.319078,582782,27953
1246.41,1.316620,591476,28531
1251.03,1.319070,604016,28972
1254.5,1.323721,612289,29056
1257.96,1.317737,619125,29788
1261.41,1.328137,624551,29338
1264.86,1.323760,629900,29889
1268.31,1.327207,634345,29862
1271.75,1.321054,638574,30490
1276.33,1.328168,642499,30179
1279.76,1.332122,645905,30064
1283.19,1.324855,648307,30685
1286.61,1.320200,650446,31118
1290.03,1.332105,652132,30355
1293.44,1.321932,653907,31159
1296.85,1.336916,655963,30197
1301.39,1.326939,657349,30964
1304.8,1.330711,657558,30706
1308.19,1.331088,658515,30724
1311.58,1.326988,658804,31029
1314.97,1.327994,659011,30967
1318.36,1.325547,658272,31107
1321.73,1.335824,658022,30368
1326.23,1.330493,657870,30736
1329.6,1.326674,656482,30942
1332.97,1.334836,654926,30294
1336.33,1.324441,653727,30971
1339.69,1.325774,652497,30818
1343.04,1.329468,649913,30436
1346.39,1.325519,647671,30608
1349.73,1.324918,645338,30540
1354.18,1.327660,641175,30152
1357.52,1.327738,638376,30015
1360.85,1.324296,635805,30132
1364.17,1.330880,633413,29567
1367.49,1.322579,631026,30024
1370.81,1.324609,628050,29743
1374.12,1.323908,625034,29648
1378.54,1.325863,620272,29290
1381.84,1.325898,616892,29128
1385.14,1.327839,613613,28844
1388.43,1.329897,611526,28610
1391.72,1.323014,610663,29026
1395.01,1.325876,610634,28834
1398.29,1.324470,611700,28978
1402.66,1.323521,614051,29153
1405.93,1.335245,616268,28479
1409.2,1.327698,617795,29050
1412.46,1.333991,618872,28682
1415.72,1.329581,619795,29018
1418.98,1.333150,620495,28813
1422.23,1.337349,621087,28563
1426.56,1.335972,621375,28667
1429.8,1.333678,621616,28830
1433.04,1.334729,622129,28784
1436.27,1.333013,621526,28870
1439.5,1.331462,621113,28954
1442.72,1.331523,620921,28941
1445.94,1.335638,620270,28638
1450.23,1.332487,618860,28781
1453.44,1.336190,617697,28483
1456.64,1.337965,616264,28301
1459.85,1.330821,614413,28684
1463.04,1.344411,612307,27705
1466.24,1.334042,610032,28269
1469.43,1.333417,607345,28185
1473.67,1.337779,603789,27740
1476.85,1.334519,601175,27828
1480.02,1.338047,597737,27445
1483.19,1.343014,594479,26985
1486.36,1.336551,591232,27240
1489.52,1.342400,587853,26722
1492.68,1.340965,583875,26629
1496.89,1.336685,578062,26625
1500.03,1.335377,574159,26525
1503.18,1.337907,570285,26193
1506.32,1.336399,565444,26061
1509.45,1.334142,560571,25971
1512.58,1.341711,555821,25306
1515.71,1.338510,550344,25242
1519.87,1.334857,543983,25161
1522.99,1.332348,538764,25064
1526.1,1.334400,533692,24711
1529.21,1.331830,527902,24588
1532.32,1.338034,521886,23963
1535.42,1.343971,515888,23366
1538.51,1.332518,509987,23716
1541.6,1.339177,503936,23078
1545.72,1.339153,494694,22656
1548.8,1.329718,488378,22858
1551.88,1.340868,481832,21980
1554.95,1.328242,474989,22307
1558.02,1.333537,467818,21704
1561.08,1.335863,460730,21261
1564.15,1.337863,454170,20862
1568.22,1.332135,444181,20674
1571.27,1.331054,436947,20388
1574.32,1.328636,429598,20157
1577.36,1.330181,422039,19732
1580.4,1.339395,414375,18967
1583.43,1.336297,406354,18733
1586.46,1.330212,398475,18629
1590.49,1.328025,388982,18277
1593.51,1.323057,380708,18094
1596.53,1.322976,372727,17718
1599.54,1.329724,365060,17086
1602.55,1.315785,357543,17280
1605.55,1.322235,349495,16642
1608.55,1.329754,341154,15966
1612.54,1.314923,330877,16023
1615.53,1.319583,322904,15470
1618.51,1.327095,315116,14838
1621.49,1.321045,307217,14669
1624.47,1.318822,299481,14373
1627.44,1.317317,292112,14068
1630.41,1.331313,284245,13255
1634.36,1.315758,274079,13247
1637.32,1.328562,266916,12526
1640.27,1.315439,259612,12557
1643.22,1.310381,251804,12322
1646.16,1.296729,244348,12339
1649.1,1.297855,236703,11922
1652.04,1.296695,228171,11523
1655.95,1.317986,215408,10358
1658.88,1.285864,204937,10611
1661.8,1.283718,193395,10063
1664.72,1.274476,179728,9553
1667.63,1.260957,163642,8973
1670.54,1.245783,146312,8308
1673.44,1.211220,128451,7898
1677.31,1.187227,105080,6828
1680.21,1.164456,88906,6088
1683.1,1.150403,75033,5307
1685.99,1.152506,63520,4471
1688.87,1.162238,53714,3697
1691.75,1.146385,45653,3259
1694.62,1.120856,39137,2963
1697.49,1.210127,33776,2082
1701.31,1.135786,28175,2061