Folder: textile_sorting_NIRSCAN_/ML/samples/unknown (part 58)

File: Column 1_078392_20241121_170026.csv
Method:,Column 1,,
Host Date-Time:,21/11/24 @ 17:0:26,,
Header Version:,1,,
System Temp (C):,34.4,,
Detector Temp (C):,34.09,,
Humidity (%):,2.6,,
Lamp PD:,3802,,
Shift Vector Coefficients:,-10.5391,0.0761263,-0.000134223,,
Pixel to Wavelength Coefficients:,1775.68,-0.916766,-0.000235065,,
Serial Number:,5510004,,
Scan Config Name:,Column 1,,
Scan Config Type:,Slew,,
Section 1,,
Start wavelength (nm):,900,,
End wavelength (nm):,1700,,
Pattern Pixel Width (nm):,   7.03,,,,
Exposure (ms):,  0.635,,,,
Digital Resolution:,228,,
Num Repeats:,6,,
PGA Gain:,64,,
Total Measurement Time in sec:,  2.726,,
Wavelength (nm),Absorbance (AU),Reference Signal (unitless),Sample Signal (unitless)
901.51,1.322299,108485,5165
905.376,1.350846,121306,5408
909.237,1.300533,131909,6603
913.095,1.349046,143299,6415
916.948,1.336952,156982,7226
922.079,1.315501,179937,8702
925.923,1.333173,200504,9310
929.762,1.320333,222660,10649
933.597,1.321672,244426,11654
937.427,1.330982,263972,12319
941.254,1.328188,281845,13238
945.076,1.334660,297271,13756
950.165,1.315561,315605,15261
953.978,1.320123,328029,15696
957.786,1.322028,340470,16220
961.59,1.317815,352317,16948
965.389,1.311118,363056,17736
969.185,1.311349,373162,18220
972.976,1.317162,382632,18434
976.763,1.315365,391202,18925
981.806,1.313458,400190,19445
985.583,1.310597,406088,19862
989.355,1.310863,410162,20049
993.124,1.309215,412868,20258
996.888,1.310358,414263,20273
1000.65,1.309576,415476,20369
1004.4,1.313456,415479,20188
1009.41,1.306343,414358,20466
1013.15,1.315230,412923,19982
1016.89,1.308638,411526,20219
1020.63,1.321581,409066,19508
1024.36,1.303103,406777,20242
1028.09,1.314540,404427,19602
1031.82,1.303252,401911,19993
1036.78,1.316577,398410,19220
1040.49,1.309334,396204,19435
1044.2,1.314882,394236,19093
1047.91,1.307483,392042,19313
1051.61,1.312228,389823,18995
1055.31,1.316649,388234,18726
1059,1.320976,387599,18510
1063.92,1.311014,386688,18895
1067.61,1.311971,386598,18849
1071.29,1.309815,387377,18981
1074.96,1.311478,388536,18965
1078.63,1.318018,389855,18745
1082.3,1.318789,391215,18777
1085.96,1.315922,393215,18998
1090.84,1.320588,396270,18941
1094.49,1.320725,398760,19054
1098.14,1.312806,400987,19513
1101.79,1.319879,403477,19317
1105.43,1.320692,406116,19407
1109.06,1.327041,407701,19200
1112.7,1.317045,409859,19751
1117.53,1.315692,412494,19940
1121.15,1.320236,414909,19848
1124.77,1.315897,416559,20127
1128.38,1.318317,418532,20110
1131.99,1.319144,419956,20140
1135.6,1.327103,421946,19868
1139.2,1.315469,423881,20501
1143.99,1.323164,426786,20279
1147.58,1.325795,428617,20243
1151.17,1.323763,431169,20459
1154.75,1.330858,433579,20240
1158.33,1.327001,436264,20547
1161.91,1.311796,439132,21419
1165.48,1.323875,442389,20986
1169.04,1.318269,446101,21437
1173.79,1.315897,451929,21836
1177.34,1.314322,456026,22114
1180.9,1.321428,461306,22007
1184.44,1.321603,467657,22301
1187.99,1.315611,473969,22916
1191.52,1.329450,479856,22473
1195.06,1.322391,487372,23199
1199.76,1.321765,497347,23708
1203.29,1.319494,504311,24166
1206.81,1.314050,511507,24820
1210.33,1.326918,519078,24452
1213.84,1.325170,527163,24933
1217.35,1.324882,534208,25283
1220.85,1.328059,540472,25393
1225.51,1.324682,549929,26039
1229.01,1.323901,556888,26416
1232.5,1.329276,562180,26339
1235.98,1.331133,567975,26497
1239.46,1.322380,574815,27362
1242.94,1.327946,582782,27388
1246.41,1.324252,591476,28034
1251.03,1.324060,604016,28641
1254.5,1.323631,612289,29062
1257.96,1.327155,619125,29149
1261.41,1.322665,624551,29710
1264.86,1.331486,629900,29362
1268.31,1.329379,634345,29713
1271.75,1.332777,638574,29678
1276.33,1.329393,642499,30094
1279.76,1.333815,645905,29947
1283.19,1.330912,648307,30260
1286.61,1.330895,650446,30361
1290.03,1.335336,652132,30130
1293.44,1.326092,653907,30862
1296.85,1.334006,655963,30400
1301.39,1.328710,657349,30838
1304.8,1.331532,657558,30648
1308.19,1.332008,658515,30659
1311.58,1.341490,658804,30010
1314.97,1.334678,659011,30494
1318.36,1.335603,658272,30395
1321.73,1.334839,658022,30437
1326.23,1.333342,657870,30535
1329.6,1.333365,656482,30469
1332.97,1.334019,654926,30351
1336.33,1.328216,653727,30703
1339.69,1.336301,652497,30080
1343.04,1.331527,649913,30292
1346.39,1.331995,647671,30155
1349.73,1.334494,645338,29874
1354.18,1.331276,641175,29902
1357.52,1.331502,638376,29756
1360.85,1.331490,635805,29637
1364.17,1.330615,633413,29585
1367.49,1.330019,631026,29514
1370.81,1.325033,628050,29714
1374.12,1.331414,625034,29140
1378.54,1.333401,620272,28786
1381.84,1.330500,616892,28821
1385.14,1.333095,613613,28497
1388.43,1.324601,611526,28961
1391.72,1.331628,610663,28456
1395.01,1.326328,610634,28804
1398.29,1.328641,611700,28701
1402.66,1.333542,614051,28488
1405.93,1.329278,616268,28873
1409.2,1.332101,617795,28757
1412.46,1.330207,618872,28933
1415.72,1.334881,619795,28666
1418.98,1.328338,620495,29134
1422.23,1.334953,621087,28721
1426.56,1.332516,621375,28896
1429.8,1.336716,621616,28629
1433.04,1.329928,622129,29104
1436.27,1.336547,621526,28636
1439.5,1.326985,621113,29254
1442.72,1.332048,620921,28906
1445.94,1.331923,620270,28884
1450.23,1.336230,618860,28534
1453.44,1.335078,617697,28556
1456.64,1.335639,616264,28453
1459.85,1.337196,614413,28266
1463.04,1.338278,612307,28099
1466.24,1.333213,610032,28323
1469.43,1.342778,607345,27584
1473.67,1.331577,603789,28139
1476.85,1.337212,601175,27656
1480.02,1.338490,597737,27417
1483.19,1.339440,594479,27208
1486.36,1.333295,591232,27445
1489.52,1.340454,587853,26842
1492.68,1.344864,583875,26391
1496.89,1.344818,578062,26131
1500.03,1.337445,574159,26399
1503.18,1.341971,570285,25949
1506.32,1.336815,565444,26036
1509.45,1.336624,560571,25823
1512.58,1.350308,555821,24810
1515.71,1.336742,550344,25345
1519.87,1.334219,543983,25198
1522.99,1.344953,538764,24347
1526.1,1.342364,533692,24262
1529.21,1.345320,527902,23836
1532.32,1.340397,521886,23833
1535.42,1.344287,515888,23349
1538.51,1.339495,509987,23338
1541.6,1.333438,503936,23385
1545.72,1.349179,494694,22139
1548.8,1.326123,488378,23048
1551.88,1.336464,481832,22204
1554.95,1.334676,474989,21979
1558.02,1.339765,467818,21395
1561.08,1.330221,460730,21539
1564.15,1.328065,454170,21338
1568.22,1.338398,444181,20378
1571.27,1.340660,436947,19942
1574.32,1.330775,429598,20058
1577.36,1.335741,422039,19481
1580.4,1.343513,414375,18788
1583.43,1.335024,406354,18788
1586.46,1.336316,398475,18369
1590.49,1.334416,388982,18010
1593.51,1.329441,380708,17830
1596.53,1.330118,372727,17429
1599.54,1.341159,365060,16642
1602.55,1.330456,357543,16706
1605.55,1.319556,349495,16745
1608.55,1.318716,341154,16377
1612.54,1.329307,330877,15501
1615.53,1.330730,322904,15078
1618.51,1.321107,315116,15044
1621.49,1.317859,307217,14777
1624.47,1.314433,299481,14519
1627.44,1.317255,292112,14070
1630.41,1.315643,284245,13742
1634.36,1.319578,274079,13131
1637.32,1.326832,266916,12576
1640.27,1.315819,259612,12546
1643.22,1.304918,251804,12478
1646.16,1.306086,244348,12076
1649.1,1.313959,236703,11488
1652.04,1.304261,228171,11324
1655.95,1.316521,215408,10393
1658.88,1.295339,204937,10382
1661.8,1.300615,193395,9679
1664.72,1.278908,179728,9456
1667.63,1.268475,163642,8819
1670.54,1.232908,146312,8558
1673.44,1.257357,128451,7102
1677.31,1.205146,105080,6552
1680.21,1.183412,88906,5828
1683.1,1.155838,75033,5241
1685.99,1.214751,63520,3874
1688.87,1.158379,53714,3730
1691.75,1.205234,45653,2846
1694.62,1.246822,39137,2217
1697.49,1.256534,33776,1871
1701.31,1.312826,28175,1371

File: Column 1_078399_20241121_170046.csv
Method:,Column 1,,
Host Date-Time:,21/11/24 @ 17:0:46,,
Header Version:,1,,
System Temp (C):,34.6,,
Detector Temp (C):,33.89,,
Humidity (%):,2.55,,
Lamp PD:,3802,,
Shift Vector Coefficients:,-10.5391,0.0761263,-0.000134223,,
Pixel to Wavelength Coefficients:,1775.68,-0.916766,-0.000235065,,
Serial Number:,5510004,,
Scan Config Name:,Column 1,,
Scan Config Type:,Slew,,
Section 1,,
Start wavelength (nm):,900,,
End wavelength (nm):,1700,,
Pattern Pixel Width (nm):,   7.03,,,,
Exposure (ms):,  0.635,,,,
Digital Resolution:,228,,
Num Repeats:,6,,
PGA Gain:,64,,
Total Measurement Time in sec:,  2.726,,
Wavelength (nm),Absorbance (AU),Reference Signal (unitless),Sample Signal (unitless)
901.51,1.317283,108485,5225
905.376,1.311121,121306,5926
909.237,1.310984,131909,6446
913.095,1.325590,143299,6771
916.948,1.348462,156982,7037
922.079,1.343217,179937,8164
925.923,1.337675,200504,9214
929.762,1.318177,222660,10702
933.597,1.326921,244426,11514
937.427,1.324891,263972,12493
941.254,1.321805,281845,13434
945.076,1.310439,297271,14545
950.165,1.314793,315605,15288
953.978,1.319625,328029,15714
957.786,1.322698,340470,16195
961.59,1.316357,352317,17005
965.389,1.313377,363056,17644
969.185,1.304280,373162,18519
972.976,1.303776,382632,19011
976.763,1.315273,391202,18929
981.806,1.310764,400190,19566
985.583,1.309723,406088,19902
989.355,1.319019,410162,19676
993.124,1.303803,412868,20512
996.888,1.308818,414263,20345
1000.65,1.307343,415476,20474
1004.4,1.304745,415479,20597
1009.41,1.302771,414358,20635
1013.15,1.301981,412923,20601
1016.89,1.304171,411526,20428
1020.63,1.310590,409066,20008
1024.36,1.315707,406777,19663
1028.09,1.300479,404427,20247
1031.82,1.310105,401911,19680
1036.78,1.309072,398410,19555
1040.49,1.311507,396204,19338
1044.2,1.303234,394236,19612
1047.91,1.312595,392042,19087
1051.61,1.315764,389823,18841
1055.31,1.312885,388234,18889
1059,1.307599,387599,19089
1063.92,1.315264,386688,18711
1067.61,1.322961,386598,18378
1071.29,1.317921,387377,18630
1074.96,1.312969,388536,18900
1078.63,1.318319,389855,18732
1082.3,1.318142,391215,18805
1085.96,1.312099,393215,19166
1090.84,1.318028,396270,19053
1094.49,1.313447,398760,19376
1098.14,1.311539,400987,19570
1101.79,1.316475,403477,19469
1105.43,1.312424,406116,19780
1109.06,1.306908,407701,20111
1112.7,1.319670,409859,19632
1117.53,1.310949,412494,20159
1121.15,1.320017,414909,19858
1124.77,1.323011,416559,19800
1128.38,1.316786,418532,20181
1131.99,1.321068,419956,20051
1135.6,1.317461,421946,20314
1139.2,1.315956,423881,20478
1143.99,1.315753,426786,20628
1147.58,1.321291,428617,20454
1151.17,1.321033,431169,20588
1154.75,1.319966,433579,20754
1158.33,1.322773,436264,20748
1161.91,1.322116,439132,20916
1165.48,1.314316,442389,21453
1169.04,1.312234,446101,21737
1173.79,1.319271,451929,21667
1177.34,1.315640,456026,22047
1180.9,1.312038,461306,22488
1184.44,1.322734,467657,22243
1187.99,1.320126,473969,22679
1191.52,1.313513,479856,23313
1195.06,1.323422,487372,23144
1199.76,1.319080,497347,23855
1203.29,1.326176,504311,23797
1206.81,1.325503,511507,24174
1210.33,1.325996,519078,24504
1213.84,1.330234,527163,24644
1217.35,1.322398,534208,25428
1220.85,1.321221,540472,25796
1225.51,1.327477,549929,25872
1229.01,1.326076,556888,26284
1232.5,1.323332,562180,26702
1235.98,1.324771,567975,26888
1239.46,1.317456,574815,27674
1242.94,1.324455,582782,27609
1246.41,1.325851,591476,27931
1251.03,1.330584,604016,28214
1254.5,1.330196,612289,28626
1257.96,1.330911,619125,28898
1261.41,1.326910,624551,29421
1264.86,1.324182,629900,29860
1268.31,1.328999,634345,29739
1271.75,1.324543,638574,30246
1276.33,1.332754,642499,29862
1279.76,1.331371,645905,30116
1283.19,1.330381,648307,30297
1286.61,1.326384,650446,30678
1290.03,1.325771,652132,30801
1293.44,1.332828,653907,30387
1296.85,1.326935,655963,30899
1301.39,1.326757,657349,30977
1304.8,1.333919,657558,30480
1308.19,1.332546,658515,30621
1311.58,1.329614,658804,30842
1314.97,1.332817,659011,30625
1318.36,1.334690,658272,30459
1321.73,1.331385,658022,30680
1326.23,1.335381,657870,30392
1329.6,1.333778,656482,30440
1332.97,1.334263,654926,30334
1336.33,1.334097,653727,30290
1339.69,1.331748,652497,30397
1343.04,1.325788,649913,30695
1346.39,1.333944,647671,30020
1349.73,1.335615,645338,29797
1354.18,1.329711,641175,30010
1357.52,1.329086,638376,29922
1360.85,1.330699,635805,29691
1364.17,1.329897,633413,29634
1367.49,1.330829,631026,29459
1370.81,1.326600,628050,29607
1374.12,1.327911,625034,29376
1378.54,1.328331,620272,29124
1381.84,1.326794,616892,29068
1385.14,1.323494,613613,29134
1388.43,1.321836,611526,29146
1391.72,1.327708,610663,28714
1395.01,1.326886,610634,28767
1398.29,1.329474,611700,28646
1402.66,1.330913,614051,28661
1405.93,1.332888,616268,28634
1409.2,1.330187,617795,28884
1412.46,1.328664,618872,29036
1415.72,1.338639,619795,28419
1418.98,1.333949,620495,28760
1422.23,1.334953,621087,28721
1426.56,1.332351,621375,28907
1429.8,1.339043,621616,28476
1433.04,1.333419,622129,28871
1436.27,1.333856,621526,28814
1439.5,1.335864,621113,28662
1442.72,1.333116,620921,28835
1445.94,1.332029,620270,28877
1450.23,1.336154,618860,28539
1453.44,1.333075,617697,28688
1456.64,1.340582,616264,28131
1459.85,1.336398,614413,28318
1463.04,1.342300,612307,27840
1466.24,1.336925,610032,28082
1469.43,1.334590,607345,28109
1473.67,1.340543,603789,27564
1476.85,1.335253,601175,27781
1480.02,1.339648,597737,27344
1483.19,1.338276,594479,27281
1486.36,1.338500,591232,27118
1489.52,1.336684,587853,27076
1492.68,1.332406,583875,27159
1496.89,1.334213,578062,26777
1500.03,1.336032,574159,26485
1503.18,1.336549,570285,26275
1506.32,1.340316,565444,25827
1509.45,1.336859,560571,25809
1512.58,1.342106,555821,25283
1515.71,1.333464,550344,25537
1519.87,1.337090,543983,25032
1522.99,1.337087,538764,24792
1526.1,1.334699,533692,24694
1529.21,1.331918,527902,24583
1532.32,1.336479,521886,24049
1535.42,1.333377,515888,23943
1538.51,1.340669,509987,23275
1541.6,1.328783,503936,23637
1545.72,1.332288,494694,23017
1548.8,1.338935,488378,22378
1551.88,1.338897,481832,22080
1554.95,1.339364,474989,21743
1558.02,1.339257,467818,21420
1561.08,1.344028,460730,20865
1564.15,1.332607,454170,21116
1568.22,1.333313,444181,20618
1571.27,1.329757,436947,20449
1574.32,1.332293,429598,19988
1577.36,1.333939,422039,19562
1580.4,1.336087,414375,19112
1583.43,1.335741,406354,18757
1586.46,1.329373,398475,18665
1590.49,1.336713,388982,17915
1593.51,1.328443,380708,17871
1596.53,1.327337,372727,17541
1599.54,1.329444,365060,17097
1602.55,1.329391,357543,16747
1605.55,1.321844,349495,16657
1608.55,1.325585,341154,16120
1612.54,1.323961,330877,15693
1615.53,1.332143,322904,15029
1618.51,1.331715,315116,14681
1621.49,1.323063,307217,14601
1624.47,1.318792,299481,14374
1627.44,1.314517,292112,14159
1630.41,1.328798,284245,13332
1634.36,1.309444,274079,13441
1637.32,1.315886,266916,12897
1640.27,1.310932,259612,12688
1643.22,1.313991,251804,12220
1646.16,1.320417,244348,11684
1649.1,1.323360,236703,11242
1652.04,1.315724,228171,11029
1655.95,1.293491,215408,10959
1658.88,1.288862,204937,10538
1661.8,1.280450,193395,10139
1664.72,1.273160,179728,9582
1667.63,1.273777,163642,8712
1670.54,1.254816,146312,8137
1673.44,1.242214,128451,7354
1677.31,1.211019,105080,6464
1680.21,1.189792,88906,5743
1683.1,1.156087,75033,5238
1685.99,1.220052,63520,3827
1688.87,1.161182,53714,3706
1691.75,1.147586,45653,3250
1694.62,1.160260,39137,2706
1697.49,1.172009,33776,2273
1701.31,1.193146,28175,1806

File: Column 1_078400_20241121_170049.csv
Method:,Column 1,,
Host Date-Time:,21/11/24 @ 17:0:49,,
Header Version:,1,,
System Temp (C):,34.64,,
Detector Temp (C):,33.88,,
Humidity (%):,2.5,,
Lamp PD:,3802,,
Shift Vector Coefficients:,-10.5391,0.0761263,-0.000134223,,
Pixel to Wavelength Coefficients:,1775.68,-0.916766,-0.000235065,,
Serial Number:,5510004,,
Scan Config Name:,Column 1,,
Scan Config Type:,Slew,,
Section 1,,
Start wavelength (nm):,900,,
End wavelength (nm):,1700,,
Pattern Pixel Width (nm):,   7.03,,,,
Exposure (ms):,  0.635,,,,
Digital Resolution:,228,,
Num Repeats:,6,,
PGA Gain:,64,,
Total Measurement Time in sec:,  2.721,,
Wavelength (nm),Absorbance (AU),Reference Signal (unitless),Sample Signal (unitless)
901.51,1.318699,108485,5208
905.376,1.327703,121306,5704
909.237,1.310244,131909,6457
913.095,1.349995,143299,6401
916.948,1.315780,156982,7587
922.079,1.327647,179937,8462
925.923,1.321302,200504,9568
929.762,1.334426,222660,10309
933.597,1.325791,244426,11544
937.427,1.343065,263972,11981
941.254,1.321062,281845,13457
945.076,1.316937,297271,14329
950.165,1.328120,315605,14826
953.978,1.322509,328029,15610
957.786,1.311997,340470,16599
961.59,1.320669,352317,16837
965.389,1.318253,363056,17447
969.185,1.315902,373162,18030
972.976,1.312872,382632,18617
976.763,1.305070,391202,19379
981.806,1.316844,400190,19294
985.583,1.310772,406088,19854
989.355,1.305481,410162,20299
993.124,1.309429,412868,20248
996.888,1.308733,414263,20349
1000.65,1.313991,415476,20163
1004.4,1.314662,415479,20132
1009.41,1.309110,414358,20336
1013.15,1.314557,412923,20013
1016.89,1.316506,411526,19856
1020.63,1.311046,409066,19987
1024.36,1.313679,406777,19755
1028.09,1.309211,404427,19844
1031.82,1.309091,401911,19726
1036.78,1.314660,398410,19305
1040.49,1.309893,396204,19410
1044.2,1.302991,394236,19623
1047.91,1.313688,392042,19039
1051.61,1.309062,389823,19134
1055.31,1.321312,388234,18526
1059,1.314040,387599,18808
1063.92,1.316612,386688,18653
1067.61,1.316488,386598,18654
1071.29,1.312431,387377,18867
1074.96,1.319708,388536,18609
1078.63,1.307579,389855,19201
1082.3,1.312657,391215,19044
1085.96,1.311691,393215,19184
1090.84,1.316140,396270,19136
1094.49,1.315582,398760,19281
1098.14,1.304932,400987,19870
1101.79,1.310736,403477,19728
1105.43,1.318326,406116,19513
1109.06,1.319284,407701,19546
1112.7,1.318389,409859,19690
1117.53,1.314323,412494,20003
1121.15,1.317553,414909,19971
1124.77,1.326601,416559,19637
1128.38,1.322156,418532,19933
1131.99,1.325028,419956,19869
1135.6,1.315840,421946,20390
1139.2,1.325065,423881,20053
1143.99,1.323892,426786,20245
1147.58,1.315428,428617,20732
1151.17,1.324485,431169,20425
1154.75,1.318316,433579,20833
1158.33,1.313475,436264,21197
1161.91,1.323406,439132,20854
1165.48,1.321604,442389,21096
1169.04,1.324390,446101,21137
1173.79,1.325510,451929,21358
1177.34,1.320792,456026,21787
1180.9,1.316503,461306,22258
1184.44,1.317031,467657,22537
1187.99,1.323973,473969,22479
1191.52,1.313010,479856,23340
1195.06,1.323704,487372,23129
1199.76,1.324558,497347,23556
1203.29,1.331261,504311,23520
1206.81,1.330199,511507,23914
1210.33,1.323099,519078,24668
1213.84,1.327563,527163,24796
1217.35,1.322193,534208,25440
1220.85,1.320161,540472,25859
1225.51,1.326186,549929,25949
1229.01,1.323999,556888,26410
1232.5,1.324048,562180,26658
1235.98,1.325757,567975,26827
1239.46,1.329356,574815,26926
1242.94,1.322901,582782,27708
1246.41,1.329081,591476,27724
1251.03,1.323545,604016,28675
1254.5,1.328092,612289,28765
1257.96,1.325742,619125,29244
1261.41,1.328774,624551,29295
1264.86,1.331811,629900,29340
1268.31,1.328532,634345,29771
1271.75,1.327497,638574,30041
1276.33,1.328153,642499,30180
1279.76,1.331963,645905,30075
1283.19,1.329522,648307,30357
1286.61,1.328826,650446,30506
1290.03,1.331705,652132,30383
1293.44,1.329171,653907,30644
1296.85,1.326542,655963,30927
1301.39,1.329386,657349,30790
1304.8,1.333606,657558,30502
1308.19,1.330763,658515,30747
1311.58,1.329910,658804,30821
1314.97,1.331387,659011,30726
1318.36,1.329826,658272,30802
1321.73,1.338665,658022,30170
1326.23,1.338939,657870,30144
1329.6,1.331501,656482,30600
1332.97,1.331821,654926,30505
1336.33,1.332009,653727,30436
1339.69,1.329113,652497,30582
1343.04,1.331800,649913,30273
1346.39,1.333770,647671,30032
1349.73,1.335003,645338,29839
1354.18,1.334206,641175,29701
1357.52,1.335240,638376,29501
1360.85,1.332649,635805,29558
1364.17,1.332823,633413,29435
1367.49,1.328404,631026,29624
1370.81,1.333445,628050,29144
1374.12,1.327970,625034,29372
1378.54,1.329645,620272,29036
1381.84,1.328621,616892,28946
1385.14,1.329272,613613,28749
1388.43,1.328004,611526,28735
1391.72,1.328253,610663,28678
1395.01,1.328368,610634,28669
1398.29,1.326287,611700,28857
1402.66,1.337447,614051,28233
1405.93,1.332145,616268,28683
1409.2,1.338613,617795,28329
1412.46,1.335204,618872,28602
1415.72,1.330150,619795,28980
1418.98,1.336737,620495,28576
1422.23,1.335664,621087,28674
1426.56,1.332802,621375,28877
1429.8,1.333557,621616,28838
1433.04,1.334910,622129,28772
1436.27,1.337215,621526,28592
1439.5,1.329755,621113,29068
1442.72,1.332740,620921,28860
1445.94,1.333701,620270,28766
1450.23,1.336991,618860,28484
1453.44,1.339496,617697,28267
1456.64,1.338410,616264,28272
1459.85,1.332049,614413,28603
1463.04,1.334784,612307,28326
1466.24,1.339080,610032,27943
1469.43,1.335007,607345,28082
1473.67,1.341947,603789,27475
1476.85,1.341044,601175,27413
1480.02,1.339299,597737,27366
1483.19,1.336893,594479,27368
1486.36,1.342216,591232,26887
1489.52,1.338871,587853,26940
1492.68,1.339386,583875,26726
1496.89,1.342481,578062,26272
1500.03,1.333188,574159,26659
1503.18,1.335724,570285,26325
1506.32,1.340383,565444,25823
1509.45,1.336019,560571,25859
1512.58,1.342227,555821,25276
1515.71,1.341289,550344,25081
1519.87,1.347715,543983,24427
1522.99,1.338087,538764,24735
1526.1,1.343421,533692,24203
1529.21,1.339690,527902,24147
1532.32,1.340087,521886,23850
1535.42,1.334958,515888,23856
1538.51,1.331366,509987,23779
1541.6,1.333141,503936,23401
1545.72,1.337145,494694,22761
1548.8,1.341016,488378,22271
1551.88,1.333929,481832,22334
1554.95,1.339144,474989,21754
1558.02,1.352410,467818,20781
1561.08,1.342345,460730,20946
1564.15,1.334875,454170,21006
1568.22,1.341650,444181,20226
1571.27,1.347221,436947,19643
1574.32,1.337627,429598,19744
1577.36,1.335095,422039,19510
1580.4,1.335497,414375,19138
1583.43,1.339182,406354,18609
1586.46,1.336292,398475,18370
1590.49,1.345603,388982,17552
1593.51,1.324307,380708,18042
1596.53,1.337684,372727,17128
1599.54,1.333579,365060,16935
1602.55,1.333325,357543,16596
1605.55,1.330136,349495,16342
1608.55,1.334541,341154,15791
1612.54,1.319994,330877,15837
1615.53,1.324609,322904,15292
1618.51,1.322495,315116,14996
1621.49,1.325479,307217,14520
1624.47,1.320275,299481,14325
1627.44,1.319608,292112,13994
1630.41,1.319835,284245,13610
1634.36,1.332229,274079,12754
1637.32,1.321580,266916,12729
1640.27,1.335904,259612,11979
1643.22,1.326063,251804,11885
1646.16,1.327349,244348,11499
1649.1,1.316272,236703,11427
1652.04,1.327620,228171,10731
1655.95,1.321100,215408,10284
1658.88,1.306783,204937,10112
1661.8,1.281179,193395,10122
1664.72,1.263656,179728,9794
1667.63,1.259990,163642,8993
1670.54,1.251519,146312,8199
1673.44,1.233503,128451,7503
1677.31,1.217585,105080,6367
1680.21,1.228524,88906,5253
1683.1,1.209296,75033,4634
1685.99,1.209514,63520,3921
1688.87,1.179126,53714,3556
1691.75,1.223625,45653,2728
1694.62,1.203599,39137,2449
1697.49,1.088014,33776,2758
1701.31,1.369598,28175,1203