Folder: textile_sorting_NIRSCAN_/ML/samples/unknown (part 63)

File: Column 1_078427_20241121_170208.csv
Method:,Column 1,,
Host Date-Time:,21/11/24 @ 17:2:8,,
Header Version:,1,,
System Temp (C):,34.83,,
Detector Temp (C):,33.7,,
Humidity (%):,2.5,,
Lamp PD:,3802,,
Shift Vector Coefficients:,-10.5391,0.0761263,-0.000134223,,
Pixel to Wavelength Coefficients:,1775.68,-0.916766,-0.000235065,,
Serial Number:,5510004,,
Scan Config Name:,Column 1,,
Scan Config Type:,Slew,,
Section 1,,
Start wavelength (nm):,900,,
End wavelength (nm):,1700,,
Pattern Pixel Width (nm):,   7.03,,,,
Exposure (ms):,  0.635,,,,
Digital Resolution:,228,,
Num Repeats:,6,,
PGA Gain:,64,,
Total Measurement Time in sec:,  2.718,,
Wavelength (nm),Absorbance (AU),Reference Signal (unitless),Sample Signal (unitless)
901.51,1.319701,108485,5196
905.376,1.326486,121306,5720
909.237,1.299482,131909,6619
913.095,1.315134,143299,6936
916.948,1.319286,156982,7526
922.079,1.326264,179937,8489
925.923,1.321483,200504,9564
929.762,1.330358,222660,10406
933.597,1.320147,244426,11695
937.427,1.316320,263972,12742
941.254,1.328385,281845,13232
945.076,1.318911,297271,14264
950.165,1.310694,315605,15433
953.978,1.316678,328029,15821
957.786,1.312573,340470,16577
961.59,1.309868,352317,17261
965.389,1.307655,363056,17878
969.185,1.297347,373162,18817
972.976,1.312755,382632,18622
976.763,1.305316,391202,19368
981.806,1.307734,400190,19703
985.583,1.313625,406088,19724
989.355,1.307497,410162,20205
993.124,1.304736,412868,20468
996.888,1.307157,414263,20423
1000.65,1.301444,415476,20754
1004.4,1.308089,415479,20439
1009.41,1.308747,414358,20353
1013.15,1.316732,412923,19913
1016.89,1.302283,411526,20517
1020.63,1.311263,409066,19977
1024.36,1.303640,406777,20217
1028.09,1.312396,404427,19699
1031.82,1.310436,401911,19665
1036.78,1.308495,398410,19581
1040.49,1.305929,396204,19588
1044.2,1.310875,394236,19270
1047.91,1.308181,392042,19282
1051.61,1.310653,389823,19064
1055.31,1.310317,388234,19001
1059,1.306327,387599,19145
1063.92,1.310072,386688,18936
1067.61,1.311557,386598,18867
1071.29,1.310044,387377,18971
1074.96,1.309536,388536,19050
1078.63,1.322395,389855,18557
1082.3,1.308052,391215,19247
1085.96,1.312983,393215,19127
1090.84,1.313989,396270,19231
1094.49,1.312127,398760,19435
1098.14,1.325475,400987,18952
1101.79,1.315717,403477,19503
1105.43,1.308272,406116,19970
1109.06,1.314247,407701,19774
1112.7,1.312539,409859,19957
1117.53,1.309894,412494,20208
1121.15,1.312473,414909,20206
1124.77,1.311432,416559,20335
1128.38,1.317432,418532,20151
1131.99,1.313318,419956,20412
1135.6,1.310589,421946,20638
1139.2,1.329877,423881,19832
1143.99,1.316828,426786,20577
1147.58,1.312505,428617,20872
1151.17,1.322767,431169,20506
1154.75,1.309955,433579,21238
1158.33,1.314480,436264,21148
1161.91,1.320583,439132,20990
1165.48,1.314296,442389,21454
1169.04,1.327690,446101,20977
1173.79,1.307116,451929,22282
1177.34,1.321431,456026,21755
1180.9,1.321053,461306,22026
1184.44,1.311422,467657,22830
1187.99,1.313531,473969,23026
1191.52,1.317725,479856,23088
1195.06,1.320598,487372,23295
1199.76,1.319864,497347,23812
1203.29,1.323284,504311,23956
1206.81,1.317105,511507,24646
1210.33,1.322852,519078,24682
1213.84,1.318275,527163,25332
1217.35,1.315132,534208,25857
1220.85,1.326335,540472,25494
1225.51,1.316864,549929,26512
1229.01,1.316985,556888,26840
1232.5,1.326171,562180,26528
1235.98,1.323770,567975,26950
1239.46,1.323907,574815,27266
1242.94,1.322306,582782,27746
1246.41,1.323014,591476,28114
1251.03,1.320166,604016,28899
1254.5,1.327232,612289,28822
1257.96,1.318715,619125,29721
1261.41,1.319403,624551,29934
1264.86,1.325945,629900,29739
1268.31,1.320367,634345,30336
1271.75,1.320072,638574,30559
1276.33,1.326072,642499,30325
1279.76,1.328884,645905,30289
1283.19,1.323653,648307,30770
1286.61,1.323928,650446,30852
1290.03,1.329594,652132,30531
1293.44,1.331102,653907,30508
1296.85,1.327047,655963,30891
1301.39,1.329923,657349,30752
1304.8,1.328651,657558,30852
1308.19,1.329888,658515,30809
1311.58,1.335369,658804,30436
1314.97,1.327980,659011,30968
1318.36,1.327604,658272,30960
1321.73,1.327019,658022,30990
1326.23,1.331695,657870,30651
1329.6,1.327813,656482,30861
1332.97,1.332605,654926,30450
1336.33,1.330712,653727,30527
1339.69,1.326437,652497,30771
1343.04,1.327688,649913,30561
1346.39,1.329926,647671,30299
1349.73,1.331423,645338,30086
1354.18,1.326883,641175,30206
1357.52,1.325559,638376,30166
1360.85,1.326492,635805,29980
1364.17,1.323279,633413,30089
1367.49,1.328140,631026,29642
1370.81,1.328099,628050,29505
1374.12,1.324979,625034,29575
1378.54,1.325418,620272,29320
1381.84,1.322719,616892,29342
1385.14,1.324300,613613,29080
1388.43,1.325547,611526,28898
1391.72,1.322790,610663,29041
1395.01,1.329354,610634,28604
1398.29,1.324920,611700,28948
1402.66,1.332994,614051,28524
1405.93,1.329022,616268,28890
1409.2,1.331588,617795,28791
1412.46,1.326694,618872,29168
1415.72,1.329835,619795,29001
1418.98,1.331450,620495,28926
1422.23,1.331069,621087,28979
1426.56,1.334595,621375,28758
1429.8,1.329092,621616,29136
1433.04,1.325223,622129,29421
1436.27,1.332757,621526,28887
1439.5,1.329726,621113,29070
1442.72,1.330444,620921,29013
1445.94,1.325891,620270,29288
1450.23,1.330064,618860,28942
1453.44,1.332183,617697,28747
1456.64,1.335013,616264,28494
1459.85,1.328947,614413,28808
1463.04,1.336428,612307,28219
1466.24,1.331041,610032,28465
1469.43,1.334189,607345,28135
1473.67,1.328378,603789,28347
1476.85,1.331409,601175,28028
1480.02,1.339093,597737,27379
1483.19,1.331500,594479,27710
1486.36,1.339013,591232,27086
1489.52,1.338114,587853,26987
1492.68,1.327714,583875,27454
1496.89,1.338352,578062,26523
1500.03,1.336574,574159,26452
1503.18,1.330378,570285,26651
1506.32,1.336399,565444,26061
1509.45,1.330810,560571,26171
1512.58,1.342828,555821,25241
1515.71,1.335681,550344,25407
1519.87,1.332705,543983,25286
1522.99,1.339564,538764,24651
1526.1,1.334611,533692,24699
1529.21,1.337734,527902,24256
1532.32,1.337654,521886,23984
1535.42,1.330574,515888,24098
1538.51,1.334850,509987,23589
1541.6,1.337543,503936,23165
1545.72,1.332043,494694,23030
1548.8,1.332922,488378,22690
1551.88,1.333346,481832,22364
1554.95,1.334379,474989,21994
1558.02,1.334138,467818,21674
1561.08,1.330988,460730,21501
1564.15,1.338633,454170,20825
1568.22,1.330458,444181,20754
1571.27,1.335056,436947,20201
1574.32,1.336353,429598,19802
1577.36,1.329544,422039,19761
1580.4,1.336383,414375,19099
1583.43,1.344087,406354,18400
1586.46,1.326289,398475,18798
1590.49,1.322195,388982,18524
1593.51,1.326794,380708,17939
1596.53,1.326644,372727,17569
1599.54,1.330920,365060,17039
1602.55,1.319520,357543,17132
1605.55,1.311997,349495,17039
1608.55,1.323194,341154,16209
1612.54,1.313948,330877,16059
1615.53,1.321214,322904,15412
1618.51,1.326949,315116,14843
1621.49,1.313618,307217,14922
1624.47,1.321976,299481,14269
1627.44,1.318028,292112,14045
1630.41,1.328309,284245,13347
1634.36,1.317039,274079,13208
1637.32,1.316425,266916,12881
1640.27,1.313920,259612,12601
1643.22,1.308904,251804,12364
1646.16,1.307491,244348,12037
1649.1,1.308400,236703,11636
1652.04,1.299569,228171,11447
1655.95,1.304569,215408,10683
1658.88,1.292213,204937,10457
1661.8,1.288055,193395,9963
1664.72,1.270268,179728,9646
1667.63,1.270796,163642,8772
1670.54,1.234789,146312,8521
1673.44,1.222981,128451,7687
1677.31,1.197915,105080,6662
1680.21,1.164456,88906,6088
1683.1,1.175328,75033,5011
1685.99,1.199658,63520,4011
1688.87,1.125430,53714,4024
1691.75,1.158684,45653,3168
1694.62,1.207876,39137,2425
1697.49,1.164245,33776,2314
1701.31,1.131175,28175,2083

File: Column 1_078429_20241121_170214.csv
Method:,Column 1,,
Host Date-Time:,21/11/24 @ 17:2:14,,
Header Version:,1,,
System Temp (C):,34.8,,
Detector Temp (C):,33.78,,
Humidity (%):,2.3,,
Lamp PD:,3802,,
Shift Vector Coefficients:,-10.5391,0.0761263,-0.000134223,,
Pixel to Wavelength Coefficients:,1775.68,-0.916766,-0.000235065,,
Serial Number:,5510004,,
Scan Config Name:,Column 1,,
Scan Config Type:,Slew,,
Section 1,,
Start wavelength (nm):,900,,
End wavelength (nm):,1700,,
Pattern Pixel Width (nm):,   7.03,,,,
Exposure (ms):,  0.635,,,,
Digital Resolution:,228,,
Num Repeats:,6,,
PGA Gain:,64,,
Total Measurement Time in sec:,  2.737,,
Wavelength (nm),Absorbance (AU),Reference Signal (unitless),Sample Signal (unitless)
901.51,1.327374,108485,5105
905.376,1.314874,121306,5875
909.237,1.341328,131909,6011
913.095,1.309659,143299,7024
916.948,1.314123,156982,7616
922.079,1.309455,179937,8824
925.923,1.321711,200504,9559
929.762,1.328651,222660,10447
933.597,1.317666,244426,11762
937.427,1.322465,263972,12563
941.254,1.309848,281845,13809
945.076,1.326652,297271,14012
950.165,1.321781,315605,15044
953.978,1.307605,328029,16155
957.786,1.308921,340470,16717
961.59,1.319664,352317,16876
965.389,1.319549,363056,17395
969.185,1.304984,373162,18489
972.976,1.307539,382632,18847
976.763,1.307542,391202,19269
981.806,1.306699,400190,19750
985.583,1.316165,406088,19609
989.355,1.299975,410162,20558
993.124,1.313307,412868,20068
996.888,1.307135,414263,20424
1000.65,1.316930,415476,20027
1004.4,1.314123,415479,20157
1009.41,1.305791,414358,20492
1013.15,1.311400,412923,20159
1016.89,1.305087,411526,20385
1020.63,1.309333,409066,20066
1024.36,1.310394,406777,19905
1028.09,1.299815,404427,20278
1031.82,1.307092,401911,19817
1036.78,1.313290,398410,19366
1040.49,1.313443,396204,19252
1044.2,1.314064,394236,19129
1047.91,1.303877,392042,19474
1051.61,1.311178,389823,19041
1055.31,1.308561,388234,19078
1059,1.314895,387599,18771
1063.92,1.311727,386688,18864
1067.61,1.300422,386598,19357
1071.29,1.314878,387377,18761
1074.96,1.308443,388536,19098
1078.63,1.313638,389855,18935
1082.3,1.309522,391215,19182
1085.96,1.303350,393215,19556
1090.84,1.311782,396270,19329
1094.49,1.322484,398760,18977
1098.14,1.312295,400987,19536
1101.79,1.308211,403477,19843
1105.43,1.318705,406116,19496
1109.06,1.313720,407701,19798
1112.7,1.313956,409859,19892
1117.53,1.320181,412494,19735
1121.15,1.323531,414909,19698
1124.77,1.310068,416559,20399
1128.38,1.314425,418532,20291
1131.99,1.299952,419956,21050
1135.6,1.314733,421946,20442
1139.2,1.306599,423881,20924
1143.99,1.310272,426786,20890
1147.58,1.328053,428617,20138
1151.17,1.322259,431169,20530
1154.75,1.314684,433579,21008
1158.33,1.313147,436264,21213
1161.91,1.321121,439132,20964
1165.48,1.319387,442389,21204
1169.04,1.321829,446101,21262
1173.79,1.309324,451929,22169
1177.34,1.312070,456026,22229
1180.9,1.318380,461306,22162
1184.44,1.316261,467657,22577
1187.99,1.312288,473969,23092
1191.52,1.320366,479856,22948
1195.06,1.315206,487372,23586
1199.76,1.324097,497347,23581
1203.29,1.321385,504311,24061
1206.81,1.314558,511507,24791
1210.33,1.316702,519078,25034
1213.84,1.318756,527163,25304
1217.35,1.322210,534208,25439
1220.85,1.321760,540472,25764
1225.51,1.317192,549929,26492
1229.01,1.321687,556888,26551
1232.5,1.319413,562180,26944
1235.98,1.329333,567975,26607
1239.46,1.318100,574815,27633
1242.94,1.323780,582782,27652
1246.41,1.320105,591476,28303
1251.03,1.327333,604016,28426
1254.5,1.329983,612289,28640
1257.96,1.323195,619125,29416
1261.41,1.327014,624551,29414
1264.86,1.330496,629900,29429
1268.31,1.328912,634345,29745
1271.75,1.332119,638574,29723
1276.33,1.330303,642499,30031
1279.76,1.322733,645905,30721
1283.19,1.330811,648307,30267
1286.61,1.325748,650446,30723
1290.03,1.324926,652132,30861
1293.44,1.329709,653907,30606
1296.85,1.327624,655963,30850
1301.39,1.331833,657349,30617
1304.8,1.331050,657558,30682
1308.19,1.332050,658515,30656
1311.58,1.325019,658804,31170
1314.97,1.328036,659011,30964
1318.36,1.326442,658272,31043
1321.73,1.325494,658022,31099
1326.23,1.328589,657870,30871
1329.6,1.337101,656482,30208
1332.97,1.331850,654926,30503
1336.33,1.330144,653727,30567
1339.69,1.333351,652497,30285
1343.04,1.336024,649913,29980
1346.39,1.332528,647671,30118
1349.73,1.330068,645338,30180
1354.18,1.326898,641175,30205
1357.52,1.328738,638376,29946
1360.85,1.333193,635805,29521
1364.17,1.325348,633413,29946
1367.49,1.331995,631026,29380
1370.81,1.329071,628050,29439
1374.12,1.332309,625034,29080
1378.54,1.326724,620272,29232
1381.84,1.329823,616892,28866
1385.14,1.332136,613613,28560
1388.43,1.329139,611526,28660
1391.72,1.321968,610663,29096
1395.01,1.322784,610634,29040
1398.29,1.324935,611700,28947
1402.66,1.327322,614051,28899
1405.93,1.327746,616268,28975
1409.2,1.326668,617795,29119
1412.46,1.333719,618872,28700
1415.72,1.333037,619795,28788
1418.98,1.332307,620495,28869
1422.23,1.328365,621087,29160
1426.56,1.328998,621375,29131
1429.8,1.332865,621616,28884
1433.04,1.333644,622129,28856
1436.27,1.333946,621526,28808
1439.5,1.339409,621113,28429
1442.72,1.339015,620921,28446
1445.94,1.332224,620270,28864
1450.23,1.330965,618860,28882
1453.44,1.332364,617697,28735
1456.64,1.341292,616264,28085
1459.85,1.330382,614413,28713
1463.04,1.336797,612307,28195
1466.24,1.332157,610032,28392
1469.43,1.336991,607345,27954
1473.67,1.333464,603789,28017
1476.85,1.334847,601175,27807
1480.02,1.341622,597737,27220
1483.19,1.328034,594479,27932
1486.36,1.341151,591232,26953
1489.52,1.333950,587853,27247
1492.68,1.332726,583875,27139
1496.89,1.336783,578062,26619
1500.03,1.339671,574159,26264
1503.18,1.342658,570285,25908
1506.32,1.339442,565444,25879
1509.45,1.344824,560571,25340
1512.58,1.336000,555821,25641
1515.71,1.340010,550344,25155
1519.87,1.343187,543983,24683
1522.99,1.339864,538764,24634
1526.1,1.336585,533692,24587
1529.21,1.339744,527902,24144
1532.32,1.335541,521886,24101
1535.42,1.335504,515888,23826
1538.51,1.346171,509987,22982
1541.6,1.336869,503936,23201
1545.72,1.332212,494694,23021
1548.8,1.332826,488378,22695
1551.88,1.341996,481832,21923
1554.95,1.344669,474989,21479
1558.02,1.336227,467818,21570
1561.08,1.332505,460730,21426
1564.15,1.335599,454170,20971
1568.22,1.335764,444181,20502
1571.27,1.333297,436947,20283
1574.32,1.339412,429598,19663
1577.36,1.336321,422039,19455
1580.4,1.334998,414375,19160
1583.43,1.339065,406354,18614
1586.46,1.329303,398475,18668
1590.49,1.331915,388982,18114
1593.51,1.330831,380708,17773
1596.53,1.330542,372727,17412
1599.54,1.334503,365060,16899
1602.55,1.330898,357543,16689
1605.55,1.334677,349495,16172
1608.55,1.325801,341154,16112
1612.54,1.319062,330877,15871
1615.53,1.324638,322904,15291
1618.51,1.318373,315116,15139
1621.49,1.316714,307217,14816
1624.47,1.323775,299481,14210
1627.44,1.322847,292112,13890
1630.41,1.312369,284245,13846
1634.36,1.311160,274079,13388
1637.32,1.320184,266916,12770
1640.27,1.303399,259612,12910
1643.22,1.314063,251804,12218
1646.16,1.308249,244348,12016
1649.1,1.299058,236703,11889
1652.04,1.305374,228171,11295
1655.95,1.301167,215408,10767
1658.88,1.295590,204937,10376
1661.8,1.292965,193395,9851
1664.72,1.290073,179728,9216
1667.63,1.267099,163642,8847
1670.54,1.248984,146312,8247
1673.44,1.223999,128451,7669
1677.31,1.239406,105080,6055
1680.21,1.181256,88906,5857
1683.1,1.176109,75033,5002
1685.99,1.191718,63520,4085
1688.87,1.200016,53714,3389
1691.75,1.200379,45653,2878
1694.62,1.168850,39137,2653
1697.49,1.205356,33776,2105
1701.31,1.114807,28175,2163

File: Column 1_078432_20241121_170223.csv
Method:,Column 1,,
Host Date-Time:,21/11/24 @ 17:2:23,,
Header Version:,1,,
System Temp (C):,34.69,,
Detector Temp (C):,33.78,,
Humidity (%):,2.05,,
Lamp PD:,3801,,
Shift Vector Coefficients:,-10.5391,0.0761263,-0.000134223,,
Pixel to Wavelength Coefficients:,1775.68,-0.916766,-0.000235065,,
Serial Number:,5510004,,
Scan Config Name:,Column 1,,
Scan Config Type:,Slew,,
Section 1,,
Start wavelength (nm):,900,,
End wavelength (nm):,1700,,
Pattern Pixel Width (nm):,   7.03,,,,
Exposure (ms):,  0.635,,,,
Digital Resolution:,228,,
Num Repeats:,6,,
PGA Gain:,64,,
Total Measurement Time in sec:,  2.725,,
Wavelength (nm),Absorbance (AU),Reference Signal (unitless),Sample Signal (unitless)
901.51,1.310275,108485,5310
905.376,1.321654,121306,5784
909.237,1.316544,131909,6364
913.095,1.316514,143299,6914
916.948,1.334794,156982,7262
922.079,1.321633,179937,8580
925.923,1.336169,200504,9246
929.762,1.323115,222660,10581
933.597,1.317002,244426,11780
937.427,1.322603,263972,12559
941.254,1.330161,281845,13178
945.076,1.318364,297271,14282
950.165,1.308476,315605,15512
953.978,1.323150,328029,15587
957.786,1.323772,340470,16155
961.59,1.304268,352317,17485
965.389,1.299163,363056,18231
969.185,1.311635,373162,18208
972.976,1.315469,382632,18506
976.763,1.310164,391202,19153
981.806,1.311586,400190,19529
985.583,1.308634,406088,19952
989.355,1.307432,410162,20208
993.124,1.313156,412868,20075
996.888,1.313950,414263,20106
1000.65,1.312121,415476,20250
1004.4,1.308132,415479,20437
1009.41,1.313618,414358,20126
1013.15,1.321557,412923,19693
1016.89,1.313107,411526,20012
1020.63,1.311807,409066,19952
1024.36,1.324182,406777,19283
1028.09,1.312970,404427,19673
1031.82,1.314652,401911,19475
1036.78,1.312685,398410,19393
1040.49,1.315750,396204,19150
1044.2,1.301268,394236,19701
1047.91,1.315632,392042,18954
1051.61,1.309880,389823,19098
1055.31,1.315699,388234,18767
1059,1.323164,387599,18417
1063.92,1.312949,386688,18811
1067.61,1.315395,386598,18701
1071.29,1.319018,387377,18583
1074.96,1.318473,388536,18662
1078.63,1.313477,389855,18942
1082.3,1.305981,391215,19339
1085.96,1.318490,393215,18886
1090.84,1.313357,396270,19259
1094.49,1.321638,398760,19014
1098.14,1.320576,400987,19167
1101.79,1.324172,403477,19127
1105.43,1.318861,406116,19489
1109.06,1.321333,407701,19454
1112.7,1.314349,409859,19874
1117.53,1.315736,412494,19938
1121.15,1.319078,414909,19901
1124.77,1.328419,416559,19555
1128.38,1.319614,418532,20050
1131.99,1.321371,419956,20037
1135.6,1.325140,421946,19958
1139.2,1.315532,423881,20498
1143.99,1.319283,426786,20461
1147.58,1.327557,428617,20161
1151.17,1.318908,431169,20689
1154.75,1.319736,433579,20765
1158.33,1.322208,436264,20775
1161.91,1.309571,439132,21529
1165.48,1.320864,442389,21132
1169.04,1.316147,446101,21542
1173.79,1.320858,451929,21588
1177.34,1.323572,456026,21648
1180.9,1.317930,461306,22185
1184.44,1.312031,467657,22798
1187.99,1.321795,473969,22592
1191.52,1.315492,479856,23207
1195.06,1.319890,487372,23333
1199.76,1.328540,497347,23341
1203.29,1.329934,504311,23592
1206.81,1.325988,511507,24147
1210.33,1.326315,519078,24486
1213.84,1.325920,527163,24890
1217.35,1.323664,534208,25354
1220.85,1.326557,540472,25481
1225.51,1.321956,549929,26203
1229.01,1.327052,556888,26225
1232.5,1.320883,562180,26853
1235.98,1.320367,567975,27162
1239.46,1.316876,574815,27711
1242.94,1.322055,582782,27762
1246.41,1.323664,591476,28072
1251.03,1.326402,604016,28487
1254.5,1.327157,612289,28827
1257.96,1.326381,619125,29201
1261.41,1.331585,624551,29106
1264.86,1.328714,629900,29550
1268.31,1.325581,634345,29974
1271.75,1.331389,638574,29773
1276.33,1.328355,642499,30166
1279.76,1.331804,645905,30086
1283.19,1.327381,648307,30507
1286.61,1.326908,650446,30641
1290.03,1.335971,652132,30086
1293.44,1.330008,653907,30585
1296.85,1.332978,655963,30472
1301.39,1.334922,657349,30400
1304.8,1.334104,657558,30467
1308.19,1.339307,658515,30148
1311.58,1.334357,658804,30507
1314.97,1.333029,659011,30610
1318.36,1.330165,658272,30778
1321.73,1.335982,658022,30357
1326.23,1.335624,657870,30375
1329.6,1.339740,656482,30025
1332.97,1.338651,654926,30029
1336.33,1.334527,653727,30260
1339.69,1.332720,652497,30329
1343.04,1.327944,649913,30543
1346.39,1.339681,647671,29626
1349.73,1.331957,645338,30049
1354.18,1.328858,641175,30069
1357.52,1.334093,638376,29579
1360.85,1.335124,635805,29390
1364.17,1.329267,633413,29677
1367.49,1.329651,631026,29539
1370.81,1.335192,628050,29027
1374.12,1.327350,625034,29414
1378.54,1.332572,620272,28841
1381.84,1.329176,616892,28909
1385.14,1.329710,613613,28720
1388.43,1.330474,611526,28572
1391.72,1.330469,610663,28532
1395.01,1.332585,610634,28392
1398.29,1.327886,611700,28751
1402.66,1.333421,614051,28496
1405.93,1.331464,616268,28728
1409.2,1.329121,617795,28955
1412.46,1.331425,618872,28852
1415.72,1.337342,619795,28504
1418.98,1.338153,620495,28483
1422.23,1.329842,621087,29061
1426.56,1.338159,621375,28523
1429.8,1.335776,621616,28691
1433.04,1.334337,622129,28810
1436.27,1.334338,621526,28782
1439.5,1.328175,621113,29174
1442.72,1.340376,620921,28357
1445.94,1.336275,620270,28596
1450.23,1.331206,618860,28866
1453.44,1.332697,617697,28713
1456.64,1.341710,616264,28058
1459.85,1.335264,614413,28392
1463.04,1.338340,612307,28095
1466.24,1.339904,610032,27890
1469.43,1.329628,607345,28432
1473.67,1.338641,603789,27685
1476.85,1.333693,601175,27881
1480.02,1.336925,597737,27516
1483.19,1.338181,594479,27287
1486.36,1.335182,591232,27326
1489.52,1.335723,587853,27136
1492.68,1.341863,583875,26574
1496.89,1.337191,578062,26594
1500.03,1.334036,574159,26607
1503.18,1.336731,570285,26264
1506.32,1.332649,565444,26287
1509.45,1.341274,560571,25548
1512.58,1.337187,555821,25571
1515.71,1.342087,550344,25035
1519.87,1.341169,543983,24798
1522.99,1.337175,538764,24787
1526.1,1.335192,533692,24666
1529.21,1.340933,527902,24078
1532.32,1.336497,521886,24048
1535.42,1.344157,515888,23356
1538.51,1.337601,509987,23440
1541.6,1.338106,503936,23135
1545.72,1.335526,494694,22846
1548.8,1.337811,488378,22436
1551.88,1.335839,481832,22236
1554.95,1.334933,474989,21966
1558.02,1.334980,467818,21632
1561.08,1.340091,460730,21055
1564.15,1.344766,454170,20533
1568.22,1.342058,444181,20207
1571.27,1.339616,436947,19990
1574.32,1.336704,429598,19786
1577.36,1.332587,422039,19623
1580.4,1.332106,414375,19288
1583.43,1.330060,406354,19004
1586.46,1.340330,398475,18200
1590.49,1.334030,388982,18026
1593.51,1.327933,380708,17892
1596.53,1.348518,372727,16706
1599.54,1.326482,365060,17214
1602.55,1.337347,357543,16443
1605.55,1.330109,349495,16343
1608.55,1.331444,341154,15904
1612.54,1.324764,330877,15664
1615.53,1.326231,322904,15235
1618.51,1.328914,315116,14776
1621.49,1.324463,307217,14554
1624.47,1.326473,299481,14122
1627.44,1.313720,292112,14185
1630.41,1.327399,284245,13375
1634.36,1.315594,274079,13252
1637.32,1.323084,266916,12685
1640.27,1.314472,259612,12585
1643.22,1.319463,251804,12067
1646.16,1.319378,244348,11712
1649.1,1.317489,236703,11395
1652.04,1.319481,228171,10934
1655.95,1.317860,215408,10361
1658.88,1.316424,204937,9890
1661.8,1.299674,193395,9700
1664.72,1.282320,179728,9382
1667.63,1.274226,163642,8703
1670.54,1.274021,146312,7785
1673.44,1.260056,128451,7058
1677.31,1.181100,105080,6925
1680.21,1.201908,88906,5585
1683.1,1.174376,75033,5022
1685.99,1.214975,63520,3872
1688.87,1.143500,53714,3860
1691.75,1.171342,45653,3077
1694.62,1.205910,39137,2436
1697.49,1.105035,33776,2652
1701.31,1.273194,28175,1502