Folder: textile_sorting_NIRSCAN_/ML/samples/unknown (part 45)

File: Column 1_078281_20241121_165422.csv
Method:,Column 1,,
Host Date-Time:,21/11/24 @ 16:54:22,,
Header Version:,1,,
System Temp (C):,34.29,,
Detector Temp (C):,32.43,,
Humidity (%):,2.1,,
Lamp PD:,3802,,
Shift Vector Coefficients:,-10.5391,0.0761263,-0.000134223,,
Pixel to Wavelength Coefficients:,1775.68,-0.916766,-0.000235065,,
Serial Number:,5510004,,
Scan Config Name:,Column 1,,
Scan Config Type:,Slew,,
Section 1,,
Start wavelength (nm):,900,,
End wavelength (nm):,1700,,
Pattern Pixel Width (nm):,   7.03,,,,
Exposure (ms):,  0.635,,,,
Digital Resolution:,228,,
Num Repeats:,6,,
PGA Gain:,64,,
Total Measurement Time in sec:,  2.729,,
Wavelength (nm),Absorbance (AU),Reference Signal (unitless),Sample Signal (unitless)
901.51,1.292880,108485,5527
905.376,1.310096,121306,5940
909.237,1.293681,131909,6708
913.095,1.313696,143299,6959
916.948,1.329503,156982,7351
922.079,1.327853,179937,8458
925.923,1.322802,200504,9535
929.762,1.327074,222660,10485
933.597,1.318627,244426,11736
937.427,1.319914,263972,12637
941.254,1.311076,281845,13770
945.076,1.322826,297271,14136
950.165,1.321752,315605,15045
953.978,1.313833,328029,15925
957.786,1.311500,340470,16618
961.59,1.301322,352317,17604
965.389,1.304798,363056,17996
969.185,1.314507,373162,18088
972.976,1.305883,382632,18919
976.763,1.306686,391202,19307
981.806,1.322143,400190,19060
985.583,1.315125,406088,19656
989.355,1.302007,410162,20462
993.124,1.313719,412868,20049
996.888,1.309866,414263,20296
1000.65,1.314810,415476,20125
1004.4,1.312832,415479,20217
1009.41,1.299479,414358,20792
1013.15,1.310410,412923,20205
1016.89,1.308380,411526,20231
1020.63,1.309246,409066,20070
1024.36,1.302438,406777,20273
1028.09,1.317117,404427,19486
1031.82,1.306326,401911,19852
1036.78,1.312797,398410,19388
1040.49,1.308575,396204,19469
1044.2,1.308403,394236,19380
1047.91,1.311595,392042,19131
1051.61,1.317750,389823,18755
1055.31,1.312081,388234,18924
1059,1.314548,387599,18786
1063.92,1.308676,386688,18997
1067.61,1.305091,386598,19150
1071.29,1.312569,387377,18861
1074.96,1.310244,388536,19019
1078.63,1.312744,389855,18974
1082.3,1.308030,391215,19248
1085.96,1.314576,393215,19057
1090.84,1.316594,396270,19116
1094.49,1.316958,398760,19220
1098.14,1.313118,400987,19499
1101.79,1.309263,403477,19795
1105.43,1.313633,406116,19725
1109.06,1.318862,407701,19565
1112.7,1.315115,409859,19839
1117.53,1.314084,412494,20014
1121.15,1.308834,414909,20376
1124.77,1.310835,416559,20363
1128.38,1.317346,418532,20155
1131.99,1.316843,419956,20247
1135.6,1.324488,421946,19988
1139.2,1.314855,423881,20530
1143.99,1.318499,426786,20498
1147.58,1.324531,428617,20302
1151.17,1.317629,431169,20750
1154.75,1.321119,433579,20699
1158.33,1.315549,436264,21096
1161.91,1.315441,439132,21240
1165.48,1.317976,442389,21273
1169.04,1.325068,446101,21104
1173.79,1.317092,451929,21776
1177.34,1.321251,456026,21764
1180.9,1.315100,461306,22330
1184.44,1.315243,467657,22630
1187.99,1.315573,473969,22918
1191.52,1.317010,479856,23126
1195.06,1.315796,487372,23554
1199.76,1.317644,497347,23934
1203.29,1.323248,504311,23958
1206.81,1.326528,511507,24117
1210.33,1.327558,519078,24416
1213.84,1.318824,527163,25300
1217.35,1.322654,534208,25413
1220.85,1.325637,540472,25535
1225.51,1.329445,549929,25755
1229.01,1.321801,556888,26544
1232.5,1.325664,562180,26559
1235.98,1.325353,567975,26852
1239.46,1.318116,574815,27632
1242.94,1.320868,582782,27838
1246.41,1.328486,591476,27762
1251.03,1.323046,604016,28708
1254.5,1.333913,612289,28382
1257.96,1.322177,619125,29485
1261.41,1.321133,624551,29815
1264.86,1.325216,629900,29789
1268.31,1.326916,634345,29882
1271.75,1.324443,638574,30253
1276.33,1.329883,642499,30060
1279.76,1.327124,645905,30412
1283.19,1.329894,648307,30331
1286.61,1.332629,650446,30240
1290.03,1.333452,652132,30261
1293.44,1.328024,653907,30725
1296.85,1.337880,655963,30130
1301.39,1.330191,657349,30733
1304.8,1.327358,657558,30944
1308.19,1.327512,658515,30978
1311.58,1.331137,658804,30734
1314.97,1.331471,659011,30720
1318.36,1.333650,658272,30532
1321.73,1.339212,658022,30132
1326.23,1.330323,657870,30748
1329.6,1.332724,656482,30514
1332.97,1.329026,654926,30702
1336.33,1.331367,653727,30481
1339.69,1.334327,652497,30217
1343.04,1.334736,649913,30069
1346.39,1.328624,647671,30390
1349.73,1.328273,645338,30305
1354.18,1.332891,641175,29791
1357.52,1.330423,638376,29830
1360.85,1.329618,635805,29765
1364.17,1.331747,633413,29508
1367.49,1.324827,631026,29869
1370.81,1.328924,628050,29449
1374.12,1.333431,625034,29005
1378.54,1.328421,620272,29118
1381.84,1.323742,616892,29273
1385.14,1.323703,613613,29120
1388.43,1.330748,611526,28554
1391.72,1.328389,610663,28669
1395.01,1.328005,610634,28693
1398.29,1.327116,611700,28802
1402.66,1.325477,614051,29022
1405.93,1.330287,616268,28806
1409.2,1.331196,617795,28817
1412.46,1.328036,618872,29078
1415.72,1.329715,619795,29009
1418.98,1.334629,620495,28715
1422.23,1.329334,621087,29095
1426.56,1.333148,621375,28854
1429.8,1.332925,621616,28880
1433.04,1.332487,622129,28933
1436.27,1.329611,621526,29097
1439.5,1.334941,621113,28723
1442.72,1.333116,620921,28835
1445.94,1.337203,620270,28535
1450.23,1.335409,618860,28588
1453.44,1.333575,617697,28655
1456.64,1.340412,616264,28142
1459.85,1.333585,614413,28502
1463.04,1.337028,612307,28180
1466.24,1.336353,610032,28119
1469.43,1.338080,607345,27884
1473.67,1.336903,603789,27796
1476.85,1.339210,601175,27529
1480.02,1.334297,597737,27683
1483.19,1.333369,594479,27591
1486.36,1.335039,591232,27335
1489.52,1.338275,587853,26977
1492.68,1.333319,583875,27102
1496.89,1.338434,578062,26518
1500.03,1.334706,574159,26566
1503.18,1.341035,570285,26005
1506.32,1.343404,565444,25644
1509.45,1.338073,560571,25737
1512.58,1.338855,555821,25473
1515.71,1.336776,550344,25343
1519.87,1.336500,543983,25066
1522.99,1.335129,538764,24904
1526.1,1.341774,533692,24295
1529.21,1.345830,527902,23808
1532.32,1.345400,521886,23560
1535.42,1.337258,515888,23730
1538.51,1.335365,509987,23561
1541.6,1.331474,503936,23491
1545.72,1.337126,494694,22762
1548.8,1.334033,488378,22632
1551.88,1.339625,481832,22043
1554.95,1.334300,474989,21998
1558.02,1.337013,467818,21531
1561.08,1.327287,460730,21685
1564.15,1.329798,454170,21253
1568.22,1.334748,444181,20550
1571.27,1.338033,436947,20063
1574.32,1.342071,429598,19543
1577.36,1.327351,422039,19861
1580.4,1.338960,414375,18986
1583.43,1.330997,406354,18963
1586.46,1.332151,398475,18546
1590.49,1.329977,388982,18195
1593.51,1.325030,380708,18012
1596.53,1.336241,372727,17185
1599.54,1.336977,365060,16803
1602.55,1.333142,357543,16603
1605.55,1.325694,349495,16510
1608.55,1.320710,341154,16302
1612.54,1.330738,330877,15450
1615.53,1.321355,322904,15407
1618.51,1.326335,315116,14864
1621.49,1.323449,307217,14588
1624.47,1.313984,299481,14534
1627.44,1.319514,292112,13997
1630.41,1.320729,284245,13582
1634.36,1.312915,274079,13334
1637.32,1.316695,266916,12873
1640.27,1.302693,259612,12931
1643.22,1.305579,251804,12459
1646.16,1.316974,244348,11777
1649.1,1.313506,236703,11500
1652.04,1.309586,228171,11186
1655.95,1.299999,215408,10796
1658.88,1.296680,204937,10350
1661.8,1.275594,193395,10253
1664.72,1.267531,179728,9707
1667.63,1.257630,163642,9042
1670.54,1.265295,146312,7943
1673.44,1.218261,128451,7771
1677.31,1.220460,105080,6325
1680.21,1.175218,88906,5939
1683.1,1.216955,75033,4553
1685.99,1.192889,63520,4074
1688.87,1.168390,53714,3645
1691.75,1.183363,45653,2993
1694.62,1.162190,39137,2694
1697.49,1.187372,33776,2194
1701.31,1.264605,28175,1532

File: Column 1_078284_20241121_165431.csv
Method:,Column 1,,
Host Date-Time:,21/11/24 @ 16:54:31,,
Header Version:,1,,
System Temp (C):,34.27,,
Detector Temp (C):,32.55,,
Humidity (%):,2.15,,
Lamp PD:,3803,,
Shift Vector Coefficients:,-10.5391,0.0761263,-0.000134223,,
Pixel to Wavelength Coefficients:,1775.68,-0.916766,-0.000235065,,
Serial Number:,5510004,,
Scan Config Name:,Column 1,,
Scan Config Type:,Slew,,
Section 1,,
Start wavelength (nm):,900,,
End wavelength (nm):,1700,,
Pattern Pixel Width (nm):,   7.03,,,,
Exposure (ms):,  0.635,,,,
Digital Resolution:,228,,
Num Repeats:,6,,
PGA Gain:,64,,
Total Measurement Time in sec:,  2.727,,
Wavelength (nm),Absorbance (AU),Reference Signal (unitless),Sample Signal (unitless)
901.51,1.322383,108485,5164
905.376,1.339198,121306,5555
909.237,1.303106,131909,6564
913.095,1.318150,143299,6888
916.948,1.338819,156982,7195
922.079,1.327596,179937,8463
925.923,1.303907,200504,9959
929.762,1.341390,222660,10145
933.597,1.314099,244426,11859
937.427,1.327087,263972,12430
941.254,1.324171,281845,13361
945.076,1.311665,297271,14504
950.165,1.316159,315605,15240
953.978,1.313724,328029,15929
957.786,1.313806,340470,16530
961.59,1.317226,352317,16971
965.389,1.315919,363056,17541
969.185,1.305289,373162,18476
972.976,1.318412,382632,18381
976.763,1.314425,391202,18966
981.806,1.298401,400190,20131
985.583,1.307286,406088,20014
989.355,1.310993,410162,20043
993.124,1.309944,412868,20224
996.888,1.313325,414263,20135
1000.65,1.309470,415476,20374
1004.4,1.307580,415479,20463
1009.41,1.312864,414358,20161
1013.15,1.304539,412923,20480
1016.89,1.314868,411526,19931
1020.63,1.316534,409066,19736
1024.36,1.309261,406777,19957
1028.09,1.309014,404427,19853
1031.82,1.315970,401911,19416
1036.78,1.314121,398410,19329
1040.49,1.308196,396204,19486
1044.2,1.312003,394236,19220
1047.91,1.309534,392042,19222
1051.61,1.312160,389823,18998
1055.31,1.315884,388234,18759
1059,1.310224,387599,18974
1063.92,1.314359,386688,18750
1067.61,1.315743,386598,18686
1071.29,1.312408,387377,18868
1074.96,1.322048,388536,18509
1078.63,1.317508,389855,18767
1082.3,1.317358,391215,18839
1085.96,1.314029,393215,19081
1090.84,1.318119,396270,19049
1094.49,1.312597,398760,19414
1098.14,1.313029,400987,19503
1101.79,1.320126,403477,19306
1105.43,1.321543,406116,19369
1109.06,1.316206,407701,19685
1112.7,1.317309,409859,19739
1117.53,1.315692,412494,19940
1121.15,1.319122,414909,19899
1124.77,1.322573,416559,19820
1128.38,1.325986,418532,19758
1131.99,1.323958,419956,19918
1135.6,1.319605,421946,20214
1139.2,1.320948,423881,20244
1143.99,1.314408,426786,20692
1147.58,1.314361,428617,20783
1151.17,1.327794,431169,20270
1154.75,1.322443,433579,20636
1158.33,1.316435,436264,21053
1161.91,1.325724,439132,20743
1165.48,1.324745,442389,20944
1169.04,1.314035,446101,21647
1173.79,1.315023,451929,21880
1177.34,1.312031,456026,22231
1180.9,1.319125,461306,22124
1184.44,1.317282,467657,22524
1187.99,1.317644,473969,22809
1191.52,1.322776,479856,22821
1195.06,1.325868,487372,23014
1199.76,1.320978,497347,23751
1203.29,1.323339,504311,23953
1206.81,1.328315,511507,24018
1210.33,1.321535,519078,24757
1213.84,1.323085,527163,25053
1217.35,1.318809,534208,25639
1220.85,1.325756,540472,25528
1225.51,1.327577,549929,25866
1229.01,1.329277,556888,26091
1232.5,1.322958,562180,26725
1235.98,1.325062,567975,26870
1239.46,1.327136,574815,27064
1242.94,1.324613,582782,27599
1246.41,1.324578,591476,28013
1251.03,1.324075,604016,28640
1254.5,1.329256,612289,28688
1257.96,1.325430,619125,29265
1261.41,1.326468,624551,29451
1264.86,1.326837,629900,29678
1268.31,1.326916,634345,29882
1271.75,1.335816,638574,29471
1276.33,1.326287,642499,30310
1279.76,1.328970,645905,30283
1283.19,1.331371,648307,30228
1286.61,1.332385,650446,30257
1290.03,1.335221,652132,30138
1293.44,1.327417,653907,30768
1296.85,1.332793,655963,30485
1301.39,1.332330,657349,30582
1304.8,1.332511,657558,30579
1308.19,1.329663,658515,30825
1311.58,1.332964,658804,30605
1314.97,1.325476,659011,31147
1318.36,1.329390,658272,30833
1321.73,1.334582,658022,30455
1326.23,1.333997,657870,30489
1329.6,1.336555,656482,30246
1332.97,1.326346,654926,30892
1336.33,1.333109,653727,30359
1339.69,1.335435,652497,30140
1343.04,1.335213,649913,30036
1346.39,1.331161,647671,30213
1349.73,1.326999,645338,30394
1354.18,1.328078,641175,30123
1357.52,1.323992,638376,30275
1360.85,1.329968,635805,29741
1364.17,1.329384,633413,29669
1367.49,1.329269,631026,29565
1370.81,1.333430,628050,29145
1374.12,1.329318,625034,29281
1378.54,1.330049,620272,29009
1381.84,1.326764,616892,29070
1385.14,1.333889,613613,28445
1388.43,1.327641,611526,28759
1391.72,1.321372,610663,29136
1395.01,1.326841,610634,28770
1398.29,1.329778,611700,28626
1402.66,1.323864,614051,29130
1405.93,1.328616,616268,28917
1409.2,1.333417,617795,28670
1412.46,1.326292,618872,29195
1415.72,1.332886,619795,28798
1418.98,1.334040,620495,28754
1422.23,1.334469,621087,28753
1426.56,1.343120,621375,28199
1429.8,1.328496,621616,29176
1433.04,1.334156,622129,28822
1436.27,1.332021,621526,28936
1439.5,1.332694,621113,28872
1442.72,1.332469,620921,28878
1445.94,1.335153,620270,28670
1450.23,1.332019,618860,28812
1453.44,1.337213,617697,28416
1456.64,1.336234,616264,28414
1459.85,1.339213,614413,28135
1463.04,1.329511,612307,28672
1466.24,1.337621,610032,28037
1469.43,1.342133,607345,27625
1473.67,1.338986,603789,27663
1476.85,1.337903,601175,27612
1480.02,1.341335,597737,27238
1483.19,1.340063,594479,27169
1486.36,1.341715,591232,26918
1489.52,1.330015,587853,27495
1492.68,1.334779,583875,27011
1496.89,1.339582,578062,26448
1500.03,1.339275,574159,26288
1503.18,1.341052,570285,26004
1506.32,1.341461,565444,25759
1509.45,1.337870,560571,25749
1512.58,1.334057,555821,25756
1515.71,1.336793,550344,25342
1519.87,1.342519,543983,24721
1522.99,1.340428,538764,24602
1526.1,1.336886,533692,24570
1529.21,1.339474,527902,24159
1532.32,1.338651,521886,23929
1535.42,1.339055,515888,23632
1538.51,1.332152,509987,23736
1541.6,1.338162,503936,23132
1545.72,1.337546,494694,22740
1548.8,1.349086,488378,21861
1551.88,1.335702,481832,22243
1554.95,1.337709,474989,21826
1558.02,1.345753,467818,21102
1561.08,1.331554,460730,21473
1564.15,1.337821,454170,20864
1568.22,1.331044,444181,20726
1571.27,1.334154,436947,20243
1574.32,1.337341,429598,19757
1577.36,1.336634,422039,19441
1580.4,1.333911,414375,19208
1583.43,1.337342,406354,18688
1586.46,1.339210,398475,18247
1590.49,1.326199,388982,18354
1593.51,1.324331,380708,18041
1596.53,1.328303,372727,17502
1599.54,1.332785,365060,16966
1602.55,1.334609,357543,16547
1605.55,1.329658,349495,16360
1608.55,1.325801,341154,16112
1612.54,1.331076,330877,15438
1615.53,1.323503,322904,15331
1618.51,1.313183,315116,15321
1621.49,1.326707,307217,14479
1624.47,1.326104,299481,14134
1627.44,1.329368,292112,13683
1630.41,1.332691,284245,13213
1634.36,1.314547,274079,13284
1637.32,1.315415,266916,12911
1640.27,1.320658,259612,12407
1643.22,1.319643,251804,12062
1646.16,1.318785,244348,11728
1649.1,1.321087,236703,11301
1652.04,1.305144,228171,11301
1655.95,1.317525,215408,10369
1658.88,1.306097,204937,10128
1661.8,1.302503,193395,9637
1664.72,1.271983,179728,9608
1667.63,1.267541,163642,8838
1670.54,1.258837,146312,8062
1673.44,1.240563,128451,7382
1677.31,1.215001,105080,6405
1680.21,1.210071,88906,5481
1683.1,1.195824,75033,4780
1685.99,1.228532,63520,3753
1688.87,1.158146,53714,3732
1691.75,1.214644,45653,2785
1694.62,1.264208,39137,2130
1697.49,1.178554,33776,2239
1701.31,1.222491,28175,1688

File: Column 1_078288_20241121_165443.csv
Method:,Column 1,,
Host Date-Time:,21/11/24 @ 16:54:43,,
Header Version:,1,,
System Temp (C):,34.36,,
Detector Temp (C):,32.53,,
Humidity (%):,2.25,,
Lamp PD:,3802,,
Shift Vector Coefficients:,-10.5391,0.0761263,-0.000134223,,
Pixel to Wavelength Coefficients:,1775.68,-0.916766,-0.000235065,,
Serial Number:,5510004,,
Scan Config Name:,Column 1,,
Scan Config Type:,Slew,,
Section 1,,
Start wavelength (nm):,900,,
End wavelength (nm):,1700,,
Pattern Pixel Width (nm):,   7.03,,,,
Exposure (ms):,  0.635,,,,
Digital Resolution:,228,,
Num Repeats:,6,,
PGA Gain:,64,,
Total Measurement Time in sec:,  2.725,,
Wavelength (nm),Absorbance (AU),Reference Signal (unitless),Sample Signal (unitless)
901.51,1.335966,108485,5005
905.376,1.311341,121306,5923
909.237,1.315182,131909,6384
913.095,1.313509,143299,6962
916.948,1.342639,156982,7132
922.079,1.330893,179937,8399
925.923,1.312495,200504,9764
929.762,1.332241,222660,10361
933.597,1.328963,244426,11460
937.427,1.321429,263972,12593
941.254,1.319773,281845,13497
945.076,1.323749,297271,14106
950.165,1.310131,315605,15453
953.978,1.322732,328029,15602
957.786,1.319998,340470,16296
961.59,1.314904,352317,17062
965.389,1.308822,363056,17830
969.185,1.303741,373162,18542
972.976,1.309456,382632,18764
976.763,1.311004,391202,19116
981.806,1.312722,400190,19478
985.583,1.299075,406088,20396
989.355,1.314736,410162,19871
993.124,1.312378,412868,20111
996.888,1.313044,414263,20148
1000.65,1.305122,415476,20579
1004.4,1.306478,415479,20515
1009.41,1.304754,414358,20541
1013.15,1.309423,412923,20251
1016.89,1.318654,411526,19758
1020.63,1.310416,409066,20016
1024.36,1.308088,406777,20011
1028.09,1.312528,404427,19693
1031.82,1.305102,401911,19908
1036.78,1.311924,398410,19427
1040.49,1.315161,396204,19176
1044.2,1.310334,394236,19294
1047.91,1.309263,392042,19234
1051.61,1.313006,389823,18961
1055.31,1.309997,388234,19015
1059,1.314132,387599,18804
1063.92,1.323441,386688,18362
1067.61,1.310614,386598,18908
1071.29,1.321314,387377,18485
1074.96,1.319335,388536,18625
1078.63,1.308961,389855,19140
1082.3,1.316276,391215,18886
1085.96,1.305398,393215,19464
1090.84,1.321713,396270,18892
1094.49,1.314727,398760,19319
1098.14,1.318091,400987,19277
1101.79,1.315339,403477,19520
1105.43,1.321498,406116,19371
1109.06,1.325888,407701,19251
1112.7,1.322288,409859,19514
1117.53,1.320555,412494,19718
1121.15,1.320827,414909,19821
1124.77,1.320911,416559,19896
1128.38,1.313677,418532,20326
1131.99,1.312638,419956,20444
1135.6,1.314160,421946,20469
1139.2,1.319833,423881,20296
1143.99,1.319538,426786,20449
1147.58,1.316666,428617,20673
1151.17,1.322555,431169,20516
1154.75,1.329786,433579,20290
1158.33,1.314316,436264,21156
1161.91,1.323406,439132,20854
1165.48,1.318200,442389,21262
1169.04,1.318817,446101,21410
1173.79,1.321966,451929,21533
1177.34,1.325280,456026,21563
1180.9,1.322832,461306,21936
1184.44,1.323320,467657,22213
1187.99,1.320452,473969,22662
1191.52,1.328003,479856,22548
1195.06,1.322935,487372,23170
1199.76,1.325185,497347,23522
1203.29,1.328207,504311,23686
1206.81,1.327827,511507,24045
1210.33,1.320693,519078,24805
1213.84,1.323988,527163,25001
1217.35,1.334627,534208,24722
1220.85,1.321002,540472,25809
1225.51,1.318390,549929,26419
1229.01,1.321507,556888,26562
1232.5,1.318560,562180,26997
1235.98,1.320543,567975,27151
1239.46,1.320243,574815,27497
1242.94,1.321680,582782,27786
1246.41,1.323447,591476,28086
1251.03,1.325397,604016,28553
1254.5,1.322243,612289,29155
1257.96,1.323387,619125,29403
1261.41,1.328049,624551,29344
1264.86,1.329450,629900,29500
1268.31,1.327949,634345,29811
1271.75,1.329671,638574,29891
1276.33,1.329580,642499,30081
1279.76,1.330449,645905,30180
1283.19,1.327168,648307,30522
1286.61,1.328911,650446,30500
1290.03,1.334156,652132,30212
1293.44,1.325754,653907,30886
1296.85,1.331470,655963,30578
1301.39,1.330544,657349,30708
1304.8,1.333805,657558,30488
1308.19,1.334408,658515,30490
1311.58,1.328938,658804,30890
1314.97,1.332023,659011,30681
1318.36,1.331890,658272,30656
1321.73,1.334667,658022,30449
1326.23,1.335681,657870,30371
1329.6,1.334064,656482,30420
1332.97,1.325546,654926,30949
1336.33,1.332866,653727,30376
1339.69,1.328191,652497,30647
1343.04,1.333453,649913,30158
1346.39,1.333467,647671,30053
1349.73,1.330644,645338,30140
1354.18,1.326538,641175,30230
1357.52,1.326178,638376,30123
1360.85,1.335316,635805,29377
1364.17,1.328229,633413,29748
1367.49,1.333209,631026,29298
1370.81,1.329174,628050,29432
1374.12,1.331727,625034,29119
1378.54,1.330544,620272,28976
1381.84,1.328051,616892,28984
1385.14,1.329937,613613,28705
1388.43,1.324841,611526,28945
1391.72,1.328450,610663,28665
1395.01,1.329856,610634,28571
1398.29,1.330537,611700,28576
1402.66,1.333878,614051,28466
1405.93,1.334164,616268,28550
1409.2,1.332766,617795,28713
1412.46,1.335235,618872,28600
1415.72,1.334563,619795,28687
1418.98,1.333980,620495,28758
1422.23,1.332630,621087,28875
1426.56,1.334580,621375,28759
1429.8,1.337870,621616,28553
1433.04,1.335923,622129,28705
1436.27,1.334535,621526,28769
1439.5,1.343600,621113,28156
1442.72,1.331913,620921,28915
1445.94,1.336671,620270,28570
1450.23,1.334665,618860,28637
1453.44,1.333878,617697,28635
1456.64,1.332233,616264,28677
1459.85,1.340017,614413,28083
1463.04,1.334141,612307,28368
1466.24,1.340340,610032,27862
1469.43,1.338205,607345,27876
1473.67,1.342264,603789,27455
1476.85,1.337416,601175,27643
1480.02,1.334313,597737,27682
1483.19,1.332143,594479,27669
1486.36,1.338933,591232,27091
1489.52,1.340195,587853,26858
1492.68,1.334153,583875,27050
1496.89,1.344337,578062,26160
1500.03,1.331465,574159,26765
1503.18,1.333240,570285,26476
1506.32,1.339174,565444,25895
1509.45,1.343677,560571,25407
1512.58,1.335814,555821,25652
1515.71,1.338442,550344,25246
1519.87,1.341029,543983,24806
1522.99,1.342073,538764,24509
1526.1,1.335932,533692,24624
1529.21,1.340735,527902,24089
1532.32,1.338270,521886,23950
1535.42,1.339000,515888,23635
1538.51,1.337009,509987,23472
1541.6,1.330182,503936,23561
1545.72,1.330311,494694,23122
1548.8,1.321605,488378,23289
1551.88,1.338248,481832,22113
1554.95,1.334083,474989,22009
1558.02,1.323822,467818,22195
1561.08,1.338835,460730,21116
1564.15,1.336802,454170,20913
1568.22,1.334220,444181,20575
1571.27,1.334669,436947,20219
1574.32,1.337407,429598,19754
1577.36,1.340877,422039,19252
1580.4,1.328228,414375,19461
1583.43,1.333455,406354,18856
1586.46,1.331870,398475,18558
1590.49,1.333982,388982,18028
1593.51,1.328370,380708,17874
1596.53,1.328378,372727,17499
1599.54,1.321815,365060,17400
1602.55,1.327476,357543,16821
1605.55,1.325799,349495,16506
1608.55,1.330926,341154,15923
1612.54,1.326152,330877,15614
1615.53,1.315587,322904,15613
1618.51,1.322988,315116,14979
1621.49,1.318771,307217,14746
1624.47,1.325367,299481,14158
1627.44,1.313751,292112,14184
1630.41,1.299452,284245,14264
1634.36,1.319247,274079,13141
1637.32,1.321956,266916,12718
1640.27,1.318981,259612,12455
1643.22,1.325114,251804,11911
1646.16,1.320752,244348,11675
1649.1,1.324869,236703,11203
1652.04,1.292307,228171,11640
1655.95,1.306688,215408,10631
1658.88,1.289440,204937,10524
1661.8,1.275044,193395,10266
1664.72,1.277991,179728,9476
1667.63,1.276226,163642,8663
1670.54,1.252049,146312,8189
1673.44,1.258950,128451,7076
1677.31,1.186020,105080,6847
1680.21,1.216457,88906,5401
1683.1,1.192476,75033,4817
1685.99,1.234944,63520,3698
1688.87,1.218338,53714,3249
1691.75,1.266772,45653,2470
1694.62,1.193433,39137,2507
1697.49,1.215585,33776,2056
1701.31,1.266025,28175,1527