Folder: textile_sorting_NIRSCAN_/ML/samples/unknown (part 34)

File: Column 1_078220_20241121_165122.csv
Method:,Column 1,,
Host Date-Time:,21/11/24 @ 16:51:22,,
Header Version:,1,,
System Temp (C):,34.07,,
Detector Temp (C):,31.16,,
Humidity (%):,3.18,,
Lamp PD:,3803,,
Shift Vector Coefficients:,-10.5391,0.0761263,-0.000134223,,
Pixel to Wavelength Coefficients:,1775.68,-0.916766,-0.000235065,,
Serial Number:,5510004,,
Scan Config Name:,Column 1,,
Scan Config Type:,Slew,,
Section 1,,
Start wavelength (nm):,900,,
End wavelength (nm):,1700,,
Pattern Pixel Width (nm):,   7.03,,,,
Exposure (ms):,  0.635,,,,
Digital Resolution:,228,,
Num Repeats:,6,,
PGA Gain:,64,,
Total Measurement Time in sec:,  2.728,,
Wavelength (nm),Absorbance (AU),Reference Signal (unitless),Sample Signal (unitless)
901.51,1.301370,108485,5420
905.376,1.327931,121306,5701
909.237,1.336585,131909,6077
913.095,1.334664,143299,6631
916.948,1.335811,156982,7245
922.079,1.326213,179937,8490
925.923,1.335700,200504,9256
929.762,1.326618,222660,10496
933.597,1.334915,244426,11304
937.427,1.323641,263972,12529
941.254,1.327401,281845,13262
945.076,1.326745,297271,14009
950.165,1.308084,315605,15526
953.978,1.305915,328029,16218
957.786,1.317420,340470,16393
961.59,1.312037,352317,17175
965.389,1.317730,363056,17468
969.185,1.312949,373162,18153
972.976,1.303662,382632,19016
976.763,1.319099,391202,18763
981.806,1.310587,400190,19574
985.583,1.313735,406088,19719
989.355,1.314081,410162,19901
993.124,1.310052,412868,20219
996.888,1.317442,414263,19945
1000.65,1.318124,415476,19972
1004.4,1.306139,415479,20531
1009.41,1.312928,414358,20158
1013.15,1.307796,412923,20327
1016.89,1.320328,411526,19682
1020.63,1.303016,409066,20360
1024.36,1.308957,406777,19971
1028.09,1.305333,404427,20022
1031.82,1.314162,401911,19497
1036.78,1.315494,398410,19268
1040.49,1.315909,396204,19143
1044.2,1.319294,394236,18900
1047.91,1.315403,392042,18964
1051.61,1.316687,389823,18801
1055.31,1.313782,388234,18850
1059,1.311163,387599,18933
1063.92,1.313711,386688,18778
1067.61,1.313541,386598,18781
1071.29,1.315735,387377,18724
1074.96,1.312625,388536,18915
1078.63,1.314671,389855,18890
1082.3,1.314440,391215,18966
1085.96,1.320334,393215,18806
1090.84,1.315460,396270,19166
1094.49,1.321867,398760,19004
1098.14,1.318497,400987,19259
1101.79,1.313696,403477,19594
1105.43,1.323138,406116,19298
1109.06,1.308401,407701,20042
1112.7,1.326425,409859,19329
1117.53,1.322851,412494,19614
1121.15,1.314930,414909,20092
1124.77,1.313659,416559,20231
1128.38,1.320200,418532,20023
1131.99,1.326561,419956,19799
1135.6,1.327059,421946,19870
1139.2,1.321527,423881,20217
1143.99,1.318181,426786,20513
1147.58,1.326396,428617,20215
1151.17,1.324294,431169,20434
1154.75,1.319402,433579,20781
1158.33,1.316621,436264,21044
1161.91,1.328391,439132,20616
1165.48,1.321934,442389,21080
1169.04,1.313134,446101,21692
1173.79,1.326528,451929,21308
1177.34,1.316429,456026,22007
1180.9,1.319754,461306,22092
1184.44,1.320067,467657,22380
1187.99,1.318902,473969,22743
1191.52,1.326522,479856,22625
1195.06,1.316091,487372,23538
1199.76,1.322737,497347,23655
1203.29,1.315736,504311,24376
1206.81,1.321818,511507,24380
1210.33,1.328520,519078,24362
1213.84,1.330110,527163,24651
1217.35,1.327380,534208,25138
1220.85,1.324279,540472,25615
1225.51,1.320301,549929,26303
1229.01,1.326672,556888,26248
1232.5,1.318930,562180,26974
1235.98,1.327347,567975,26729
1239.46,1.330325,574815,26866
1242.94,1.328708,582782,27340
1246.41,1.321950,591476,28183
1251.03,1.325655,604016,28536
1254.5,1.332355,612289,28484
1257.96,1.327497,619125,29126
1261.41,1.332422,624551,29050
1264.86,1.328670,629900,29553
1268.31,1.327731,634345,29826
1271.75,1.335110,638574,29519
1276.33,1.330664,642499,30006
1279.76,1.331270,645905,30123
1283.19,1.332105,648307,30177
1286.61,1.329310,650446,30472
1290.03,1.324602,652132,30884
1293.44,1.329894,653907,30593
1296.85,1.330449,655963,30650
1301.39,1.339374,657349,30090
1304.8,1.333193,657558,30531
1308.19,1.327386,658515,30987
1311.58,1.336354,658804,30367
1314.97,1.332958,659011,30615
1318.36,1.335403,658272,30409
1321.73,1.334325,658022,30473
1326.23,1.335967,657870,30351
1329.6,1.334392,656482,30397
1332.97,1.334764,654926,30299
1336.33,1.332995,653727,30367
1339.69,1.336301,652497,30080
1343.04,1.337344,649913,29889
1346.39,1.329496,647671,30329
1349.73,1.334479,645338,29875
1354.18,1.331480,641175,29888
1357.52,1.333096,638376,29647
1360.85,1.330261,635805,29721
1364.17,1.332071,633413,29486
1367.49,1.328228,631026,29636
1370.81,1.327554,628050,29542
1374.12,1.327379,625034,29412
1378.54,1.338653,620272,28440
1381.84,1.326570,616892,29083
1385.14,1.333919,613613,28443
1388.43,1.327339,611526,28779
1391.72,1.322626,610663,29052
1395.01,1.325259,610634,28875
1398.29,1.328823,611700,28689
1402.66,1.332431,614051,28561
1405.93,1.333814,616268,28573
1409.2,1.331542,617795,28794
1412.46,1.328993,618872,29014
1415.72,1.338655,619795,28418
1418.98,1.335993,620495,28625
1422.23,1.335861,621087,28661
1426.56,1.336244,621375,28649
1429.8,1.333211,621616,28861
1433.04,1.333539,622129,28863
1436.27,1.337823,621526,28552
1439.5,1.337428,621113,28559
1442.72,1.334444,620921,28747
1445.94,1.338880,620270,28425
1450.23,1.336702,618860,28503
1453.44,1.340003,617697,28234
1456.64,1.331991,616264,28693
1459.85,1.336015,614413,28343
1463.04,1.333467,612307,28412
1466.24,1.337373,610032,28053
1469.43,1.336417,607345,27991
1473.67,1.338970,603789,27664
1476.85,1.332153,601175,27980
1480.02,1.334423,597737,27675
1483.19,1.337020,594479,27360
1486.36,1.331006,591232,27590
1489.52,1.334572,587853,27208
1492.68,1.342632,583875,26527
1496.89,1.342647,578062,26262
1500.03,1.336886,574159,26433
1503.18,1.334949,570285,26372
1506.32,1.335716,565444,26102
1509.45,1.340492,560571,25594
1512.58,1.334782,555821,25713
1515.71,1.342295,550344,25023
1519.87,1.341817,543983,24761
1522.99,1.337367,538764,24776
1526.1,1.346537,533692,24030
1529.21,1.333529,527902,24492
1532.32,1.339760,521886,23868
1535.42,1.334648,515888,23873
1538.51,1.337842,509987,23427
1541.6,1.337337,503936,23176
1545.72,1.345448,494694,22330
1548.8,1.339051,488378,22372
1551.88,1.331041,481832,22483
1554.95,1.336339,474989,21895
1558.02,1.341718,467818,21299
1561.08,1.335822,460730,21263
1564.15,1.340389,454170,20741
1568.22,1.345619,444181,20042
1571.27,1.338704,436947,20032
1574.32,1.339236,429598,19671
1577.36,1.339480,422039,19314
1580.4,1.338115,414375,19023
1583.43,1.331892,406354,18924
1586.46,1.339138,398475,18250
1590.49,1.338632,388982,17836
1593.51,1.346252,380708,17153
1596.53,1.344070,372727,16878
1599.54,1.330997,365060,17036
1602.55,1.323954,357543,16958
1605.55,1.336804,349495,16093
1608.55,1.337854,341154,15671
1612.54,1.333077,330877,15367
1615.53,1.324638,322904,15291
1618.51,1.333078,315116,14635
1621.49,1.324105,307217,14566
1624.47,1.321763,299481,14276
1627.44,1.328512,292112,13710
1630.41,1.338582,284245,13035
1634.36,1.326580,274079,12921
1637.32,1.320864,266916,12750
1640.27,1.318702,259612,12463
1643.22,1.340969,251804,11484
1646.16,1.301080,244348,12216
1649.1,1.329468,236703,11085
1652.04,1.322351,228171,10862
1655.95,1.305179,215408,10668
1658.88,1.299163,204937,10291
1661.8,1.275933,193395,10245
1664.72,1.310726,179728,8788
1667.63,1.274775,163642,8692
1670.54,1.258568,146312,8067
1673.44,1.260056,128451,7058
1677.31,1.241707,105080,6023
1680.21,1.263368,88906,4848
1683.1,1.253142,75033,4189
1685.99,1.251583,63520,3559
1688.87,1.229851,53714,3164
1691.75,1.242330,45653,2613
1694.62,1.154362,39137,2743
1697.49,1.157540,33776,2350
1701.31,1.189077,28175,1823

File: Column 1_078222_20241121_165128.csv
Method:,Column 1,,
Host Date-Time:,21/11/24 @ 16:51:28,,
Header Version:,1,,
System Temp (C):,33.99,,
Detector Temp (C):,31.29,,
Humidity (%):,3.38,,
Lamp PD:,3803,,
Shift Vector Coefficients:,-10.5391,0.0761263,-0.000134223,,
Pixel to Wavelength Coefficients:,1775.68,-0.916766,-0.000235065,,
Serial Number:,5510004,,
Scan Config Name:,Column 1,,
Scan Config Type:,Slew,,
Section 1,,
Start wavelength (nm):,900,,
End wavelength (nm):,1700,,
Pattern Pixel Width (nm):,   7.03,,,,
Exposure (ms):,  0.635,,,,
Digital Resolution:,228,,
Num Repeats:,6,,
PGA Gain:,64,,
Total Measurement Time in sec:,  2.696,,
Wavelength (nm),Absorbance (AU),Reference Signal (unitless),Sample Signal (unitless)
901.51,1.305881,108485,5364
905.376,1.310315,121306,5937
909.237,1.298564,131909,6633
913.095,1.314446,143299,6947
916.948,1.304424,156982,7788
922.079,1.310588,179937,8801
925.923,1.329967,200504,9379
929.762,1.318868,222660,10685
933.597,1.322008,244426,11645
937.427,1.317788,263972,12699
941.254,1.319580,281845,13503
945.076,1.312834,297271,14465
950.165,1.316530,315605,15227
953.978,1.322120,328029,15624
957.786,1.311056,340470,16635
961.59,1.312821,352317,17144
965.389,1.306175,363056,17939
969.185,1.314291,373162,18097
972.976,1.311683,382632,18668
976.763,1.303481,391202,19450
981.806,1.302345,400190,19949
985.583,1.304345,406088,20150
989.355,1.304669,410162,20337
993.124,1.311256,412868,20163
996.888,1.307795,414263,20393
1000.65,1.315934,415476,20073
1004.4,1.315894,415479,20075
1009.41,1.305283,414358,20516
1013.15,1.314297,412923,20025
1016.89,1.313563,411526,19991
1020.63,1.304340,409066,20298
1024.36,1.303855,406777,20207
1028.09,1.307159,404427,19938
1031.82,1.312761,401911,19560
1036.78,1.313694,398410,19348
1040.49,1.303012,396204,19720
1044.2,1.303478,394236,19601
1047.91,1.311550,392042,19133
1051.61,1.304433,389823,19339
1055.31,1.298503,388234,19525
1059,1.309469,387599,19007
1063.92,1.310394,386688,18922
1067.61,1.301208,386598,19322
1071.29,1.306782,387377,19114
1074.96,1.309468,388536,19053
1078.63,1.304536,389855,19336
1082.3,1.314348,391215,18970
1085.96,1.305577,393215,19456
1090.84,1.310481,396270,19387
1094.49,1.312418,398760,19422
1098.14,1.325704,400987,18942
1101.79,1.317771,403477,19411
1105.43,1.313567,406116,19728
1109.06,1.318862,407701,19565
1112.7,1.315049,409859,19842
1117.53,1.321724,412494,19665
1121.15,1.319143,414909,19898
1124.77,1.314798,416559,20178
1128.38,1.319831,418532,20040
1131.99,1.316500,419956,20263
1135.6,1.322666,421946,20072
1139.2,1.327258,423881,19952
1143.99,1.319198,426786,20465
1147.58,1.310595,428617,20964
1151.17,1.312946,431169,20975
1154.75,1.321497,433579,20681
1158.33,1.311655,436264,21286
1161.91,1.315911,439132,21217
1165.48,1.311572,442389,21589
1169.04,1.315925,446101,21553
1173.79,1.314705,451929,21896
1177.34,1.312050,456026,22230
1180.9,1.319322,461306,22114
1184.44,1.310813,467657,22862
1187.99,1.322449,473969,22558
1191.52,1.319496,479856,22994
1195.06,1.320784,487372,23285
1199.76,1.316304,497347,24008
1203.29,1.316860,504311,24313
1206.81,1.322638,511507,24334
1210.33,1.328092,519078,24386
1213.84,1.321856,527163,25124
1217.35,1.330640,534208,24950
1220.85,1.327359,540472,25434
1225.51,1.320847,549929,26270
1229.01,1.317909,556888,26783
1232.5,1.320236,562180,26893
1235.98,1.319011,567975,27247
1239.46,1.320970,574815,27451
1242.94,1.322964,582782,27704
1246.41,1.319890,591476,28317
1251.03,1.324485,604016,28613
1254.5,1.320356,612289,29282
1257.96,1.322339,619125,29474
1261.41,1.325702,624551,29503
1264.86,1.328905,629900,29537
1268.31,1.330770,634345,29618
1271.75,1.324170,638574,30272
1276.33,1.331229,642499,29967
1279.76,1.330521,645905,30175
1283.19,1.330481,648307,30290
1286.61,1.324083,650446,30841
1290.03,1.328132,652132,30634
1293.44,1.333586,653907,30334
1296.85,1.331428,655963,30581
1301.39,1.327823,657349,30901
1304.8,1.329087,657558,30821
1308.19,1.328031,658515,30941
1311.58,1.335469,658804,30429
1314.97,1.336891,659011,30339
1318.36,1.333266,658272,30559
1321.73,1.332193,658022,30623
1326.23,1.330436,657870,30740
1329.6,1.333764,656482,30441
1332.97,1.330400,654926,30605
1336.33,1.329718,653727,30597
1339.69,1.328687,652497,30612
1343.04,1.325844,649913,30691
1346.39,1.329038,647671,30361
1349.73,1.328445,645338,30293
1354.18,1.329711,641175,30010
1357.52,1.335549,638376,29480
1360.85,1.325537,635805,30046
1364.17,1.331365,633413,29534
1367.49,1.327715,631026,29671
1370.81,1.329765,628050,29392
1374.12,1.323264,625034,29692
1378.54,1.327512,620272,29179
1381.84,1.326480,616892,29089
1385.14,1.327929,613613,28838
1388.43,1.329427,611526,28641
1391.72,1.326062,610663,28823
1395.01,1.324958,610634,28895
1398.29,1.325040,611700,28940
1402.66,1.322747,614051,29205
1405.93,1.321171,616268,29417
1409.2,1.330638,617795,28854
1412.46,1.329772,618872,28962
1415.72,1.331110,619795,28916
1418.98,1.332818,620495,28835
1422.23,1.334031,621087,28782
1426.56,1.330118,621375,29056
1429.8,1.328973,621616,29144
1433.04,1.331303,622129,29012
1436.27,1.333329,621526,28849
1439.5,1.335228,621113,28704
1442.72,1.335790,620921,28658
1445.94,1.329644,620270,29036
1450.23,1.332683,618860,28768
1453.44,1.331157,617697,28815
1456.64,1.337336,616264,28342
1459.85,1.334897,614413,28416
1463.04,1.335674,612307,28268
1466.24,1.333152,610032,28327
1469.43,1.340000,607345,27761
1473.67,1.336809,603789,27802
1476.85,1.331099,601175,28048
1480.02,1.331732,597737,27847
1483.19,1.340511,594479,27141
1486.36,1.338372,591232,27126
1489.52,1.336989,587853,27057
1492.68,1.337392,583875,26849
1496.89,1.336065,578062,26663
1500.03,1.334771,574159,26562
1503.18,1.344607,570285,25792
1506.32,1.336115,565444,26078
1509.45,1.337297,560571,25783
1512.58,1.332206,555821,25866
1515.71,1.337033,550344,25328
1519.87,1.337281,543983,25021
1522.99,1.339582,538764,24650
1526.1,1.332366,533692,24827
1529.21,1.337770,527902,24254
1532.32,1.337075,521886,24016
1535.42,1.336307,515888,23782
1538.51,1.338065,509987,23415
1541.6,1.341006,503936,22981
1545.72,1.337069,494694,22765
1548.8,1.332960,488378,22688
1551.88,1.337287,481832,22162
1554.95,1.334518,474989,21987
1558.02,1.335081,467818,21627
1561.08,1.334374,460730,21334
1564.15,1.339970,454170,20761
1568.22,1.333461,444181,20611
1571.27,1.324878,436947,20680
1574.32,1.331338,429598,20032
1577.36,1.329829,422039,19748
1580.4,1.331117,414375,19332
1583.43,1.335255,406354,18778
1586.46,1.332151,398475,18546
1590.49,1.333982,388982,18028
1593.51,1.333233,380708,17675
1596.53,1.323663,372727,17690
1599.54,1.320818,365060,17440
1602.55,1.326522,357543,16858
1605.55,1.330295,349495,16336
1608.55,1.332374,341154,15870
1612.54,1.333558,330877,15350
1615.53,1.325121,322904,15274
1618.51,1.318775,315116,15125
1621.49,1.334301,307217,14228
1624.47,1.324295,299481,14193
1627.44,1.316423,292112,14097
1630.41,1.321786,284245,13549
1634.36,1.312492,274079,13347
1637.32,1.327800,266916,12548
1640.27,1.312784,259612,12634
1643.22,1.309994,251804,12333
1646.16,1.316458,244348,11791
1649.1,1.313468,236703,11501
1652.04,1.312507,228171,11111
1655.95,1.301611,215408,10756
1658.88,1.307213,204937,10102
1661.8,1.286055,193395,10009
1664.72,1.277167,179728,9494
1667.63,1.257390,163642,9047
1670.54,1.258999,146312,8059
1673.44,1.246129,128451,7288
1677.31,1.282502,105080,5483
1680.21,1.202530,88906,5577
1683.1,1.196552,75033,4772
1685.99,1.221075,63520,3818
1688.87,1.213817,53714,3283
1691.75,1.138855,45653,3316
1694.62,1.182823,39137,2569
1697.49,1.266395,33776,1829
1701.31,1.195074,28175,1798

File: Column 1_078224_20241121_165134.csv
Method:,Column 1,,
Host Date-Time:,21/11/24 @ 16:51:34,,
Header Version:,1,,
System Temp (C):,34.1,,
Detector Temp (C):,31.32,,
Humidity (%):,3.47,,
Lamp PD:,3803,,
Shift Vector Coefficients:,-10.5391,0.0761263,-0.000134223,,
Pixel to Wavelength Coefficients:,1775.68,-0.916766,-0.000235065,,
Serial Number:,5510004,,
Scan Config Name:,Column 1,,
Scan Config Type:,Slew,,
Section 1,,
Start wavelength (nm):,900,,
End wavelength (nm):,1700,,
Pattern Pixel Width (nm):,   7.03,,,,
Exposure (ms):,  0.635,,,,
Digital Resolution:,228,,
Num Repeats:,6,,
PGA Gain:,64,,
Total Measurement Time in sec:,  2.724,,
Wavelength (nm),Absorbance (AU),Reference Signal (unitless),Sample Signal (unitless)
901.51,1.276231,108485,5743
905.376,1.338651,121306,5562
909.237,1.311389,131909,6440
913.095,1.311455,143299,6995
916.948,1.323985,156982,7445
922.079,1.321886,179937,8575
925.923,1.312495,200504,9764
929.762,1.305579,222660,11017
933.597,1.320891,244426,11675
937.427,1.320877,263972,12609
941.254,1.318071,281845,13550
945.076,1.321078,297271,14193
950.165,1.313460,315605,15335
953.978,1.314843,328029,15888
957.786,1.306666,340470,16804
961.59,1.306334,352317,17402
965.389,1.316588,363056,17514
969.185,1.309779,373162,18286
972.976,1.306319,382632,18900
976.763,1.305070,391202,19379
981.806,1.304549,400190,19848
985.583,1.309374,406088,19918
989.355,1.306123,410162,20269
993.124,1.300366,412868,20675
996.888,1.304781,414263,20535
1000.65,1.304047,415476,20630
1004.4,1.304555,415479,20606
1009.41,1.312691,414358,20169
1013.15,1.310367,412923,20207
1016.89,1.314759,411526,19936
1020.63,1.303272,409066,20348
1024.36,1.313504,406777,19763
1028.09,1.312661,404427,19687
1031.82,1.313494,401911,19527
1036.78,1.311634,398410,19440
1040.49,1.305286,396204,19617
1044.2,1.317346,394236,18985
1047.91,1.300479,392042,19627
1051.61,1.318052,389823,18742
1055.31,1.310797,388234,18980
1059,1.301791,387599,19346
1063.92,1.312764,386688,18819
1067.61,1.315000,386598,18718
1071.29,1.308011,387377,19060
1074.96,1.319615,388536,18613
1078.63,1.305706,389855,19284
1082.3,1.316529,391215,18875
1085.96,1.319480,393215,18843
1090.84,1.315868,396270,19148
1094.49,1.312574,398760,19415
1098.14,1.313943,400987,19462
1101.79,1.319924,403477,19315
1105.43,1.318571,406116,19502
1109.06,1.316162,407701,19687
1112.7,1.314743,409859,19856
1117.53,1.326654,412494,19443
1121.15,1.324126,414909,19671
1124.77,1.313724,416559,20228
1128.38,1.307883,418532,20599
1131.99,1.328561,419956,19708
1135.6,1.321305,421946,20135
1139.2,1.325238,423881,20045
1143.99,1.329745,426786,19974
1147.58,1.317633,428617,20627
1151.17,1.317818,431169,20741
1154.75,1.331781,433579,20197
1158.33,1.324871,436264,20648
1161.91,1.314236,439132,21299
1165.48,1.315634,442389,21388
1169.04,1.315744,446101,21562
1173.79,1.324900,451929,21388
1177.34,1.314971,456026,22081
1180.9,1.318106,461306,22176
1184.44,1.318982,467657,22436
1187.99,1.318215,473969,22779
1191.52,1.321864,479856,22869
1195.06,1.321158,487372,23265
1199.76,1.320466,497347,23779
1203.29,1.320177,504311,24128
1206.81,1.322103,511507,24364
1210.33,1.321359,519078,24767
1213.84,1.320527,527163,25201
1217.35,1.320932,534208,25514
1220.85,1.321103,540472,25803
1225.51,1.326219,549929,25947
1229.01,1.330461,556888,26020
1232.5,1.319720,562180,26925
1235.98,1.332824,567975,26394
1239.46,1.327907,574815,27016
1242.94,1.323293,582782,27683
1246.41,1.328690,591476,27749
1251.03,1.330584,604016,28214
1254.5,1.325443,612289,28941
1257.96,1.323860,619125,29371
1261.41,1.329977,624551,29214
1264.86,1.321991,629900,30011
1268.31,1.324756,634345,30031
1271.75,1.325319,638574,30192
1276.33,1.328945,642499,30125
1279.76,1.331011,645905,30141
1283.19,1.328208,648307,30449
1286.61,1.329881,650446,30432
1290.03,1.330663,652132,30456
1293.44,1.331444,653907,30484
1296.85,1.328964,655963,30755
1301.39,1.322418,657349,31288
1304.8,1.331164,657558,30674
1308.19,1.335192,658515,30435
1311.58,1.334314,658804,30510
1314.97,1.330018,659011,30823
1318.36,1.334490,658272,30473
1321.73,1.325885,658022,31071
1326.23,1.332305,657870,30608
1329.6,1.329731,656482,30725
1332.97,1.331636,654926,30518
1336.33,1.328626,653727,30674
1339.69,1.330136,652497,30510
1343.04,1.332159,649913,30248
1346.39,1.337022,647671,29808
1349.73,1.326971,645338,30396
1354.18,1.325563,641175,30298
1357.52,1.324351,638376,30250
1360.85,1.331622,635805,29628
1364.17,1.327733,633413,29782
1367.49,1.332173,631026,29368
1370.81,1.328732,628050,29462
1374.12,1.332907,625034,29040
1378.54,1.327988,620272,29147
1381.84,1.326809,616892,29067
1385.14,1.327568,613613,28862
1388.43,1.321449,611526,29172
1391.72,1.326545,610663,28791
1395.01,1.327793,610634,28707
1398.29,1.323064,611700,29072
1402.66,1.327728,614051,28872
1405.93,1.338152,616268,28289
1409.2,1.328626,617795,28988
1412.46,1.324896,618872,29289
1415.72,1.332343,619795,28834
1418.98,1.334297,620495,28737
1422.23,1.336726,621087,28604
1426.56,1.329446,621375,29101
1429.8,1.338540,621616,28509
1433.04,1.334021,622129,28831
1436.27,1.333404,621526,28844
1439.5,1.335380,621113,28694
1442.72,1.333071,620921,28838
1445.94,1.335380,620270,28655
1450.23,1.334908,618860,28621
1453.44,1.331760,617697,28775
1456.64,1.334039,616264,28558
1459.85,1.331533,614413,28637
1463.04,1.343003,612307,27795
1466.24,1.339017,610032,27947
1469.43,1.327708,607345,28558
1473.67,1.334985,603789,27919
1476.85,1.336537,601175,27699
1480.02,1.335963,597737,27577
1483.19,1.332536,594479,27644
1486.36,1.341990,591232,26901
1489.52,1.336187,587853,27107
1492.68,1.336245,583875,26920
1496.89,1.333678,578062,26810
1500.03,1.330833,574159,26804
1503.18,1.331913,570285,26557
1506.32,1.331395,565444,26363
1509.45,1.335499,560571,25890
1512.58,1.339964,555821,25408
1515.71,1.339130,550344,25206
1519.87,1.332688,543983,25287
1522.99,1.335217,538764,24899
1526.1,1.336886,533692,24570
1529.21,1.328768,527902,24762
1532.32,1.329954,521886,24413
1535.42,1.341155,515888,23518
1538.51,1.328743,509987,23923
1541.6,1.337187,503936,23184
1545.72,1.334881,494694,22880
1548.8,1.340081,488378,22319
1551.88,1.338582,481832,22096
1554.95,1.336339,474989,21895
1558.02,1.335241,467818,21619
1561.08,1.337480,460730,21182
1564.15,1.327719,454170,21355
1568.22,1.331778,444181,20691
1571.27,1.334261,436947,20238
1574.32,1.336134,429598,19812
1577.36,1.335073,422039,19511
1580.4,1.339418,414375,18966
1583.43,1.328121,406354,19089
1586.46,1.334311,398475,18454
1590.49,1.335744,388982,17955
1593.51,1.331834,380708,17732
1596.53,1.330193,372727,17426
1599.54,1.327923,365060,17157
1602.55,1.326986,357543,16840
1605.55,1.336912,349495,16089
1608.55,1.321670,341154,16266
1612.54,1.332569,330877,15385
1615.53,1.317622,322904,15540
1618.51,1.335757,315116,14545
1621.49,1.318300,307217,14762
1624.47,1.343917,299481,13566
1627.44,1.321411,292112,13936
1630.41,1.316529,284245,13714
1634.36,1.303476,274079,13627
1637.32,1.317032,266916,12863
1640.27,1.329213,259612,12165
1643.22,1.320004,251804,12052
1646.16,1.303182,244348,12157
1649.1,1.311396,236703,11556
1652.04,1.321711,228171,10878
1655.95,1.310998,215408,10526
1658.88,1.291923,204937,10464
1661.8,1.300839,193395,9674
1664.72,1.305861,179728,8887
1667.63,1.268672,163642,8815
1670.54,1.256849,146312,8099
1673.44,1.283246,128451,6691
1677.31,1.216291,105080,6386
1680.21,1.220091,88906,5356
1683.1,1.212589,75033,4599
1685.99,1.203683,63520,3974
1688.87,1.158262,53714,3731
1691.75,1.192602,45653,2930
1694.62,1.233891,39137,2284
1697.49,1.230848,33776,1985
1701.31,1.270599,28175,1511