Folder: textile_sorting_NIRSCAN_/ML/samples/unknown (part 117)

File: Column 1_078856_20241121_172529.csv
Method:,Column 1,,
Host Date-Time:,21/11/24 @ 17:25:29,,
Header Version:,1,,
System Temp (C):,37.22,,
Detector Temp (C):,35.94,,
Humidity (%):,0.53,,
Lamp PD:,3796,,
Shift Vector Coefficients:,-10.5391,0.0761263,-0.000134223,,
Pixel to Wavelength Coefficients:,1775.68,-0.916766,-0.000235065,,
Serial Number:,5510004,,
Scan Config Name:,Column 1,,
Scan Config Type:,Slew,,
Section 1,,
Start wavelength (nm):,900,,
End wavelength (nm):,1700,,
Pattern Pixel Width (nm):,   7.03,,,,
Exposure (ms):,  0.635,,,,
Digital Resolution:,228,,
Num Repeats:,6,,
PGA Gain:,64,,
Total Measurement Time in sec:,  2.727,,
Wavelength (nm),Absorbance (AU),Reference Signal (unitless),Sample Signal (unitless)
901.51,1.309132,108485,5324
905.376,1.315244,121306,5870
909.237,1.312807,131909,6419
913.095,1.325847,143299,6767
916.948,1.332230,156982,7305
922.079,1.319512,179937,8622
925.923,1.318361,200504,9633
929.762,1.323937,222660,10561
933.597,1.319479,244426,11713
937.427,1.319673,263972,12644
941.254,1.311360,281845,13761
945.076,1.322765,297271,14138
950.165,1.312470,315605,15370
953.978,1.311277,328029,16019
957.786,1.306330,340470,16817
961.59,1.302830,352317,17543
965.389,1.300690,363056,18167
969.185,1.310349,373162,18262
972.976,1.302203,382632,19080
976.763,1.309892,391202,19165
981.806,1.309744,400190,19612
985.583,1.307547,406088,20002
989.355,1.300588,410162,20529
993.124,1.307204,412868,20352
996.888,1.304908,414263,20529
1000.65,1.296865,415476,20974
1004.4,1.304345,415479,20616
1009.41,1.303466,414358,20602
1013.15,1.309895,412923,20229
1016.89,1.308852,411526,20209
1020.63,1.307605,409066,20146
1024.36,1.307155,406777,20054
1028.09,1.315471,404427,19560
1031.82,1.306282,401911,19854
1036.78,1.306151,398410,19687
1040.49,1.302462,396204,19745
1044.2,1.306323,394236,19473
1047.91,1.306809,392042,19343
1051.61,1.303760,389823,19369
1055.31,1.307492,388234,19125
1059,1.311599,387599,18914
1063.92,1.315055,386688,18720
1067.61,1.322017,386598,18418
1071.29,1.304448,387377,19217
1074.96,1.309012,388536,19073
1078.63,1.303236,389855,19394
1082.3,1.310587,391215,19135
1085.96,1.312393,393215,19153
1090.84,1.312141,396270,19313
1094.49,1.316710,398760,19231
1098.14,1.316225,400987,19360
1101.79,1.316743,403477,19457
1105.43,1.308533,406116,19958
1109.06,1.312800,407701,19840
1112.7,1.323849,409859,19444
1117.53,1.319389,412494,19771
1121.15,1.315600,414909,20061
1124.77,1.315078,416559,20165
1128.38,1.320634,418532,20003
1131.99,1.315879,419956,20292
1135.6,1.315159,421946,20422
1139.2,1.313862,423881,20577
1143.99,1.319241,426786,20463
1147.58,1.310678,428617,20960
1151.17,1.322978,431169,20496
1154.75,1.318442,433579,20827
1158.33,1.313536,436264,21194
1161.91,1.321494,439132,20946
1165.48,1.314539,442389,21442
1169.04,1.315181,446101,21590
1173.79,1.313062,451929,21979
1177.34,1.325502,456026,21552
1180.9,1.312947,461306,22441
1184.44,1.311555,467657,22823
1187.99,1.326570,473969,22345
1191.52,1.312341,479856,23376
1195.06,1.315556,487372,23567
1199.76,1.310571,497347,24327
1203.29,1.318488,504311,24222
1206.81,1.319508,511507,24510
1210.33,1.324880,519078,24567
1213.84,1.313095,527163,25636
1217.35,1.323458,534208,25366
1220.85,1.325212,540472,25560
1225.51,1.315556,549929,26592
1229.01,1.313103,556888,27081
1232.5,1.323348,562180,26701
1235.98,1.317229,567975,27359
1239.46,1.322587,574815,27349
1242.94,1.320915,582782,27835
1246.41,1.322968,591476,28117
1251.03,1.318157,604016,29033
1254.5,1.319053,612289,29370
1257.96,1.321530,619125,29529
1261.41,1.329487,624551,29247
1264.86,1.323165,629900,29930
1268.31,1.322462,634345,30190
1271.75,1.322695,638574,30375
1276.33,1.327434,642499,30230
1279.76,1.319213,645905,30971
1283.19,1.326258,648307,30586
1286.61,1.322551,650446,30950
1290.03,1.329637,652132,30528
1293.44,1.324505,653907,30975
1296.85,1.326808,655963,30908
1301.39,1.322946,657349,31250
1304.8,1.329510,657558,30791
1308.19,1.323785,658515,31245
1311.58,1.331194,658804,30730
1314.97,1.328934,659011,30900
1318.36,1.332585,658272,30607
1321.73,1.329408,658022,30820
1326.23,1.333072,657870,30554
1329.6,1.325749,656482,31008
1332.97,1.329351,654926,30679
1336.33,1.323027,653727,31072
1339.69,1.331448,652497,30418
1343.04,1.324615,649913,30778
1346.39,1.324896,647671,30652
1349.73,1.326243,645338,30447
1354.18,1.326309,641175,30246
1357.52,1.324380,638376,30248
1360.85,1.326304,635805,29993
1364.17,1.327616,633413,29790
1367.49,1.324115,631026,29918
1370.81,1.328599,628050,29471
1374.12,1.322972,625034,29712
1378.54,1.327661,620272,29169
1381.84,1.327841,616892,28998
1385.14,1.324733,613613,29051
1388.43,1.325622,611526,28893
1391.72,1.317070,610663,29426
1395.01,1.320845,610634,29170
1398.29,1.327976,611700,28745
1402.66,1.325926,614051,28992
1405.93,1.328661,616268,28914
1409.2,1.333447,617795,28668
1412.46,1.332706,618872,28767
1415.72,1.327714,619795,29143
1418.98,1.329831,620495,29034
1422.23,1.329692,621087,29071
1426.56,1.334837,621375,28742
1429.8,1.332699,621616,28895
1433.04,1.329749,622129,29116
1436.27,1.336699,621526,28626
1439.5,1.330683,621113,29006
1442.72,1.336215,620921,28630
1445.94,1.331413,620270,28918
1450.23,1.332683,618860,28768
1453.44,1.329127,617697,28950
1456.64,1.330103,616264,28818
1459.85,1.329460,614413,28774
1463.04,1.328150,612307,28762
1466.24,1.331240,610032,28452
1469.43,1.334837,607345,28093
1473.67,1.331191,603789,28164
1476.85,1.337699,601175,27625
1480.02,1.330424,597737,27931
1483.19,1.332018,594479,27677
1486.36,1.337620,591232,27173
1489.52,1.333027,587853,27305
1492.68,1.334104,583875,27053
1496.89,1.337877,578062,26552
1500.03,1.333270,574159,26654
1503.18,1.332322,570285,26532
1506.32,1.334005,565444,26205
1509.45,1.337230,560571,25787
1512.58,1.327596,555821,26142
1515.71,1.334418,550344,25481
1519.87,1.339822,543983,24875
1522.99,1.333181,538764,25016
1526.1,1.330847,533692,24914
1529.21,1.338128,527902,24234
1532.32,1.336298,521886,24059
1535.42,1.326931,515888,24301
1538.51,1.329452,509987,23884
1541.6,1.331973,503936,23464
1545.72,1.328605,494694,23213
1548.8,1.331164,488378,22782
1551.88,1.335370,481832,22260
1554.95,1.332842,474989,22072
1558.02,1.328741,467818,21945
1561.08,1.330968,460730,21502
1564.15,1.318165,454170,21830
1568.22,1.333693,444181,20600
1571.27,1.329056,436947,20482
1574.32,1.324925,429598,20330
1577.36,1.336254,422039,19458
1580.4,1.326980,414375,19517
1583.43,1.331433,406354,18944
1586.46,1.328304,398475,18711
1590.49,1.325206,388982,18396
1593.51,1.321237,380708,18170
1596.53,1.328576,372727,17491
1599.54,1.328176,365060,17147
1602.55,1.322828,357543,17002
1605.55,1.317951,349495,16807
1608.55,1.322498,341154,16235
1612.54,1.325708,330877,15630
1615.53,1.317678,322904,15538
1618.51,1.318259,315116,15143
1621.49,1.323598,307217,14583
1624.47,1.326750,299481,14113
1627.44,1.314854,292112,14148
1630.41,1.315011,284245,13762
1634.36,1.312883,274079,13335
1637.32,1.330717,266916,12464
1640.27,1.317137,259612,12508
1643.22,1.329254,251804,11798
1646.16,1.311332,244348,11931
1649.1,1.304018,236703,11754
1652.04,1.302806,228171,11362
1655.95,1.303553,215408,10708
1658.88,1.278518,204937,10792
1661.8,1.283977,193395,10057
1664.72,1.269549,179728,9662
1667.63,1.249399,163642,9215
1670.54,1.224515,146312,8725
1673.44,1.207879,128451,7959
1677.31,1.170629,105080,7094
1680.21,1.157381,88906,6188
1683.1,1.130021,75033,5562
1685.99,1.145855,63520,4540
1688.87,1.157797,53714,3735
1691.75,1.127863,45653,3401
1694.62,1.150578,39137,2767
1697.49,1.132234,33776,2491
1701.31,1.165885,28175,1923

File: Column 1_078857_20241121_172532.csv
Method:,Column 1,,
Host Date-Time:,21/11/24 @ 17:25:32,,
Header Version:,1,,
System Temp (C):,37.31,,
Detector Temp (C):,35.94,,
Humidity (%):,0.58,,
Lamp PD:,3796,,
Shift Vector Coefficients:,-10.5391,0.0761263,-0.000134223,,
Pixel to Wavelength Coefficients:,1775.68,-0.916766,-0.000235065,,
Serial Number:,5510004,,
Scan Config Name:,Column 1,,
Scan Config Type:,Slew,,
Section 1,,
Start wavelength (nm):,900,,
End wavelength (nm):,1700,,
Pattern Pixel Width (nm):,   7.03,,,,
Exposure (ms):,  0.635,,,,
Digital Resolution:,228,,
Num Repeats:,6,,
PGA Gain:,64,,
Total Measurement Time in sec:,  2.726,,
Wavelength (nm),Absorbance (AU),Reference Signal (unitless),Sample Signal (unitless)
901.51,1.306529,108485,5356
905.376,1.312001,121306,5914
909.237,1.297192,131909,6654
913.095,1.323543,143299,6803
916.948,1.352181,156982,6977
922.079,1.303880,179937,8938
925.923,1.328903,200504,9402
929.762,1.333626,222660,10328
933.597,1.318516,244426,11739
937.427,1.319605,263972,12646
941.254,1.325506,281845,13320
945.076,1.314760,297271,14401
950.165,1.317700,315605,15186
953.978,1.304631,328029,16266
957.786,1.314095,340470,16519
961.59,1.313811,352317,17105
965.389,1.312148,363056,17694
969.185,1.304421,373162,18513
972.976,1.299842,382632,19184
976.763,1.307722,391202,19261
981.806,1.311853,400190,19517
985.583,1.302989,406088,20213
989.355,1.311513,410162,20019
993.124,1.308957,412868,20270
996.888,1.306116,414263,20472
1000.65,1.304974,415476,20586
1004.4,1.306562,415479,20511
1009.41,1.313036,414358,20153
1013.15,1.309787,412923,20234
1016.89,1.307672,411526,20264
1020.63,1.306937,409066,20177
1024.36,1.300067,406777,20384
1028.09,1.306006,404427,19991
1031.82,1.313828,401911,19512
1036.78,1.305181,398410,19731
1040.49,1.312362,396204,19300
1044.2,1.310221,394236,19299
1047.91,1.308496,392042,19268
1051.61,1.301524,389823,19469
1055.31,1.308379,388234,19086
1059,1.306146,387599,19153
1063.92,1.310072,386688,18936
1067.61,1.310913,386598,18895
1071.29,1.311764,387377,18896
1074.96,1.315736,388536,18780
1078.63,1.306360,389855,19255
1082.3,1.320365,391215,18709
1085.96,1.308623,393215,19320
1090.84,1.308246,396270,19487
1094.49,1.312910,398760,19400
1098.14,1.313943,400987,19462
1101.79,1.317704,403477,19414
1105.43,1.306471,406116,20053
1109.06,1.312713,407701,19844
1112.7,1.317750,409859,19719
1117.53,1.315192,412494,19963
1121.15,1.317988,414909,19951
1124.77,1.311539,416559,20330
1128.38,1.319788,418532,20042
1131.99,1.319015,419956,20146
1135.6,1.324901,421946,19969
1139.2,1.315067,423881,20520
1143.99,1.313067,426786,20756
1147.58,1.319807,428617,20524
1151.17,1.316689,431169,20795
1154.75,1.314105,433579,21036
1158.33,1.319936,436264,20884
1161.91,1.311918,439132,21413
1165.48,1.321337,442389,21109
1169.04,1.320463,446101,21329
1173.79,1.317811,451929,21740
1177.34,1.315010,456026,22079
1180.9,1.311864,461306,22497
1184.44,1.321350,467657,22314
1187.99,1.321238,473969,22621
1191.52,1.320536,479856,22939
1195.06,1.314857,487372,23605
1199.76,1.330068,497347,23259
1203.29,1.318184,504311,24239
1206.81,1.323460,511507,24288
1210.33,1.312954,519078,25251
1213.84,1.318996,527163,25290
1217.35,1.321204,534208,25498
1220.85,1.327649,540472,25417
1225.51,1.318999,549929,26382
1229.01,1.326242,556888,26274
1232.5,1.319526,562180,26937
1235.98,1.322628,567975,27021
1239.46,1.323159,574815,27313
1242.94,1.320478,582782,27863
1246.41,1.312726,591476,28788
1251.03,1.324606,604016,28605
1254.5,1.324543,612289,29001
1257.96,1.320061,619125,29629
1261.41,1.321687,624551,29777
1264.86,1.320532,629900,30112
1268.31,1.322721,634345,30172
1271.75,1.319390,638574,30607
1276.33,1.325886,642499,30338
1279.76,1.324461,645905,30599
1283.19,1.323216,648307,30801
1286.61,1.322312,650446,30967
1290.03,1.325742,652132,30803
1293.44,1.324393,653907,30983
1296.85,1.328540,655963,30785
1301.39,1.326014,657349,31030
1304.8,1.331135,657558,30676
1308.19,1.330495,658515,30766
1311.58,1.319936,658804,31537
1314.97,1.330779,659011,30769
1318.36,1.333025,658272,30576
1321.73,1.330014,658022,30777
1326.23,1.323999,657870,31199
1329.6,1.324211,656482,31118
1332.97,1.333433,654926,30392
1336.33,1.325199,653727,30917
1339.69,1.331748,652497,30397
1343.04,1.330067,649913,30394
1346.39,1.327739,647671,30452
1349.73,1.323243,645338,30658
1354.18,1.325118,641175,30329
1357.52,1.321090,638376,30478
1360.85,1.324166,635805,30141
1364.17,1.324493,633413,30005
1367.49,1.324289,631026,29906
1370.81,1.324755,628050,29733
1374.12,1.324421,625034,29613
1378.54,1.323379,620272,29458
1381.84,1.323861,616892,29265
1385.14,1.329771,613613,28716
1388.43,1.322507,611526,29101
1391.72,1.321506,610663,29127
1395.01,1.326992,610634,28760
1398.29,1.323258,611700,29059
1402.66,1.326031,614051,28985
1405.93,1.323703,616268,29246
1409.2,1.329541,617795,28927
1412.46,1.331305,618872,28860
1415.72,1.327059,619795,29187
1418.98,1.327147,620495,29214
1422.23,1.326923,621087,29257
1426.56,1.326501,621375,29299
1429.8,1.328362,621616,29185
1433.04,1.322691,622129,29593
1436.27,1.328359,621526,29181
1439.5,1.332243,621113,28902
1442.72,1.329337,620921,29087
1445.94,1.336427,620270,28586
1450.23,1.337525,618860,28449
1453.44,1.332470,617697,28728
1456.64,1.332703,616264,28646
1459.85,1.333753,614413,28491
1463.04,1.330027,612307,28638
1466.24,1.329108,610032,28592
1469.43,1.331971,607345,28279
1473.67,1.330267,603789,28224
1476.85,1.325148,601175,28435
1480.02,1.334030,597737,27700
1483.19,1.332834,594479,27625
1486.36,1.332378,591232,27503
1489.52,1.335947,587853,27122
1492.68,1.330922,583875,27252
1496.89,1.333661,578062,26811
1500.03,1.330590,574159,26819
1503.18,1.334356,570285,26408
1506.32,1.335433,565444,26119
1509.45,1.343985,560571,25389
1512.58,1.337068,555821,25578
1515.71,1.339096,550344,25208
1519.87,1.332705,543983,25286
1522.99,1.332591,538764,25050
1526.1,1.331493,533692,24877
1529.21,1.333104,527902,24516
1532.32,1.329866,521886,24418
1535.42,1.337093,515888,23739
1538.51,1.337546,509987,23443
1541.6,1.336307,503936,23231
1545.72,1.327914,494694,23250
1548.8,1.337695,488378,22442
1551.88,1.331834,481832,22442
1554.95,1.321175,474989,22673
1558.02,1.329474,467818,21908
1561.08,1.329757,460730,21562
1564.15,1.332340,454170,21129
1568.22,1.332430,444181,20660
1571.27,1.332334,436947,20328
1574.32,1.326873,429598,20239
1577.36,1.326107,422039,19918
1580.4,1.321870,414375,19748
1583.43,1.331135,406354,18957
1586.46,1.324790,398475,18863
1590.49,1.330097,388982,18190
1593.51,1.336018,380708,17562
1596.53,1.320386,372727,17824
1599.54,1.323415,365060,17336
1602.55,1.325159,357543,16911
1605.55,1.321584,349495,16667
1608.55,1.327827,341154,16037
1612.54,1.326347,330877,15607
1615.53,1.317818,322904,15533
1618.51,1.327710,315116,14817
1621.49,1.322468,307217,14621
1624.47,1.313954,299481,14535
1627.44,1.314762,292112,14151
1630.41,1.315074,284245,13760
1634.36,1.311517,274079,13377
1637.32,1.310997,266916,13043
1640.27,1.307794,259612,12780
1643.22,1.304431,251804,12492
1646.16,1.292177,244348,12469
1649.1,1.304721,236703,11735
1652.04,1.301927,228171,11385
1655.95,1.283966,215408,11202
1658.88,1.282927,204937,10683
1661.8,1.276782,193395,10225
1664.72,1.251241,179728,10078
1667.63,1.252949,163642,9140
1670.54,1.240123,146312,8417
1673.44,1.205810,128451,7997
1677.31,1.176794,105080,6994
1680.21,1.134351,88906,6525
1683.1,1.125671,75033,5618
1685.99,1.157586,63520,4419
1688.87,1.128788,53714,3993
1691.75,1.209066,45653,2821
1694.62,1.147139,39137,2789
1697.49,1.171245,33776,2277
1701.31,1.125376,28175,2111

File: Column 1_078861_20241121_172543.csv
Method:,Column 1,,
Host Date-Time:,21/11/24 @ 17:25:43,,
Header Version:,1,,
System Temp (C):,37.61,,
Detector Temp (C):,35.96,,
Humidity (%):,0.78,,
Lamp PD:,3796,,
Shift Vector Coefficients:,-10.5391,0.0761263,-0.000134223,,
Pixel to Wavelength Coefficients:,1775.68,-0.916766,-0.000235065,,
Serial Number:,5510004,,
Scan Config Name:,Column 1,,
Scan Config Type:,Slew,,
Section 1,,
Start wavelength (nm):,900,,
End wavelength (nm):,1700,,
Pattern Pixel Width (nm):,   7.03,,,,
Exposure (ms):,  0.635,,,,
Digital Resolution:,228,,
Num Repeats:,6,,
PGA Gain:,64,,
Total Measurement Time in sec:,  2.725,,
Wavelength (nm),Absorbance (AU),Reference Signal (unitless),Sample Signal (unitless)
901.51,1.297859,108485,5464
905.376,1.326942,121306,5714
909.237,1.344591,131909,5966
913.095,1.319097,143299,6873
916.948,1.317271,156982,7561
922.079,1.298952,179937,9040
925.923,1.325269,200504,9481
929.762,1.326950,222660,10488
933.597,1.326469,244426,11526
937.427,1.323468,263972,12534
941.254,1.314242,281845,13670
945.076,1.310051,297271,14558
950.165,1.311821,315605,15393
953.978,1.314051,328029,15917
957.786,1.307442,340470,16774
961.59,1.313785,352317,17106
965.389,1.308384,363056,17848
969.185,1.301941,373162,18619
972.976,1.302567,382632,19064
976.763,1.305832,391202,19345
981.806,1.310165,400190,19593
985.583,1.300461,406088,20331
989.355,1.301117,410162,20504
993.124,1.297247,412868,20824
996.888,1.296341,414263,20938
1000.65,1.303500,415476,20656
1004.4,1.301971,415479,20729
1009.41,1.309174,414358,20333
1013.15,1.307027,412923,20363
1016.89,1.300193,411526,20616
1020.63,1.303272,409066,20348
1024.36,1.306204,406777,20098
1028.09,1.297359,404427,20393
1031.82,1.303382,401911,19987
1036.78,1.305952,398410,19696
1040.49,1.300268,396204,19845
1044.2,1.303833,394236,19585
1047.91,1.297304,392042,19771
1051.61,1.311566,389823,19024
1055.31,1.300397,388234,19440
1059,1.307508,387599,19093
1063.92,1.304376,386688,19186
1067.61,1.318775,386598,18556
1071.29,1.314068,387377,18796
1074.96,1.309582,388536,19048
1078.63,1.299601,389855,19557
1082.3,1.312840,391215,19036
1085.96,1.309681,393215,19273
1090.84,1.306667,396270,19558
1094.49,1.304639,398760,19773
1098.14,1.319241,400987,19226
1101.79,1.313585,403477,19599
1105.43,1.310277,406116,19878
1109.06,1.314137,407701,19779
1112.7,1.305395,409859,20288
1117.53,1.305383,412494,20419
1121.15,1.306008,414909,20509
1124.77,1.311027,416559,20354
1128.38,1.312226,418532,20394
1131.99,1.313914,419956,20384
1135.6,1.317119,421946,20330
1139.2,1.315893,423881,20481
1143.99,1.317715,426786,20535
1147.58,1.321992,428617,20421
1151.17,1.314668,431169,20892
1154.75,1.320574,433579,20725
1158.33,1.311044,436264,21316
1161.91,1.323614,439132,20844
1165.48,1.319325,442389,21207
1169.04,1.316692,446101,21515
1173.79,1.310030,451929,22133
1177.34,1.322270,456026,21713
1180.9,1.315567,461306,22306
1184.44,1.312526,467657,22772
1187.99,1.316712,473969,22858
1191.52,1.314725,479856,23248
1195.06,1.311740,487372,23775
1199.76,1.320941,497347,23753
1203.29,1.317700,504311,24266
1206.81,1.318181,511507,24585
1210.33,1.320343,519078,24825
1213.84,1.316581,527163,25431
1217.35,1.319793,534208,25581
1220.85,1.315069,540472,26164
1225.51,1.321956,549929,26203
1229.01,1.314758,556888,26978
1232.5,1.324227,562180,26647
1235.98,1.320399,567975,27160
1239.46,1.321952,574815,27389
1242.94,1.326458,582782,27482
1246.41,1.320273,591476,28292
1251.03,1.322667,604016,28733
1254.5,1.321901,612289,29178
1257.96,1.324067,619125,29357
1261.41,1.319606,624551,29920
1264.86,1.324487,629900,29839
1268.31,1.320138,634345,30352
1271.75,1.321581,638574,30453
1276.33,1.314805,642499,31122
1279.76,1.317185,645905,31116
1283.19,1.323950,648307,30749
1286.61,1.317209,650446,31333
1290.03,1.320223,652132,31197
1293.44,1.325811,653907,30882
1296.85,1.327596,655963,30852
1301.39,1.330488,657349,30712
1304.8,1.329948,657558,30760
1308.19,1.324397,658515,31201
1311.58,1.326429,658804,31069
1314.97,1.333342,659011,30588
1318.36,1.323472,658272,31256
1321.73,1.323502,658022,31242
1326.23,1.331766,657870,30646
1329.6,1.331856,656482,30575
1332.97,1.322455,654926,31170
1336.33,1.324007,653727,31002
1339.69,1.330108,652497,30512
1343.04,1.328541,649913,30501
1346.39,1.328495,647671,30399
1349.73,1.325103,645338,30527
1354.18,1.327070,641175,30193
1357.52,1.323118,638376,30336
1360.85,1.323691,635805,30174
1364.17,1.329048,633413,29692
1367.49,1.322969,631026,29997
1370.81,1.320569,628050,30021
1374.12,1.332011,625034,29100
1378.54,1.320206,620272,29674
1381.84,1.322335,616892,29368
1385.14,1.319060,613613,29433
1388.43,1.320943,611526,29206
1391.72,1.320850,610663,29171
1395.01,1.323862,610634,28968
1398.29,1.323736,611700,29027
1402.66,1.327547,614051,28884
1405.93,1.326609,616268,29051
1409.2,1.327878,617795,29038
1412.46,1.328096,618872,29074
1415.72,1.325188,619795,29313
1418.98,1.326746,620495,29241
1422.23,1.329095,621087,29111
1426.56,1.329118,621375,29123
1429.8,1.329764,621616,29091
1433.04,1.327784,622129,29248
1436.27,1.330672,621526,29026
1439.5,1.332288,621113,28899
1442.72,1.324541,620921,29410
1445.94,1.334124,620270,28738
1450.23,1.329599,618860,28973
1453.44,1.333878,617697,28635
1456.64,1.328869,616264,28900
1459.85,1.333098,614413,28534
1463.04,1.333330,612307,28421
1466.24,1.335211,610032,28193
1469.43,1.328941,607345,28477
1473.67,1.332040,603789,28109
1476.85,1.331238,601175,28039
1480.02,1.332528,597737,27796
1483.19,1.331014,594479,27741
1486.36,1.330943,591232,27594
1489.52,1.336572,587853,27083
1492.68,1.328680,583875,27393
1496.89,1.329743,578062,27054
1500.03,1.333058,574159,26667
1503.18,1.332175,570285,26541
1506.32,1.326627,565444,26654
1509.45,1.328956,560571,26283
1512.58,1.324897,555821,26305
1515.71,1.331784,550344,25636
1519.87,1.338010,543983,24979
1522.99,1.328398,538764,25293
1526.1,1.330220,533692,24950
1529.21,1.328364,527902,24785
1532.32,1.325688,521886,24654
1535.42,1.325949,515888,24356
1538.51,1.336917,509987,23477
1541.6,1.329427,503936,23602
1545.72,1.335679,494694,22838
1548.8,1.330155,488378,22835
1551.88,1.338346,481832,22108
1554.95,1.322479,474989,22605
1558.02,1.332039,467818,21779
1561.08,1.328149,460730,21642
1564.15,1.331949,454170,21148
1568.22,1.325548,444181,20990
1571.27,1.322616,436947,20788
1574.32,1.327088,429598,20229
1577.36,1.323607,422039,20033
1580.4,1.325226,414375,19596
1583.43,1.327371,406354,19122
1586.46,1.330212,398475,18629
1590.49,1.329214,388982,18227
1593.51,1.322530,380708,18116
1596.53,1.322413,372727,17741
1599.54,1.330640,365060,17050
1602.55,1.324261,357543,16946
1605.55,1.320335,349495,16715
1608.55,1.321803,341154,16261
1612.54,1.332626,330877,15383
1615.53,1.316394,322904,15584
1618.51,1.317285,315116,15177
1621.49,1.308152,307217,15111
1624.47,1.313894,299481,14537
1627.44,1.315807,292112,14117
1630.41,1.301190,284245,14207
1634.36,1.314416,274079,13288
1637.32,1.315011,266916,12923
1640.27,1.296656,259612,13112
1643.22,1.307466,251804,12405
1646.16,1.315722,244348,11811
1649.1,1.310570,236703,11578
1652.04,1.304759,228171,11311
1655.95,1.293967,215408,10947
1658.88,1.306440,204937,10120
1661.8,1.281866,193395,10106
1664.72,1.260167,179728,9873
1667.63,1.248834,163642,9227
1670.54,1.223619,146312,8743
1673.44,1.192600,128451,8244
1677.31,1.160045,105080,7269
1680.21,1.137758,88906,6474
1683.1,1.106762,75033,5868
1685.99,1.115114,63520,4873
1688.87,1.106942,53714,4199
1691.75,1.093268,45653,3683
1694.62,1.154837,39137,2740
1697.49,1.107333,33776,2638
1701.31,1.115812,28175,2158