Folder: textile_sorting_NIRSCAN_/ML/samples/unknown (part 8)

File: Column 1_078047_20241121_164253.csv
Method:,Column 1,,
Host Date-Time:,21/11/24 @ 16:42:53,,
Header Version:,1,,
System Temp (C):,30.74,,
Detector Temp (C):,25.49,,
Humidity (%):,5.36,,
Lamp PD:,3810,,
Shift Vector Coefficients:,-10.5391,0.0761263,-0.000134223,,
Pixel to Wavelength Coefficients:,1775.68,-0.916766,-0.000235065,,
Serial Number:,5510004,,
Scan Config Name:,Column 1,,
Scan Config Type:,Slew,,
Section 1,,
Start wavelength (nm):,900,,
End wavelength (nm):,1700,,
Pattern Pixel Width (nm):,   7.03,,,,
Exposure (ms):,  0.635,,,,
Digital Resolution:,228,,
Num Repeats:,6,,
PGA Gain:,64,,
Total Measurement Time in sec:,  2.734,,
Wavelength (nm),Absorbance (AU),Reference Signal (unitless),Sample Signal (unitless)
901.51,1.285093,108485,5627
905.376,1.304142,121306,6022
909.237,1.328373,131909,6193
913.095,1.305352,143299,7094
916.948,1.301645,156982,7838
922.079,1.315701,179937,8698
925.923,1.317101,200504,9661
929.762,1.317569,222660,10717
933.597,1.330405,244426,11422
937.427,1.318953,263972,12665
941.254,1.323781,281845,13373
945.076,1.299500,297271,14916
950.165,1.318273,315605,15166
953.978,1.305620,328029,16229
957.786,1.308817,340470,16721
961.59,1.304094,352317,17492
965.389,1.310042,363056,17780
969.185,1.300730,373162,18671
972.976,1.310244,382632,18730
976.763,1.298266,391202,19685
981.806,1.309877,400190,19606
985.583,1.309680,406088,19904
989.355,1.299637,410162,20574
993.124,1.311989,412868,20129
996.888,1.308498,414263,20360
1000.65,1.302345,415476,20711
1004.4,1.316435,415479,20050
1009.41,1.306449,414358,20461
1013.15,1.313516,412923,20061
1016.89,1.314629,411526,19942
1020.63,1.309506,409066,20058
1024.36,1.306571,406777,20081
1028.09,1.314806,404427,19590
1031.82,1.314162,401911,19497
1036.78,1.306614,398410,19666
1040.49,1.299022,396204,19902
1044.2,1.316226,394236,19034
1047.91,1.313050,392042,19067
1051.61,1.311383,389823,19032
1055.31,1.310683,388234,18985
1059,1.315173,387599,18759
1063.92,1.307625,386688,19043
1067.61,1.304887,386598,19159
1071.29,1.308649,387377,19032
1074.96,1.314028,388536,18854
1078.63,1.315546,389855,18852
1082.3,1.308436,391215,19230
1085.96,1.309320,393215,19289
1090.84,1.317345,396270,19083
1094.49,1.311546,398760,19461
1098.14,1.323760,400987,19027
1101.79,1.317056,403477,19443
1105.43,1.321274,406116,19381
1109.06,1.319640,407701,19530
1112.7,1.311974,409859,19983
1117.53,1.318161,412494,19827
1121.15,1.326562,414909,19561
1124.77,1.323340,416559,19785
1128.38,1.317367,418532,20154
1131.99,1.316800,419956,20249
1135.6,1.312995,421946,20524
1139.2,1.319833,423881,20296
1143.99,1.312523,426786,20782
1147.58,1.322908,428617,20378
1151.17,1.312097,431169,21016
1154.75,1.320532,433579,20727
1158.33,1.320747,436264,20845
1161.91,1.320334,439132,21002
1165.48,1.317282,442389,21307
1169.04,1.319121,446101,21395
1173.79,1.315997,451929,21831
1177.34,1.324616,456026,21596
1180.9,1.314537,461306,22359
1184.44,1.314802,467657,22653
1187.99,1.319246,473969,22725
1191.52,1.323348,479856,22791
1195.06,1.318960,487372,23383
1199.76,1.323214,497347,23629
1203.29,1.317611,504311,24271
1206.81,1.323084,511507,24309
1210.33,1.322694,519078,24691
1213.84,1.322773,527163,25071
1217.35,1.355203,534208,23578
1220.85,1.319524,540472,25897
1225.51,1.340495,549929,25108
1229.01,1.327500,556888,26198
1232.5,1.328848,562180,26365
1235.98,1.318453,567975,27282
1239.46,1.323461,574815,27294
1242.94,1.321539,582782,27795
1246.41,1.318267,591476,28423
1251.03,1.326722,604016,28466
1254.5,1.321648,612289,29195
1257.96,1.329350,619125,29002
1261.41,1.326910,624551,29421
1264.86,1.329435,629900,29501
1268.31,1.326117,634345,29937
1271.75,1.327208,638574,30061
1276.33,1.330216,642499,30037
1279.76,1.331314,645905,30120
1283.19,1.327666,648307,30487
1286.61,1.334529,650446,30108
1290.03,1.328231,652132,30627
1293.44,1.330363,653907,30560
1296.85,1.329614,655963,30709
1301.39,1.327416,657349,30930
1304.8,1.330866,657558,30695
1308.19,1.332929,658515,30594
1311.58,1.327409,658804,30999
1314.97,1.331090,659011,30747
1318.36,1.330913,658272,30725
1321.73,1.331640,658022,30662
1326.23,1.333627,657870,30515
1329.6,1.334306,656482,30403
1332.97,1.332491,654926,30458
1336.33,1.332166,653727,30425
1339.69,1.327214,652497,30716
1343.04,1.335546,649913,30013
1346.39,1.329854,647671,30304
1349.73,1.332666,645338,30000
1354.18,1.330725,641175,29940
1357.52,1.330438,638376,29829
1360.85,1.333693,635805,29487
1364.17,1.324508,633413,30004
1367.49,1.333135,631026,29303
1370.81,1.327422,628050,29551
1374.12,1.327128,625034,29429
1378.54,1.321995,620272,29552
1381.84,1.335288,616892,28505
1385.14,1.325796,613613,28980
1388.43,1.323463,611526,29037
1391.72,1.326801,610663,28774
1395.01,1.325876,610634,28834
1398.29,1.328475,611700,28712
1402.66,1.326946,614051,28924
1405.93,1.335733,616268,28447
1409.2,1.330503,617795,28863
1412.46,1.333099,618872,28741
1415.72,1.329192,619795,29044
1418.98,1.333120,620495,28815
1422.23,1.328976,621087,29119
1426.56,1.333088,621375,28858
1429.8,1.339455,621616,28449
1433.04,1.328081,622129,29228
1436.27,1.334353,621526,28781
1439.5,1.331327,621113,28963
1442.72,1.332665,620921,28865
1445.94,1.325787,620270,29295
1450.23,1.337251,618860,28467
1453.44,1.339665,617697,28256
1456.64,1.335990,616264,28430
1459.85,1.336244,614413,28328
1463.04,1.341739,612307,27876
1466.24,1.333397,610032,28311
1469.43,1.338034,607345,27887
1473.67,1.326406,603789,28476
1476.85,1.338139,601175,27597
1480.02,1.332590,597737,27792
1483.19,1.332143,594479,27669
1486.36,1.332725,591232,27481
1489.52,1.333552,587853,27272
1492.68,1.337667,583875,26832
1496.89,1.343259,578062,26225
1500.03,1.339787,574159,26257
1503.18,1.339219,570285,26114
1506.32,1.339190,565444,25894
1509.45,1.336775,560571,25814
1512.58,1.338821,555821,25475
1515.71,1.339199,550344,25202
1519.87,1.341852,543983,24759
1522.99,1.331310,538764,25124
1526.1,1.335791,533692,24632
1529.21,1.331054,527902,24632
1532.32,1.345069,521886,23578
1535.42,1.340841,515888,23535
1538.51,1.337824,509987,23428
1541.6,1.334684,503936,23318
1545.72,1.336516,494694,22794
1548.8,1.330193,488378,22833
1551.88,1.331795,481832,22444
1554.95,1.337192,474989,21852
1558.02,1.336187,467818,21572
1561.08,1.341124,460730,21005
1564.15,1.336034,454170,20950
1568.22,1.336718,444181,20457
1571.27,1.332719,436947,20310
1574.32,1.336090,429598,19814
1577.36,1.341644,422039,19218
1580.4,1.322112,414375,19737
1583.43,1.330471,406354,18986
1586.46,1.335937,398475,18385
1590.49,1.327265,388982,18309
1593.51,1.332300,380708,17713
1596.53,1.329819,372727,17441
1599.54,1.331915,365060,17000
1602.55,1.339651,357543,16356
1605.55,1.330641,349495,16323
1608.55,1.330735,341154,15930
1612.54,1.321615,330877,15778
1615.53,1.325263,322904,15269
1618.51,1.329090,315116,14770
1621.49,1.316597,307217,14820
1624.47,1.319911,299481,14337
1627.44,1.327247,292112,13750
1630.41,1.326426,284245,13405
1634.36,1.310512,274079,13408
1637.32,1.312933,266916,12985
1640.27,1.328285,259612,12191
1643.22,1.320004,251804,12052
1646.16,1.318156,244348,11745
1649.1,1.316462,236703,11422
1652.04,1.319680,228171,10929
1655.95,1.312155,215408,10498
1658.88,1.320971,204937,9787
1661.8,1.324076,193395,9170
1664.72,1.311517,179728,8772
1667.63,1.318914,163642,7852
1670.54,1.353303,146312,6486
1673.44,1.318382,128451,6171
1677.31,1.304182,105080,5216
1680.21,1.308052,88906,4374
1683.1,1.293075,75033,3821
1685.99,1.302949,63520,3162
1688.87,1.321000,53714,2565
1691.75,1.218246,45653,2762
1694.62,1.267483,39137,2114
1697.49,1.376626,33776,1419
1701.31,1.282547,28175,1470

File: Column 1_078050_20241121_164302.csv
Method:,Column 1,,
Host Date-Time:,21/11/24 @ 16:43:2,,
Header Version:,1,,
System Temp (C):,30.86,,
Detector Temp (C):,25.64,,
Humidity (%):,5.37,,
Lamp PD:,3810,,
Shift Vector Coefficients:,-10.5391,0.0761263,-0.000134223,,
Pixel to Wavelength Coefficients:,1775.68,-0.916766,-0.000235065,,
Serial Number:,5510004,,
Scan Config Name:,Column 1,,
Scan Config Type:,Slew,,
Section 1,,
Start wavelength (nm):,900,,
End wavelength (nm):,1700,,
Pattern Pixel Width (nm):,   7.03,,,,
Exposure (ms):,  0.635,,,,
Digital Resolution:,228,,
Num Repeats:,6,,
PGA Gain:,64,,
Total Measurement Time in sec:,  2.707,,
Wavelength (nm),Absorbance (AU),Reference Signal (unitless),Sample Signal (unitless)
901.51,1.308805,108485,5328
905.376,1.332680,121306,5639
909.237,1.304431,131909,6544
913.095,1.308979,143299,7035
916.948,1.301645,156982,7838
922.079,1.318858,179937,8635
925.923,1.323577,200504,9518
929.762,1.308228,222660,10950
933.597,1.307160,244426,12050
937.427,1.317994,263972,12693
941.254,1.311708,281845,13750
945.076,1.317604,297271,14307
950.165,1.318244,315605,15167
953.978,1.303352,328029,16314
957.786,1.303242,340470,16937
961.59,1.312999,352317,17137
965.389,1.306951,363056,17907
969.185,1.307646,373162,18376
972.976,1.311800,382632,18663
976.763,1.306057,391202,19335
981.806,1.300846,400190,20018
985.583,1.310969,406088,19845
989.355,1.308810,410162,20144
993.124,1.314065,412868,20033
996.888,1.304930,414263,20528
1000.65,1.306559,415476,20511
1004.4,1.309388,415479,20378
1009.41,1.312519,414358,20177
1013.15,1.306281,412923,20398
1016.89,1.315784,411526,19889
1020.63,1.317129,409066,19709
1024.36,1.312384,406777,19814
1028.09,1.302716,404427,20143
1031.82,1.309421,401911,19711
1036.78,1.303227,398410,19820
1040.49,1.305995,396204,19585
1044.2,1.314155,394236,19125
1047.91,1.318136,392042,18845
1051.61,1.314107,389823,18913
1055.31,1.306245,388234,19180
1059,1.304810,387599,19212
1063.92,1.310623,386688,18912
1067.61,1.319595,386598,18521
1071.29,1.322444,387377,18437
1074.96,1.314742,388536,18823
1078.63,1.312859,389855,18969
1082.3,1.314531,391215,18962
1085.96,1.320195,393215,18812
1090.84,1.321300,396270,18910
1094.49,1.314480,398760,19330
1098.14,1.312695,400987,19518
1101.79,1.311198,403477,19707
1105.43,1.323746,406116,19271
1109.06,1.313172,407701,19823
1112.7,1.323469,409859,19461
1117.53,1.329658,412494,19309
1121.15,1.325697,414909,19600
1124.77,1.322726,416559,19813
1128.38,1.321351,418532,19970
1131.99,1.329488,419956,19666
1135.6,1.316650,421946,20352
1139.2,1.322710,423881,20162
1143.99,1.316828,426786,20577
1147.58,1.311196,428617,20935
1151.17,1.321730,431169,20555
1154.75,1.318567,433579,20821
1158.33,1.321895,436264,20790
1161.91,1.320376,439132,21000
1165.48,1.314418,442389,21448
1169.04,1.324205,446101,21146
1173.79,1.311130,451929,22077
1177.34,1.315975,456026,22030
1180.9,1.315684,461306,22300
1184.44,1.321447,467657,22309
1187.99,1.327640,473969,22290
1191.52,1.327907,479856,22553
1195.06,1.316460,487372,23518
1199.76,1.314102,497347,24130
1203.29,1.322994,504311,23972
1206.81,1.317511,511507,24623
1210.33,1.329126,519078,24328
1213.84,1.323397,527163,25035
1217.35,1.332506,534208,24843
1220.85,1.330305,540472,25262
1225.51,1.320880,549929,26268
1229.01,1.326242,556888,26274
1232.5,1.323738,562180,26677
1235.98,1.323175,567975,26987
1239.46,1.326879,574815,27080
1242.94,1.321774,582782,27780
1246.41,1.330006,591476,27665
1251.03,1.325960,604016,28516
1254.5,1.326796,612289,28851
1257.96,1.324911,619125,29300
1261.41,1.330557,624551,29175
1264.86,1.332152,629900,29317
1268.31,1.332342,634345,29511
1271.75,1.325017,638574,30213
1276.33,1.326975,642499,30262
1279.76,1.327781,645905,30366
1283.19,1.328193,648307,30450
1286.61,1.325380,650446,30749
1290.03,1.328713,652132,30593
1293.44,1.331473,653907,30482
1296.85,1.333492,655963,30436
1301.39,1.334280,657349,30445
1304.8,1.334675,657558,30427
1308.19,1.333825,658515,30531
1311.58,1.335354,658804,30437
1314.97,1.337249,659011,30314
1318.36,1.333195,658272,30564
1321.73,1.329211,658022,30834
1326.23,1.334539,657870,30451
1329.6,1.331885,656482,30573
1332.97,1.329125,654926,30695
1336.33,1.335994,653727,30158
1339.69,1.330108,652497,30512
1343.04,1.333309,649913,30168
1346.39,1.333944,647671,30020
1349.73,1.332709,645338,29997
1354.18,1.329147,641175,30049
1357.52,1.328433,638376,29967
1360.85,1.327217,635805,29930
1364.17,1.333103,633413,29416
1367.49,1.328873,631026,29592
1370.81,1.326380,628050,29622
1374.12,1.326067,625034,29501
1378.54,1.337280,620272,28530
1381.84,1.328531,616892,28952
1385.14,1.324225,613613,29085
1388.43,1.327279,611526,28783
1391.72,1.324033,610663,28958
1395.01,1.333029,610634,28363
1398.29,1.326468,611700,28845
1402.66,1.323342,614051,29165
1405.93,1.337937,616268,28303
1409.2,1.330924,617795,28835
1412.46,1.335630,618872,28574
1415.72,1.338120,619795,28453
1418.98,1.332156,620495,28879
1422.23,1.328469,621087,29153
1426.56,1.331645,621375,28954
1429.8,1.331484,621616,28976
1433.04,1.333389,622129,28873
1436.27,1.335698,621526,28692
1439.5,1.332228,621113,28903
1442.72,1.341004,620921,28316
1445.94,1.334291,620270,28727
1450.23,1.339239,618860,28337
1453.44,1.332470,617697,28728
1456.64,1.329681,616264,28846
1459.85,1.335341,614413,28387
1463.04,1.338016,612307,28116
1466.24,1.339780,610032,27898
1469.43,1.338938,607345,27829
1473.67,1.341253,603789,27519
1476.85,1.335847,601175,27743
1480.02,1.334109,597737,27695
1483.19,1.337370,594479,27338
1486.36,1.339398,591232,27062
1489.52,1.347155,587853,26431
1492.68,1.345391,583875,26359
1496.89,1.343176,578062,26230
1500.03,1.336426,574159,26461
1503.18,1.338139,570285,26179
1506.32,1.339610,565444,25869
1509.45,1.333774,560571,25993
1512.58,1.342794,555821,25243
1515.71,1.337188,550344,25319
1519.87,1.335497,543983,25124
1522.99,1.336684,538764,24815
1526.1,1.337841,533692,24516
1529.21,1.338576,527902,24209
1532.32,1.343763,521886,23649
1535.42,1.339294,515888,23619
1538.51,1.346247,509987,22978
1541.6,1.339422,503936,23065
1545.72,1.337432,494694,22746
1548.8,1.342971,488378,22171
1551.88,1.346016,481832,21721
1554.95,1.333275,474989,22050
1558.02,1.336166,467818,21573
1561.08,1.340339,460730,21043
1564.15,1.334152,454170,21041
1568.22,1.338313,444181,20382
1571.27,1.339160,436947,20011
1574.32,1.339899,429598,19641
1577.36,1.336902,422039,19429
1580.4,1.336519,414375,19093
1583.43,1.328987,406354,19051
1586.46,1.337404,398475,18323
1590.49,1.330407,388982,18177
1593.51,1.335203,380708,17595
1596.53,1.331891,372727,17358
1599.54,1.328227,365060,17145
1602.55,1.335871,357543,16499
1605.55,1.334946,349495,16162
1608.55,1.324724,341154,16152
1612.54,1.336824,330877,15235
1615.53,1.339546,322904,14775
1618.51,1.320588,315116,15062
1621.49,1.324224,307217,14562
1624.47,1.314941,299481,14502
1627.44,1.328290,292112,13717
1630.41,1.318147,284245,13663
1634.36,1.315922,274079,13242
1637.32,1.331519,266916,12441
1640.27,1.325233,259612,12277
1643.22,1.326137,251804,11883
1646.16,1.317048,244348,11775
1649.1,1.319208,236703,11350
1652.04,1.316986,228171,10997
1655.95,1.319793,215408,10315
1658.88,1.305368,204937,10145
1661.8,1.306442,193395,9550
1664.72,1.312260,179728,8757
1667.63,1.321689,163642,7802
1670.54,1.309943,146312,7167
1673.44,1.303033,128451,6393
1677.31,1.344187,105080,4757
1680.21,1.320644,88906,4249
1683.1,1.298796,75033,3771
1685.99,1.361372,63520,2764
1688.87,1.330760,53714,2508
1691.75,1.340572,45653,2084
1694.62,1.303222,39137,1947
1697.49,1.295866,33776,1709
1701.31,1.322435,28175,1341

File: Column 1_078055_20241121_164316.csv
Method:,Column 1,,
Host Date-Time:,21/11/24 @ 16:43:16,,
Header Version:,1,,
System Temp (C):,31.04,,
Detector Temp (C):,25.79,,
Humidity (%):,5.37,,
Lamp PD:,3809,,
Shift Vector Coefficients:,-10.5391,0.0761263,-0.000134223,,
Pixel to Wavelength Coefficients:,1775.68,-0.916766,-0.000235065,,
Serial Number:,5510004,,
Scan Config Name:,Column 1,,
Scan Config Type:,Slew,,
Section 1,,
Start wavelength (nm):,900,,
End wavelength (nm):,1700,,
Pattern Pixel Width (nm):,   7.03,,,,
Exposure (ms):,  0.635,,,,
Digital Resolution:,228,,
Num Repeats:,6,,
PGA Gain:,64,,
Total Measurement Time in sec:,  2.706,,
Wavelength (nm),Absorbance (AU),Reference Signal (unitless),Sample Signal (unitless)
901.51,1.298416,108485,5457
905.376,1.319781,121306,5809
909.237,1.302313,131909,6576
913.095,1.309906,143299,7020
916.948,1.314294,156982,7613
922.079,1.317803,179937,8656
925.923,1.305874,200504,9914
929.762,1.313977,222660,10806
933.597,1.315898,244426,11810
937.427,1.302170,263972,13164
941.254,1.302798,281845,14035
945.076,1.307522,297271,14643
950.165,1.314992,315605,15281
953.978,1.305513,328029,16233
957.786,1.310795,340470,16645
961.59,1.309717,352317,17267
965.389,1.312516,363056,17679
969.185,1.299267,373162,18734
972.976,1.298689,382632,19235
976.763,1.305990,391202,19338
981.806,1.311097,400190,19551
985.583,1.309265,406088,19923
989.355,1.308250,410162,20170
993.124,1.312550,412868,20103
996.888,1.310958,414263,20245
1000.65,1.309001,415476,20396
1004.4,1.308664,415479,20412
1009.41,1.314504,414358,20085
1013.15,1.312004,412923,20131
1016.89,1.314781,411526,19935
1020.63,1.311698,409066,19957
1024.36,1.305405,406777,20135
1028.09,1.313146,404427,19665
1031.82,1.313139,401911,19543
1036.78,1.315539,398410,19266
1040.49,1.317545,396204,19071
1044.2,1.309188,394236,19345
1047.91,1.315197,392042,18973
1051.61,1.306843,389823,19232
1055.31,1.310843,388234,18978
1059,1.309058,387599,19025
1063.92,1.306896,386688,19075
1067.61,1.303348,386598,19227
1071.29,1.309083,387377,19013
1074.96,1.315551,388536,18788
1078.63,1.320550,389855,18636
1082.3,1.316345,391215,18883
1085.96,1.317847,393215,18914
1090.84,1.313718,396270,19243
1094.49,1.315717,398760,19275
1098.14,1.316135,400987,19364
1101.79,1.309000,403477,19807
1105.43,1.319173,406116,19475
1109.06,1.319484,407701,19537
1112.7,1.321310,409859,19558
1117.53,1.314019,412494,20017
1121.15,1.315687,414909,20057
1124.77,1.320823,416559,19900
1128.38,1.317669,418532,20140
1131.99,1.323413,419956,19943
1135.6,1.327387,421946,19855
1139.2,1.317763,423881,20393
1143.99,1.322736,426786,20299
1147.58,1.322950,428617,20376
1151.17,1.321540,431169,20564
1154.75,1.320092,433579,20748
1158.33,1.318897,436264,20934
1161.91,1.322407,439132,20902
1165.48,1.315898,442389,21375
1169.04,1.319486,446101,21377
1173.79,1.313814,451929,21941
1177.34,1.315325,456026,22063
1180.9,1.324041,461306,21875
1184.44,1.314744,467657,22656
1187.99,1.317929,473969,22794
1191.52,1.324645,479856,22723
1195.06,1.315372,487372,23577
1199.76,1.322865,497347,23648
1203.29,1.322867,504311,23979
1206.81,1.320555,511507,24451
1210.33,1.321166,519078,24778
1213.84,1.319116,527163,25283
1217.35,1.320983,534208,25511
1220.85,1.326250,540472,25499
1225.51,1.326504,549929,25930
1229.01,1.325037,556888,26347
1232.5,1.323185,562180,26711
1235.98,1.326827,567975,26761
1239.46,1.319675,574815,27533
1242.94,1.319871,582782,27902
1246.41,1.326489,591476,27890
1251.03,1.320286,604016,28891
1254.5,1.323153,612289,29094
1257.96,1.322855,619125,29439
1261.41,1.328197,624551,29334
1264.86,1.324779,629900,29819
1268.31,1.324322,634345,30061
1271.75,1.330660,638574,29823
1276.33,1.328931,642499,30126
1279.76,1.326011,645905,30490
1283.19,1.329722,648307,30343
1286.61,1.324661,650446,30800
1290.03,1.338955,652132,29880
1293.44,1.334016,653907,30304
1296.85,1.327948,655963,30827
1301.39,1.328780,657349,30833
1304.8,1.330499,657558,30721
1308.19,1.334038,658515,30516
1311.58,1.336755,658804,30339
1314.97,1.332646,659011,30637
1318.36,1.331550,658272,30680
1321.73,1.334839,658022,30437
1326.23,1.328674,657870,30865
1329.6,1.332411,656482,30536
1332.97,1.334434,654926,30322
1336.33,1.328032,653727,30716
1339.69,1.331148,652497,30439
1343.04,1.327816,649913,30552
1346.39,1.331678,647671,30177
1349.73,1.327171,645338,30382
1354.18,1.334952,641175,29650
1357.52,1.327536,638376,30029
1360.85,1.330714,635805,29690
1364.17,1.329443,633413,29665
1367.49,1.320400,631026,30175
1370.81,1.325223,628050,29701
1374.12,1.329080,625034,29297
1378.54,1.324294,620272,29396
1381.84,1.326794,616892,29068
1385.14,1.326997,613613,28900
1388.43,1.329063,611526,28665
1391.72,1.327602,610663,28721
1395.01,1.332922,610634,28370
1398.29,1.334139,611700,28340
1402.66,1.325133,614051,29045
1405.93,1.325593,616268,29119
1409.2,1.332569,617795,28726
1412.46,1.333810,618872,28694
1415.72,1.330840,619795,28934
1418.98,1.329981,620495,29024
1422.23,1.335816,621087,28664
1426.56,1.328492,621375,29165
1429.8,1.333994,621616,28809
1433.04,1.335484,622129,28734
1436.27,1.334580,621526,28766
1439.5,1.333597,621113,28812
1442.72,1.336959,620921,28581
1445.94,1.329988,620270,29013
1450.23,1.331507,618860,28846
1453.44,1.329472,617697,28927
1456.64,1.333112,616264,28619
1459.85,1.328842,614413,28815
1463.04,1.337090,612307,28176
1466.24,1.337699,610032,28032
1469.43,1.332033,607345,28275
1473.67,1.339017,603789,27661
1476.85,1.331517,601175,28021
1480.02,1.330439,597737,27930
1483.19,1.335183,594479,27476
1486.36,1.334055,591232,27397
1489.52,1.337567,587853,27021
1492.68,1.340150,583875,26679
1496.89,1.333969,578062,26792
1500.03,1.345263,574159,25928
1503.18,1.346565,570285,25676
1506.32,1.341208,565444,25774
1509.45,1.338529,560571,25710
1512.58,1.342536,555821,25258
1515.71,1.337308,550344,25312
1519.87,1.345251,543983,24566
1522.99,1.336877,538764,24804
1526.1,1.342275,533692,24267
1529.21,1.334505,527902,24437
1532.32,1.335450,521886,24106
1535.42,1.340767,515888,23539
1538.51,1.342558,509987,23174
1541.6,1.334386,503936,23334
1545.72,1.335431,494694,22851
1548.8,1.335225,488378,22570
1551.88,1.336406,481832,22207
1554.95,1.330840,474989,22174
1558.02,1.339663,467818,21400
1561.08,1.340876,460730,21017
1564.15,1.335020,454170,20999
1568.22,1.337249,444181,20432
1571.27,1.336046,436947,20155
1574.32,1.344053,429598,19454
1577.36,1.333695,422039,19573
1580.4,1.338389,414375,19011
1583.43,1.331410,406354,18945
1586.46,1.322151,398475,18978
1590.49,1.338364,388982,17847
1593.51,1.336142,380708,17557
1596.53,1.338115,372727,17111
1599.54,1.326155,365060,17227
1602.55,1.337083,357543,16453
1605.55,1.317589,349495,16821
1608.55,1.325047,341154,16140
1612.54,1.323490,330877,15710
1615.53,1.330413,322904,15089
1618.51,1.333939,315116,14606
1621.49,1.322023,307217,14636
1624.47,1.327674,299481,14083
1627.44,1.319421,292112,14000
1630.41,1.322459,284245,13528
1634.36,1.325237,274079,12961
1637.32,1.311630,266916,13024
1640.27,1.316720,259612,12520
1643.22,1.302800,251804,12539
1646.16,1.312827,244348,11890
1649.1,1.316044,236703,11433
1652.04,1.309780,228171,11181
1655.95,1.316688,215408,10389
1658.88,1.321148,204937,9783
1661.8,1.296506,193395,9771
1664.72,1.328634,179728,8433
1667.63,1.329156,163642,7669
1670.54,1.335205,146312,6762
1673.44,1.350659,128451,5729
1677.31,1.340641,105080,4796
1680.21,1.344489,88906,4022
1683.1,1.353461,75033,3325
1685.99,1.346696,63520,2859
1688.87,1.319142,53714,2576
1691.75,1.370550,45653,1945
1694.62,1.381734,39137,1625
1697.49,1.264263,33776,1838
1701.31,1.168376,28175,1912