Folder: textile_sorting_NIRSCAN_/ML/samples/unknown (part 118)

File: Column 1_078876_20241121_172627.csv
Method:,Column 1,,
Host Date-Time:,21/11/24 @ 17:26:27,,
Header Version:,1,,
System Temp (C):,37.59,,
Detector Temp (C):,36.12,,
Humidity (%):,0.98,,
Lamp PD:,3796,,
Shift Vector Coefficients:,-10.5391,0.0761263,-0.000134223,,
Pixel to Wavelength Coefficients:,1775.68,-0.916766,-0.000235065,,
Serial Number:,5510004,,
Scan Config Name:,Column 1,,
Scan Config Type:,Slew,,
Section 1,,
Start wavelength (nm):,900,,
End wavelength (nm):,1700,,
Pattern Pixel Width (nm):,   7.03,,,,
Exposure (ms):,  0.635,,,,
Digital Resolution:,228,,
Num Repeats:,6,,
PGA Gain:,64,,
Total Measurement Time in sec:,  2.725,,
Wavelength (nm),Absorbance (AU),Reference Signal (unitless),Sample Signal (unitless)
901.51,1.316619,108485,5233
905.376,1.299693,121306,6084
909.237,1.311591,131909,6437
913.095,1.279564,143299,7528
916.948,1.330509,156982,7334
922.079,1.319261,179937,8627
925.923,1.320440,200504,9587
929.762,1.323198,222660,10579
933.597,1.323091,244426,11616
937.427,1.311406,263972,12887
941.254,1.316408,281845,13602
945.076,1.304361,297271,14750
950.165,1.312470,315605,15370
953.978,1.308036,328029,16139
957.786,1.309050,340470,16712
961.59,1.306334,352317,17402
965.389,1.297143,363056,18316
969.185,1.304796,373162,18497
972.976,1.302750,382632,19056
976.763,1.299658,391202,19622
981.806,1.303653,400190,19889
985.583,1.315081,406088,19658
989.355,1.308594,410162,20154
993.124,1.305522,412868,20431
996.888,1.303789,414263,20582
1000.65,1.302576,415476,20700
1004.4,1.302621,415479,20698
1009.41,1.311036,414358,20246
1013.15,1.306601,412923,20383
1016.89,1.298385,411526,20702
1020.63,1.298982,409066,20550
1024.36,1.298812,406777,20443
1028.09,1.307202,404427,19936
1031.82,1.306851,401911,19828
1036.78,1.298975,398410,20015
1040.49,1.310274,396204,19393
1044.2,1.295487,394236,19965
1047.91,1.299330,392042,19679
1051.61,1.305918,389823,19273
1055.31,1.311324,388234,18957
1059,1.313463,387599,18833
1063.92,1.308516,386688,19004
1067.61,1.302694,386598,19256
1071.29,1.300713,387377,19383
1074.96,1.308830,388536,19081
1078.63,1.309370,389855,19122
1082.3,1.315311,391215,18928
1085.96,1.315968,393215,18996
1090.84,1.313403,396270,19257
1094.49,1.306422,398760,19692
1098.14,1.308157,400987,19723
1101.79,1.318196,403477,19392
1105.43,1.311393,406116,19827
1109.06,1.307189,407701,20098
1112.7,1.311735,409859,19994
1117.53,1.313563,412494,20038
1121.15,1.315644,414909,20059
1124.77,1.310089,416559,20398
1128.38,1.317906,418532,20129
1131.99,1.308641,419956,20633
1135.6,1.318103,421946,20284
1139.2,1.309996,423881,20761
1143.99,1.313339,426786,20743
1147.58,1.313818,428617,20809
1151.17,1.311953,431169,21023
1154.75,1.305985,433579,21433
1158.33,1.320539,436264,20855
1161.91,1.310318,439132,21492
1165.48,1.308865,442389,21724
1169.04,1.315000,446101,21599
1173.79,1.311603,451929,22053
1177.34,1.305747,456026,22555
1180.9,1.311112,461306,22536
1184.44,1.313519,467657,22720
1187.99,1.313965,473969,23003
1191.52,1.316222,479856,23168
1195.06,1.320244,487372,23314
1199.76,1.321435,497347,23726
1203.29,1.313426,504311,24506
1206.81,1.318464,511507,24569
1210.33,1.316720,519078,25033
1213.84,1.319856,527163,25240
1217.35,1.316562,534208,25772
1220.85,1.321929,540472,25754
1225.51,1.317930,549929,26447
1229.01,1.319680,556888,26674
1232.5,1.326367,562180,26516
1235.98,1.318612,567975,27272
1239.46,1.318635,574815,27599
1242.94,1.317604,582782,28048
1246.41,1.320673,591476,28266
1251.03,1.315651,604016,29201
1254.5,1.323362,612289,29080
1257.96,1.318423,619125,29741
1261.41,1.322256,624551,29738
1264.86,1.316284,629900,30408
1268.31,1.320783,634345,30307
1271.75,1.328061,638574,30002
1276.33,1.318871,642499,30832
1279.76,1.321336,645905,30820
1283.19,1.321064,648307,30954
1286.61,1.323323,650446,30895
1290.03,1.329993,652132,30503
1293.44,1.323650,653907,31036
1296.85,1.331385,655963,30584
1301.39,1.324073,657349,31169
1304.8,1.325509,657558,31076
1308.19,1.322896,658515,31309
1311.58,1.328980,658804,30887
1314.97,1.327503,659011,31002
1318.36,1.327955,658272,30935
1321.73,1.326179,658022,31050
1326.23,1.329688,657870,30793
1329.6,1.337489,656482,30181
1332.97,1.326599,654926,30874
1336.33,1.321395,653727,31189
1339.69,1.324325,652497,30921
1343.04,1.323206,649913,30878
1346.39,1.325974,647671,30576
1349.73,1.323258,645338,30657
1354.18,1.325749,641175,30285
1357.52,1.319071,638376,30620
1360.85,1.327232,635805,29929
1364.17,1.320001,633413,30317
1367.49,1.323795,631026,29940
1370.81,1.324303,628050,29764
1374.12,1.330134,625034,29226
1378.54,1.324604,620272,29375
1381.84,1.320034,616892,29524
1385.14,1.323137,613613,29158
1388.43,1.323000,611526,29068
1391.72,1.325505,610663,28860
1395.01,1.323922,610634,28964
1398.29,1.317807,611700,29426
1402.66,1.329748,614051,28738
1405.93,1.329865,616268,28834
1409.2,1.326310,617795,29143
1412.46,1.325742,618872,29232
1415.72,1.326791,619795,29205
1418.98,1.320348,620495,29675
1422.23,1.325766,621087,29335
1426.56,1.333283,621375,28845
1429.8,1.330182,621616,29063
1433.04,1.327057,622129,29297
1436.27,1.329492,621526,29105
1439.5,1.331042,621113,28982
1442.72,1.329263,620921,29092
1445.94,1.326529,620270,29245
1450.23,1.325081,618860,29276
1453.44,1.329878,617697,28900
1456.64,1.329591,616264,28852
1459.85,1.326977,614413,28939
1463.04,1.326854,612307,28848
1466.24,1.330157,610032,28523
1469.43,1.333017,607345,28211
1473.67,1.330051,603789,28238
1476.85,1.330650,601175,28077
1480.02,1.329880,597737,27966
1483.19,1.334551,594479,27516
1486.36,1.330047,591232,27651
1489.52,1.333823,587853,27255
1492.68,1.329331,583875,27352
1496.89,1.329807,578062,27050
1500.03,1.336393,574159,26463
1503.18,1.328298,570285,26779
1506.32,1.331461,565444,26359
1509.45,1.332606,560571,26063
1512.58,1.334158,555821,25750
1515.71,1.337462,550344,25303
1519.87,1.331299,543983,25368
1522.99,1.334659,538764,24931
1526.1,1.335174,533692,24667
1529.21,1.331230,527902,24622
1532.32,1.334191,521886,24176
1535.42,1.327289,515888,24281
1538.51,1.328471,509987,23938
1541.6,1.329592,503936,23593
1545.72,1.334615,494694,22894
1548.8,1.329205,488378,22885
1551.88,1.325704,481832,22761
1554.95,1.333847,474989,22021
1558.02,1.332238,467818,21769
1561.08,1.320136,460730,22045
1564.15,1.329778,454170,21254
1568.22,1.331904,444181,20685
1571.27,1.319017,436947,20961
1574.32,1.320843,429598,20522
1577.36,1.327330,422039,19862
1580.4,1.331207,414375,19328
1583.43,1.328782,406354,19060
1586.46,1.329722,398475,18650
1590.49,1.316465,388982,18770
1593.51,1.319448,380708,18245
1596.53,1.335030,372727,17233
1599.54,1.313411,365060,17740
1602.55,1.326187,357543,16871
1605.55,1.314220,349495,16952
1608.55,1.321403,341154,16276
1612.54,1.324459,330877,15675
1615.53,1.319667,322904,15467
1618.51,1.313807,315116,15299
1621.49,1.314813,307217,14881
1624.47,1.314044,299481,14532
1627.44,1.307338,292112,14395
1630.41,1.319484,284245,13621
1634.36,1.322831,274079,13033
1637.32,1.315146,266916,12919
1640.27,1.303230,259612,12915
1643.22,1.305614,251804,12458
1646.16,1.304650,244348,12116
1649.1,1.304129,236703,11751
1652.04,1.292270,228171,11641
1655.95,1.294364,215408,10937
1658.88,1.305711,204937,10137
1661.8,1.275213,193395,10262
1664.72,1.261709,179728,9838
1667.63,1.239475,163642,9428
1670.54,1.219664,146312,8823
1673.44,1.197101,128451,8159
1677.31,1.171916,105080,7073
1680.21,1.115147,88906,6820
1683.1,1.116340,75033,5740
1685.99,1.132850,63520,4678
1688.87,1.137356,53714,3915
1691.75,1.115277,45653,3501
1694.62,1.122324,39137,2953
1697.49,1.149121,33776,2396
1701.31,1.116014,28175,2157

File: Column 1_078880_20241121_172638.csv
Method:,Column 1,,
Host Date-Time:,21/11/24 @ 17:26:38,,
Header Version:,1,,
System Temp (C):,37.55,,
Detector Temp (C):,36.13,,
Humidity (%):,1.03,,
Lamp PD:,3796,,
Shift Vector Coefficients:,-10.5391,0.0761263,-0.000134223,,
Pixel to Wavelength Coefficients:,1775.68,-0.916766,-0.000235065,,
Serial Number:,5510004,,
Scan Config Name:,Column 1,,
Scan Config Type:,Slew,,
Section 1,,
Start wavelength (nm):,900,,
End wavelength (nm):,1700,,
Pattern Pixel Width (nm):,   7.03,,,,
Exposure (ms):,  0.635,,,,
Digital Resolution:,228,,
Num Repeats:,6,,
PGA Gain:,64,,
Total Measurement Time in sec:,  2.725,,
Wavelength (nm),Absorbance (AU),Reference Signal (unitless),Sample Signal (unitless)
901.51,1.305072,108485,5374
905.376,1.333451,121306,5629
909.237,1.322868,131909,6272
913.095,1.327906,143299,6735
916.948,1.302366,156982,7825
922.079,1.340619,179937,8213
925.923,1.330801,200504,9361
929.762,1.315830,222660,10760
933.597,1.330938,244426,11408
937.427,1.322949,263972,12549
941.254,1.325050,281845,13334
945.076,1.323779,297271,14105
950.165,1.311144,315605,15417
953.978,1.317338,328029,15797
957.786,1.319598,340470,16311
961.59,1.309918,352317,17259
965.389,1.300595,363056,18171
969.185,1.310754,373162,18245
972.976,1.304485,382632,18980
976.763,1.305047,391202,19380
981.806,1.297517,400190,20172
985.583,1.303290,406088,20199
989.355,1.316817,410162,19776
993.124,1.319343,412868,19791
996.888,1.309139,414263,20330
1000.65,1.307004,415476,20490
1004.4,1.308664,415479,20412
1009.41,1.308108,414358,20383
1013.15,1.305494,412923,20435
1016.89,1.304682,411526,20404
1020.63,1.305304,409066,20253
1024.36,1.310111,406777,19918
1028.09,1.316806,404427,19500
1031.82,1.305517,401911,19889
1036.78,1.306548,398410,19669
1040.49,1.304402,396204,19657
1044.2,1.312025,394236,19219
1047.91,1.308113,392042,19285
1051.61,1.302194,389823,19439
1055.31,1.312839,388234,18891
1059,1.309629,387599,19000
1063.92,1.312441,386688,18833
1067.61,1.310752,386598,18902
1071.29,1.306147,387377,19142
1074.96,1.305746,388536,19217
1078.63,1.307851,389855,19189
1082.3,1.316483,391215,18877
1085.96,1.314690,393215,19052
1090.84,1.312681,396270,19289
1094.49,1.311078,398760,19482
1098.14,1.305282,400987,19854
1101.79,1.308015,403477,19852
1105.43,1.325326,406116,19201
1109.06,1.311576,407701,19896
1112.7,1.321488,409859,19550
1117.53,1.327392,412494,19410
1121.15,1.309901,414909,20326
1124.77,1.316934,416559,20079
1128.38,1.314447,418532,20290
1131.99,1.310942,419956,20524
1135.6,1.312635,421946,20541
1139.2,1.316169,423881,20468
1143.99,1.322522,426786,20309
1147.58,1.319469,428617,20540
1151.17,1.318425,431169,20712
1154.75,1.311799,433579,21148
1158.33,1.316147,436264,21067
1161.91,1.322033,439132,20920
1165.48,1.322532,442389,21051
1169.04,1.315764,446101,21561
1173.79,1.318731,451929,21694
1177.34,1.311601,456026,22253
1180.9,1.315490,461306,22310
1184.44,1.310339,467657,22887
1187.99,1.326822,473969,22332
1191.52,1.321389,479856,22894
1195.06,1.315556,487372,23567
1199.76,1.318480,497347,23888
1203.29,1.314686,504311,24435
1206.81,1.319384,511507,24517
1210.33,1.319574,519078,24869
1213.84,1.321200,527163,25162
1217.35,1.317845,534208,25696
1220.85,1.322367,540472,25728
1225.51,1.320219,549929,26308
1229.01,1.317212,556888,26826
1232.5,1.321805,562180,26796
1235.98,1.317896,567975,27317
1239.46,1.322920,574815,27328
1242.94,1.316120,582782,28144
1246.41,1.321103,591476,28238
1251.03,1.323727,604016,28663
1254.5,1.325263,612289,28953
1257.96,1.327065,619125,29155
1261.41,1.325216,624551,29536
1264.86,1.324691,629900,29825
1268.31,1.326088,634345,29939
1271.75,1.323683,638574,30306
1276.33,1.322875,642499,30549
1279.76,1.325755,645905,30508
1283.19,1.328622,648307,30420
1286.61,1.319140,650446,31194
1290.03,1.326801,652132,30728
1293.44,1.327459,653907,30765
1296.85,1.334950,655963,30334
1301.39,1.326546,657349,30992
1304.8,1.329087,657558,30821
1308.19,1.332093,658515,30653
1311.58,1.332694,658804,30624
1314.97,1.331387,659011,30726
1318.36,1.325575,658272,31105
1321.73,1.323835,658022,31218
1326.23,1.332362,657870,30604
1329.6,1.324197,656482,31119
1332.97,1.327346,654926,30821
1336.33,1.329476,653727,30614
1339.69,1.327950,652497,30664
1343.04,1.328783,649913,30484
1346.39,1.327411,647671,30475
1349.73,1.327543,645338,30356
1354.18,1.324232,641175,30391
1357.52,1.319185,638376,30612
1360.85,1.326116,635805,30006
1364.17,1.328273,633413,29745
1367.49,1.329416,631026,29555
1370.81,1.328894,628050,29451
1374.12,1.324319,625034,29620
1378.54,1.328794,620272,29093
1381.84,1.326301,616892,29101
1385.14,1.323509,613613,29133
1388.43,1.333510,611526,28373
1391.72,1.320077,610663,29223
1395.01,1.328535,610634,28658
1398.29,1.323706,611700,29029
1402.66,1.327607,614051,28880
1405.93,1.326788,616268,29039
1409.2,1.323532,617795,29330
1412.46,1.331847,618872,28824
1415.72,1.324625,619795,29351
1418.98,1.330505,620495,28989
1422.23,1.332014,621087,28916
1426.56,1.323841,621375,29479
1429.8,1.326684,621616,29298
1433.04,1.331767,622129,28981
1436.27,1.331541,621526,28968
1439.5,1.331687,621113,28939
1442.72,1.329069,620921,29105
1445.94,1.330662,620270,28968
1450.23,1.332200,618860,28800
1453.44,1.335398,617697,28535
1456.64,1.327369,616264,29000
1459.85,1.335892,614413,28351
1463.04,1.332444,612307,28479
1466.24,1.335535,610032,28172
1469.43,1.330454,607345,28378
1473.67,1.332519,603789,28078
1476.85,1.335347,601175,27775
1480.02,1.329492,597737,27991
1483.19,1.331500,594479,27710
1486.36,1.330676,591232,27611
1489.52,1.332868,587853,27315
1492.68,1.325678,583875,27583
1496.89,1.335821,578062,26678
1500.03,1.338169,574159,26355
1503.18,1.336979,570285,26249
1506.32,1.337082,565444,26020
1509.45,1.330810,560571,26171
1512.58,1.333197,555821,25807
1515.71,1.335117,550344,25440
1519.87,1.336137,543983,25087
1522.99,1.332227,538764,25071
1526.1,1.335086,533692,24672
1529.21,1.341330,527902,24056
1532.32,1.330257,521886,24396
1535.42,1.335796,515888,23810
1538.51,1.325578,509987,24098
1541.6,1.327242,503936,23721
1545.72,1.337222,494694,22757
1548.8,1.329965,488378,22845
1551.88,1.339743,481832,22037
1554.95,1.335269,474989,21949
1558.02,1.336529,467818,21555
1561.08,1.328189,460730,21640
1564.15,1.327841,454170,21349
1568.22,1.332640,444181,20650
1571.27,1.335981,436947,20158
1574.32,1.330363,429598,20077
1577.36,1.325671,422039,19938
1580.4,1.338343,414375,19013
1583.43,1.333893,406354,18837
1586.46,1.332549,398475,18529
1590.49,1.328476,388982,18258
1593.51,1.332349,380708,17711
1596.53,1.326323,372727,17582
1599.54,1.328987,365060,17115
1602.55,1.320002,357543,17113
1605.55,1.323699,349495,16586
1608.55,1.316310,341154,16468
1612.54,1.320241,330877,15828
1615.53,1.317706,322904,15537
1618.51,1.311994,315116,15363
1621.49,1.310746,307217,15021
1624.47,1.318308,299481,14390
1627.44,1.319670,292112,13992
1630.41,1.317575,284245,13681
1634.36,1.315267,274079,13262
1637.32,1.307978,266916,13134
1640.27,1.317554,259612,12496
1643.22,1.302142,251804,12558
1646.16,1.305654,244348,12088
1649.1,1.302874,236703,11785
1652.04,1.311609,228171,11134
1655.95,1.304203,215408,10692
1658.88,1.282277,204937,10699
1661.8,1.264636,193395,10515
1664.72,1.262239,179728,9826
1667.63,1.251525,163642,9170
1670.54,1.219024,146312,8836
1673.44,1.187884,128451,8334
1677.31,1.193634,105080,6728
1680.21,1.158224,88906,6176
1683.1,1.152618,75033,5280
1685.99,1.171264,63520,4282
1688.87,1.131954,53714,3964
1691.75,1.114410,45653,3508
1694.62,1.116481,39137,2993
1697.49,1.121047,33776,2556
1701.31,1.167922,28175,1914

File: Column 1_078881_20241121_172641.csv
Method:,Column 1,,
Host Date-Time:,21/11/24 @ 17:26:41,,
Header Version:,1,,
System Temp (C):,37.54,,
Detector Temp (C):,36.13,,
Humidity (%):,0.98,,
Lamp PD:,3796,,
Shift Vector Coefficients:,-10.5391,0.0761263,-0.000134223,,
Pixel to Wavelength Coefficients:,1775.68,-0.916766,-0.000235065,,
Serial Number:,5510004,,
Scan Config Name:,Column 1,,
Scan Config Type:,Slew,,
Section 1,,
Start wavelength (nm):,900,,
End wavelength (nm):,1700,,
Pattern Pixel Width (nm):,   7.03,,,,
Exposure (ms):,  0.635,,,,
Digital Resolution:,228,,
Num Repeats:,6,,
PGA Gain:,64,,
Total Measurement Time in sec:,  2.724,,
Wavelength (nm),Absorbance (AU),Reference Signal (unitless),Sample Signal (unitless)
901.51,1.316121,108485,5239
905.376,1.309438,121306,5949
909.237,1.330694,131909,6160
913.095,1.307746,143299,7055
916.948,1.327793,156982,7380
922.079,1.324630,179937,8521
925.923,1.307278,200504,9882
929.762,1.319112,222660,10679
933.597,1.341184,244426,11142
937.427,1.326179,263972,12456
941.254,1.315514,281845,13630
945.076,1.319795,297271,14235
950.165,1.328823,315605,14802
953.978,1.305540,328029,16232
957.786,1.307520,340470,16771
961.59,1.301298,352317,17605
965.389,1.316192,363056,17530
969.185,1.312542,373162,18170
972.976,1.314180,382632,18561
976.763,1.317966,391202,18812
981.806,1.301519,400190,19987
985.583,1.311407,406088,19825
989.355,1.304370,410162,20351
993.124,1.302577,412868,20570
996.888,1.303873,414263,20578
1000.65,1.306686,415476,20505
1004.4,1.305526,415479,20560
1009.41,1.308470,414358,20366
1013.15,1.305027,412923,20457
1016.89,1.304023,411526,20435
1020.63,1.309138,409066,20075
1024.36,1.299684,406777,20402
1028.09,1.302738,404427,20142
1031.82,1.299898,401911,20148
1036.78,1.304455,398410,19764
1040.49,1.296368,396204,20024
1044.2,1.311416,394236,19246
1047.91,1.314739,392042,18993
1051.61,1.317103,389823,18783
1055.31,1.310340,388234,19000
1059,1.316587,387599,18698
1063.92,1.320142,386688,18502
1067.61,1.311074,386598,18888
1071.29,1.302059,387377,19323
1074.96,1.306786,388536,19171
1078.63,1.309961,389855,19096
1082.3,1.303675,391215,19442
1085.96,1.308084,393215,19344
1090.84,1.310481,396270,19387
1094.49,1.310054,398760,19528
1098.14,1.311606,400987,19567
1101.79,1.316029,403477,19489
1105.43,1.323791,406116,19269
1109.06,1.325798,407701,19255
1112.7,1.314458,409859,19869
1117.53,1.317351,412494,19864
1121.15,1.320915,414909,19817
1124.77,1.314325,416559,20200
1128.38,1.310759,418532,20463
1131.99,1.318929,419956,20150
1135.6,1.311685,421946,20586
1139.2,1.318722,423881,20348
1143.99,1.318795,426786,20484
1147.58,1.311736,428617,20909
1151.17,1.313111,431169,20967
1154.75,1.318650,433579,20817
1158.33,1.317778,436264,20988
1161.91,1.319529,439132,21041
1165.48,1.314499,442389,21444
1169.04,1.316894,446101,21505
1173.79,1.315142,451929,21874
1177.34,1.309926,456026,22339
1180.9,1.313625,461306,22406
1184.44,1.316492,467657,22565
1187.99,1.321738,473969,22595
1191.52,1.318515,479856,23046
1195.06,1.315888,487372,23549
1199.76,1.315870,497347,24032
1203.29,1.322505,504311,23999
1206.81,1.319827,511507,24492
1210.33,1.329126,519078,24328
1213.84,1.323727,527163,25016
1217.35,1.319776,534208,25582
1220.85,1.318552,540472,25955
1225.51,1.317799,549929,26455
1229.01,1.320413,556888,26629
1232.5,1.316458,562180,27128
1235.98,1.320879,567975,27130
1239.46,1.317488,574815,27672
1242.94,1.319326,582782,27937
1246.41,1.315647,591476,28595
1251.03,1.320933,604016,28848
1254.5,1.314888,612289,29653
1257.96,1.324303,619125,29341
1261.41,1.320129,624551,29884
1264.86,1.319639,629900,30174
1268.31,1.321758,634345,30239
1271.75,1.323912,638574,30290
1276.33,1.317549,642499,30926
1279.76,1.327266,645905,30402
1283.19,1.324261,648307,30727
1286.61,1.326427,650446,30675
1290.03,1.329737,652132,30521
1293.44,1.326768,653907,30814
1296.85,1.330123,655963,30673
1301.39,1.325245,657349,31085
1304.8,1.325831,657558,31053
1308.19,1.323716,658515,31250
1311.58,1.327058,658804,31024
1314.97,1.327489,659011,31003
1318.36,1.329080,658272,30855
1321.73,1.331725,658022,30656
1326.23,1.325757,657870,31073
1329.6,1.329081,656482,30771
1332.97,1.329238,654926,30687
1336.33,1.331125,653727,30498
1339.69,1.333279,652497,30290
1343.04,1.327631,649913,30565
1346.39,1.326087,647671,30568
1349.73,1.324861,645338,30544
1354.18,1.326682,641175,30220
1357.52,1.327854,638376,30007
1360.85,1.328729,635805,29826
1364.17,1.330483,633413,29594
1367.49,1.330593,631026,29475
1370.81,1.323982,628050,29786
1374.12,1.330893,625034,29175
1378.54,1.325433,620272,29319
1381.84,1.316430,616892,29770
1385.14,1.322006,613613,29234
1388.43,1.324062,611526,28997
1391.72,1.329709,610663,28582
1395.01,1.330647,610634,28519
1398.29,1.327750,611700,28760
1402.66,1.325567,614051,29016
1405.93,1.331162,616268,28748
1409.2,1.332615,617795,28723
1412.46,1.330643,618872,28904
1415.72,1.322338,619795,29506
1418.98,1.323992,620495,29427
1422.23,1.334847,621087,28728
1426.56,1.323164,621375,29525
1429.8,1.326077,621616,29339
1433.04,1.326539,622129,29332
1436.27,1.329343,621526,29115
1439.5,1.328026,621113,29184
1442.72,1.331508,620921,28942
1445.94,1.331067,620270,28941
1450.23,1.334392,618860,28655
1453.44,1.330795,617697,28839
1456.64,1.329455,616264,28861
1459.85,1.329687,614413,28759
1463.04,1.333636,612307,28401
1466.24,1.331225,610032,28453
1469.43,1.331204,607345,28329
1473.67,1.329421,603789,28279
1476.85,1.328367,601175,28225
1480.02,1.327448,597737,28123
1483.19,1.333086,594479,27609
1486.36,1.336726,591232,27229
1489.52,1.332550,587853,27335
1492.68,1.337068,583875,26869
1496.89,1.331770,578062,26928
1500.03,1.331400,574159,26769
1503.18,1.335130,570285,26361
1506.32,1.336982,565444,26026
1509.45,1.335733,560571,25876
1512.58,1.334343,555821,25739
1515.71,1.334759,550344,25461
1519.87,1.335756,543983,25109
1522.99,1.335863,538764,24862
1526.1,1.328847,533692,25029
1529.21,1.334399,527902,24443
1532.32,1.328161,521886,24514
1535.42,1.332525,515888,23990
1538.51,1.339626,509987,23331
1541.6,1.329629,503936,23591
1545.72,1.339345,494694,22646
1548.8,1.335225,488378,22570
1551.88,1.331834,481832,22442
1554.95,1.337471,474989,21838
1558.02,1.328840,467818,21940
1561.08,1.328310,460730,21634
1564.15,1.333307,454170,21082
1568.22,1.325444,444181,20995
1571.27,1.334691,436947,20218
1574.32,1.327668,429598,20202
1577.36,1.322502,422039,20084
1580.4,1.330623,414375,19354
1583.43,1.330402,406354,18989
1586.46,1.326105,398475,18806
1590.49,1.320323,388982,18604
1593.51,1.329782,380708,17816
1596.53,1.326570,372727,17572
1599.54,1.337779,365060,16772
1602.55,1.321527,357543,17053
1605.55,1.327169,349495,16454
1608.55,1.308728,341154,16758
1612.54,1.323767,330877,15700
1615.53,1.317958,322904,15528
1618.51,1.316798,315116,15194
1621.49,1.312456,307217,14962
1624.47,1.330117,299481,14004
1627.44,1.333130,292112,13565
1630.41,1.317163,284245,13694
1634.36,1.315660,274079,13250
1637.32,1.317539,266916,12848
1640.27,1.300816,259612,12987
1643.22,1.312997,251804,12248
1646.16,1.312937,244348,11887
1649.1,1.293073,236703,12054
1652.04,1.310480,228171,11163
1655.95,1.280760,215408,11285
1658.88,1.290142,204937,10507
1661.8,1.300480,193395,9682
1664.72,1.276207,179728,9515
1667.63,1.256287,163642,9070
1670.54,1.217161,146312,8874
1673.44,1.230388,128451,7557
1677.31,1.205212,105080,6551
1680.21,1.180811,88906,5863
1683.1,1.123358,75033,5648
1685.99,1.129245,63520,4717
1688.87,1.145417,53714,3843
1691.75,1.124936,45653,3424
1694.62,1.123797,39137,2943
1697.49,1.144972,33776,2419
1701.31,1.161168,28175,1944