Folder: textile_sorting_NIRSCAN_/ML/samples/unknown (part 66)

File: Column 1_078453_20241121_170325.csv
Method:,Column 1,,
Host Date-Time:,21/11/24 @ 17:3:25,,
Header Version:,1,,
System Temp (C):,34.77,,
Detector Temp (C):,33.8,,
Humidity (%):,1.86,,
Lamp PD:,3802,,
Shift Vector Coefficients:,-10.5391,0.0761263,-0.000134223,,
Pixel to Wavelength Coefficients:,1775.68,-0.916766,-0.000235065,,
Serial Number:,5510004,,
Scan Config Name:,Column 1,,
Scan Config Type:,Slew,,
Section 1,,
Start wavelength (nm):,900,,
End wavelength (nm):,1700,,
Pattern Pixel Width (nm):,   7.03,,,,
Exposure (ms):,  0.635,,,,
Digital Resolution:,228,,
Num Repeats:,6,,
PGA Gain:,64,,
Total Measurement Time in sec:,  2.701,,
Wavelength (nm),Absorbance (AU),Reference Signal (unitless),Sample Signal (unitless)
901.51,1.324660,108485,5137
905.376,1.296634,121306,6127
909.237,1.312469,131909,6424
913.095,1.309411,143299,7028
916.948,1.337132,156982,7223
922.079,1.308914,179937,8835
925.923,1.333360,200504,9306
929.762,1.314621,222660,10790
933.597,1.321114,244426,11669
937.427,1.330208,263972,12341
941.254,1.322258,281845,13420
945.076,1.307315,297271,14650
950.165,1.316187,315605,15239
953.978,1.323233,328029,15584
957.786,1.310378,340470,16661
961.59,1.310044,352317,17254
965.389,1.293319,363056,18478
969.185,1.305948,373162,18448
972.976,1.303228,382632,19035
976.763,1.307226,391202,19283
981.806,1.301627,400190,19982
985.583,1.318296,406088,19513
989.355,1.310646,410162,20059
993.124,1.303570,412868,20523
996.888,1.308605,414263,20355
1000.65,1.311093,415476,20298
1004.4,1.307325,415479,20475
1009.41,1.307320,414358,20420
1013.15,1.302149,412923,20593
1016.89,1.308681,411526,20217
1020.63,1.312373,409066,19926
1024.36,1.312647,406777,19802
1028.09,1.310921,404427,19766
1031.82,1.310591,401911,19658
1036.78,1.309295,398410,19545
1040.49,1.310632,396204,19377
1044.2,1.306859,394236,19449
1047.91,1.310122,392042,19196
1051.61,1.314636,389823,18890
1055.31,1.308697,388234,19072
1059,1.313717,387599,18822
1063.92,1.314244,386688,18755
1067.61,1.315534,386598,18695
1071.29,1.306737,387377,19116
1074.96,1.309035,388536,19072
1078.63,1.309824,389855,19102
1082.3,1.309024,391215,19204
1085.96,1.312597,393215,19144
1090.84,1.316004,396270,19142
1094.49,1.308013,398760,19620
1098.14,1.310697,400987,19608
1101.79,1.309022,403477,19806
1105.43,1.311305,406116,19831
1109.06,1.321847,407701,19431
1112.7,1.308985,409859,20121
1117.53,1.316674,412494,19895
1121.15,1.320367,414909,19842
1124.77,1.320344,416559,19922
1128.38,1.324362,418532,19832
1131.99,1.313510,419956,20403
1135.6,1.323468,421946,20035
1139.2,1.316699,423881,20443
1143.99,1.316638,426786,20586
1147.58,1.313401,428617,20829
1151.17,1.321519,431169,20565
1154.75,1.316507,433579,20920
1158.33,1.321269,436264,20820
1161.91,1.316526,439132,21187
1165.48,1.319427,442389,21202
1169.04,1.313514,446101,21673
1173.79,1.317591,451929,21751
1177.34,1.310043,456026,22333
1180.9,1.311132,461306,22535
1184.44,1.327090,467657,22021
1187.99,1.311725,473969,23122
1191.52,1.312954,479856,23343
1195.06,1.323835,487372,23122
1199.76,1.315870,497347,24032
1203.29,1.315273,504311,24402
1206.81,1.329220,511507,23968
1210.33,1.317988,519078,24960
1213.84,1.318087,527163,25343
1217.35,1.324435,534208,25309
1220.85,1.317850,540472,25997
1225.51,1.324149,549929,26071
1229.01,1.323112,556888,26464
1232.5,1.327762,562180,26431
1235.98,1.319266,567975,27231
1239.46,1.321762,574815,27401
1242.94,1.321258,582782,27813
1246.41,1.319752,591476,28326
1251.03,1.327531,604016,28413
1254.5,1.319600,612289,29333
1257.96,1.325474,619125,29262
1261.41,1.325672,624551,29505
1264.86,1.324167,629900,29861
1268.31,1.327119,634345,29868
1271.75,1.327251,638574,30058
1276.33,1.323530,642499,30503
1279.76,1.323710,645905,30652
1283.19,1.326983,648307,30535
1286.61,1.328001,650446,30564
1290.03,1.325926,652132,30790
1293.44,1.330675,653907,30538
1296.85,1.328724,655963,30772
1301.39,1.328034,657349,30886
1304.8,1.326993,657558,30970
1308.19,1.330128,658515,30792
1311.58,1.327619,658804,30984
1314.97,1.327755,659011,30984
1318.36,1.330786,658272,30734
1321.73,1.332093,658022,30630
1326.23,1.328027,657870,30911
1329.6,1.333850,656482,30435
1332.97,1.330414,654926,30604
1336.33,1.333796,653727,30311
1339.69,1.332434,652497,30349
1343.04,1.326184,649913,30667
1346.39,1.335117,647671,29939
1349.73,1.331076,645338,30110
1354.18,1.324932,641175,30342
1357.52,1.331137,638376,29781
1360.85,1.330071,635805,29734
1364.17,1.325856,633413,29911
1367.49,1.324245,631026,29909
1370.81,1.330667,628050,29331
1374.12,1.329466,625034,29271
1378.54,1.326917,620272,29219
1381.84,1.326077,616892,29116
1385.14,1.329544,613613,28731
1388.43,1.320824,611526,29214
1391.72,1.324964,610663,28896
1395.01,1.323203,610634,29012
1398.29,1.323422,611700,29048
1402.66,1.327442,614051,28891
1405.93,1.328316,616268,28937
1409.2,1.331030,617795,28828
1412.46,1.330598,618872,28907
1415.72,1.328579,619795,29085
1418.98,1.330071,620495,29018
1422.23,1.335482,621087,28686
1426.56,1.328760,621375,29147
1429.8,1.325722,621616,29363
1433.04,1.330480,622129,29067
1436.27,1.334565,621526,28767
1439.5,1.330354,621113,29028
1442.72,1.338771,620921,28462
1445.94,1.334049,620270,28743
1450.23,1.335500,618860,28582
1453.44,1.334683,617697,28582
1456.64,1.338841,616264,28244
1459.85,1.332246,614413,28590
1463.04,1.331972,612307,28510
1466.24,1.335396,610032,28181
1469.43,1.328636,607345,28497
1473.67,1.334255,603789,27966
1476.85,1.334831,601175,27808
1480.02,1.336546,597737,27540
1483.19,1.335136,594479,27479
1486.36,1.333326,591232,27443
1489.52,1.336588,587853,27082
1492.68,1.335294,583875,26979
1496.89,1.335333,578062,26708
1500.03,1.330849,574159,26803
1503.18,1.332207,570285,26539
1506.32,1.335416,565444,26120
1509.45,1.341580,560571,25530
1512.58,1.332390,555821,25855
1515.71,1.328930,550344,25805
1519.87,1.338933,543983,24926
1522.99,1.331725,538764,25100
1526.1,1.335157,533692,24668
1529.21,1.331901,527902,24584
1532.32,1.340944,521886,23803
1535.42,1.334958,515888,23856
1538.51,1.335347,509987,23562
1541.6,1.335392,503936,23280
1545.72,1.339403,494694,22643
1548.8,1.331851,488378,22746
1551.88,1.330829,481832,22494
1554.95,1.332173,474989,22106
1558.02,1.336247,467818,21569
1561.08,1.333073,460730,21398
1564.15,1.334090,454170,21044
1568.22,1.334368,444181,20568
1571.27,1.334948,436947,20206
1574.32,1.339987,429598,19637
1577.36,1.323672,422039,20030
1580.4,1.337134,414375,19066
1583.43,1.335186,406354,18781
1586.46,1.333864,398475,18473
1590.49,1.327811,388982,18286
1593.51,1.319472,380708,18244
1596.53,1.323025,372727,17716
1599.54,1.325072,365060,17270
1602.55,1.317194,357543,17224
1605.55,1.314169,349495,16954
1608.55,1.327205,341154,16060
1612.54,1.336824,330877,15235
1615.53,1.316032,322904,15597
1618.51,1.321454,315116,15032
1621.49,1.307147,307217,15146
1624.47,1.303154,299481,14901
1627.44,1.330640,292112,13643
1630.41,1.323713,284245,13489
1634.36,1.317960,274079,13180
1637.32,1.322024,266916,12716
1640.27,1.302156,259612,12947
1643.22,1.300933,251804,12593
1646.16,1.311478,244348,11927
1649.1,1.317985,236703,11382
1652.04,1.303073,228171,11355
1655.95,1.293768,215408,10952
1658.88,1.278076,204937,10803
1661.8,1.308813,193395,9498
1664.72,1.247679,179728,10161
1667.63,1.245552,163642,9297
1670.54,1.233365,146312,8549
1673.44,1.204780,128451,8016
1677.31,1.206740,105080,6528
1680.21,1.168902,88906,6026
1683.1,1.176195,75033,5001
1685.99,1.168836,63520,4306
1688.87,1.147229,53714,3827
1691.75,1.151074,45653,3224
1694.62,1.159138,39137,2713
1697.49,1.119860,33776,2563
1701.31,1.223780,28175,1683

File: Column 1_078459_20241121_170342.csv
Method:,Column 1,,
Host Date-Time:,21/11/24 @ 17:3:42,,
Header Version:,1,,
System Temp (C):,34.68,,
Detector Temp (C):,33.78,,
Humidity (%):,1.86,,
Lamp PD:,3802,,
Shift Vector Coefficients:,-10.5391,0.0761263,-0.000134223,,
Pixel to Wavelength Coefficients:,1775.68,-0.916766,-0.000235065,,
Serial Number:,5510004,,
Scan Config Name:,Column 1,,
Scan Config Type:,Slew,,
Section 1,,
Start wavelength (nm):,900,,
End wavelength (nm):,1700,,
Pattern Pixel Width (nm):,   7.03,,,,
Exposure (ms):,  0.635,,,,
Digital Resolution:,228,,
Num Repeats:,6,,
PGA Gain:,64,,
Total Measurement Time in sec:,  2.702,,
Wavelength (nm),Absorbance (AU),Reference Signal (unitless),Sample Signal (unitless)
901.51,1.324745,108485,5136
905.376,1.339120,121306,5556
909.237,1.320245,131909,6310
913.095,1.332899,143299,6658
916.948,1.322181,156982,7476
922.079,1.332966,179937,8359
925.923,1.346051,200504,9038
929.762,1.339468,222660,10190
933.597,1.334148,244426,11324
937.427,1.323260,263972,12540
941.254,1.323457,281845,13383
945.076,1.321813,297271,14169
950.165,1.309625,315605,15471
953.978,1.317503,328029,15791
957.786,1.326983,340470,16036
961.59,1.315489,352317,17039
965.389,1.310140,363056,17776
969.185,1.313236,373162,18141
972.976,1.317185,382632,18433
976.763,1.318590,391202,18785
981.806,1.316079,400190,19328
985.583,1.312130,406088,19792
989.355,1.318710,410162,19690
993.124,1.310696,412868,20189
996.888,1.302651,414263,20636
1000.65,1.314832,415476,20124
1004.4,1.305019,415479,20584
1009.41,1.320360,414358,19816
1013.15,1.313365,412923,20068
1016.89,1.310575,411526,20129
1020.63,1.320980,409066,19535
1024.36,1.318076,406777,19556
1028.09,1.308861,404427,19860
1031.82,1.315948,401911,19417
1036.78,1.311612,398410,19441
1040.49,1.312452,396204,19296
1044.2,1.305566,394236,19507
1047.91,1.311550,392042,19133
1051.61,1.307544,389823,19201
1055.31,1.312655,388234,18899
1059,1.325576,387599,18315
1063.92,1.319040,386688,18549
1067.61,1.322772,386598,18386
1071.29,1.310250,387377,18962
1074.96,1.308603,388536,19091
1078.63,1.323849,389855,18495
1082.3,1.313000,391215,19029
1085.96,1.312802,393215,19135
1090.84,1.315256,396270,19175
1094.49,1.321136,398760,19036
1098.14,1.318249,400987,19270
1101.79,1.319183,403477,19348
1105.43,1.324558,406116,19235
1109.06,1.316427,407701,19675
1112.7,1.321332,409859,19557
1117.53,1.317351,412494,19864
1121.15,1.319143,414909,19898
1124.77,1.319211,416559,19974
1128.38,1.315432,418532,20244
1131.99,1.326670,419956,19794
1135.6,1.327496,421946,19850
1139.2,1.320862,423881,20248
1143.99,1.327490,426786,20078
1147.58,1.323164,428617,20366
1151.17,1.331646,431169,20091
1154.75,1.329016,433579,20326
1158.33,1.315817,436264,21083
1161.91,1.324991,439132,20778
1165.48,1.319448,442389,21201
1169.04,1.318959,446101,21403
1173.79,1.324230,451929,21421
1177.34,1.320015,456026,21826
1180.9,1.318674,461306,22147
1184.44,1.321623,467657,22300
1187.99,1.320356,473969,22667
1191.52,1.320745,479856,22928
1195.06,1.323854,487372,23121
1199.76,1.314336,497347,24117
1203.29,1.320753,504311,24096
1206.81,1.320768,511507,24439
1210.33,1.326563,519078,24472
1213.84,1.325240,527163,24929
1217.35,1.320201,534208,25557
1220.85,1.329309,540472,25320
1225.51,1.330053,549929,25719
1229.01,1.332502,556888,25898
1232.5,1.327335,562180,26457
1235.98,1.327330,567975,26730
1239.46,1.323302,574815,27304
1242.94,1.325526,582782,27541
1246.41,1.330163,591476,27655
1251.03,1.320662,604016,28866
1254.5,1.325623,612289,28929
1257.96,1.328318,619125,29071
1261.41,1.325113,624551,29543
1264.86,1.329038,629900,29528
1268.31,1.329291,634345,29719
1271.75,1.328380,638574,29980
1276.33,1.330187,642499,30039
1279.76,1.330119,645905,30203
1283.19,1.330654,648307,30278
1286.61,1.332242,650446,30267
1290.03,1.328572,652132,30603
1293.44,1.335667,653907,30189
1296.85,1.329006,655963,30752
1301.39,1.328921,657349,30823
1304.8,1.335647,657558,30359
1308.19,1.333810,658515,30532
1311.58,1.327633,658804,30983
1314.97,1.332420,659011,30653
1318.36,1.329277,658272,30841
1321.73,1.334368,658022,30470
1326.23,1.334938,657870,30423
1329.6,1.330750,656482,30653
1332.97,1.328941,654926,30708
1336.33,1.332952,653727,30370
1339.69,1.331434,652497,30419
1343.04,1.329625,649913,30425
1346.39,1.332629,647671,30111
1349.73,1.329910,645338,30191
1354.18,1.332323,641175,29830
1357.52,1.331677,638376,29744
1360.85,1.332296,635805,29582
1364.17,1.330146,633413,29617
1367.49,1.330461,631026,29484
1370.81,1.334654,628050,29063
1374.12,1.334901,625034,28907
1378.54,1.327988,620272,29147
1381.84,1.330154,616892,28844
1385.14,1.331726,613613,28587
1388.43,1.330976,611526,28539
1391.72,1.331384,610663,28472
1395.01,1.332983,610634,28366
1398.29,1.333679,611700,28370
1402.66,1.331429,614051,28627
1405.93,1.332690,616268,28647
1409.2,1.334782,617795,28580
1412.46,1.330237,618872,28931
1415.72,1.331050,619795,28920
1418.98,1.331630,620495,28914
1422.23,1.329648,621087,29074
1426.56,1.333826,621375,28809
1429.8,1.333286,621616,28856
1433.04,1.332682,622129,28920
1436.27,1.333118,621526,28863
1439.5,1.332513,621113,28884
1442.72,1.328368,620921,29152
1445.94,1.334275,620270,28728
1450.23,1.340313,618860,28267
1453.44,1.343431,617697,28012
1456.64,1.332612,616264,28652
1459.85,1.339013,614413,28148
1463.04,1.337738,612307,28134
1466.24,1.340839,610032,27830
1469.43,1.340862,607345,27706
1473.67,1.334006,603789,27982
1476.85,1.342187,601175,27341
1480.02,1.339077,597737,27380
1483.19,1.338834,594479,27246
1486.36,1.342296,591232,26882
1489.52,1.340260,587853,26854
1492.68,1.338477,583875,26782
1496.89,1.341953,578062,26304
1500.03,1.338499,574159,26335
1503.18,1.341470,570285,25979
1506.32,1.337700,565444,25983
1509.45,1.341478,560571,25536
1512.58,1.340906,555821,25353
1515.71,1.342625,550344,25004
1519.87,1.338880,543983,24929
1522.99,1.337911,538764,24745
1526.1,1.338852,533692,24459
1529.21,1.337985,527902,24242
1532.32,1.337491,521886,23993
1535.42,1.340435,515888,23557
1538.51,1.339980,509987,23312
1541.6,1.337093,503936,23189
1545.72,1.343294,494694,22441
1548.8,1.337230,488378,22466
1551.88,1.340591,481832,21994
1554.95,1.341748,474989,21624
1558.02,1.334639,467818,21649
1561.08,1.335026,460730,21302
1564.15,1.336968,454170,20905
1568.22,1.332114,444181,20675
1571.27,1.339008,436947,20018
1574.32,1.334406,429598,19891
1577.36,1.335964,422039,19471
1580.4,1.337111,414375,19067
1583.43,1.333916,406354,18836
1586.46,1.334028,398475,18466
1590.49,1.337198,388982,17895
1593.51,1.332398,380708,17709
1596.53,1.340406,372727,17021
1599.54,1.330462,365060,17057
1602.55,1.332097,357543,16643
1605.55,1.337155,349495,16080
1608.55,1.317762,341154,16413
1612.54,1.331216,330877,15433
1615.53,1.325889,322904,15247
1618.51,1.333850,315116,14609
1621.49,1.322171,307217,14631
1624.47,1.326012,299481,14137
1627.44,1.331404,292112,13619
1630.41,1.320090,284245,13602
1634.36,1.329683,274079,12829
1637.32,1.329743,266916,12492
1640.27,1.319225,259612,12448
1643.22,1.315059,251804,12190
1646.16,1.316790,244348,11782
1649.1,1.311434,236703,11555
1652.04,1.312390,228171,11114
1655.95,1.300522,215408,10783
1658.88,1.282155,204937,10702
1661.8,1.289234,193395,9936
1664.72,1.285759,179728,9308
1667.63,1.270499,163642,8778
1670.54,1.262136,146312,8001
1673.44,1.245355,128451,7301
1677.31,1.208273,105080,6505
1680.21,1.178890,88906,5889
1683.1,1.165558,75033,5125
1685.99,1.187487,63520,4125
1688.87,1.189883,53714,3469
1691.75,1.169230,45653,3092
1694.62,1.187070,39137,2544
1697.49,1.173924,33776,2263
1701.31,1.139596,28175,2043

File: Column 1_078461_20241121_170348.csv
Method:,Column 1,,
Host Date-Time:,21/11/24 @ 17:3:48,,
Header Version:,1,,
System Temp (C):,34.73,,
Detector Temp (C):,33.78,,
Humidity (%):,1.86,,
Lamp PD:,3801,,
Shift Vector Coefficients:,-10.5391,0.0761263,-0.000134223,,
Pixel to Wavelength Coefficients:,1775.68,-0.916766,-0.000235065,,
Serial Number:,5510004,,
Scan Config Name:,Column 1,,
Scan Config Type:,Slew,,
Section 1,,
Start wavelength (nm):,900,,
End wavelength (nm):,1700,,
Pattern Pixel Width (nm):,   7.03,,,,
Exposure (ms):,  0.635,,,,
Digital Resolution:,228,,
Num Repeats:,6,,
PGA Gain:,64,,
Total Measurement Time in sec:,  2.700,,
Wavelength (nm),Absorbance (AU),Reference Signal (unitless),Sample Signal (unitless)
901.51,1.307991,108485,5338
905.376,1.324290,121306,5749
909.237,1.319695,131909,6318
913.095,1.316639,143299,6912
916.948,1.318767,156982,7535
922.079,1.321836,179937,8576
925.923,1.324765,200504,9492
929.762,1.348642,222660,9977
933.597,1.320928,244426,11674
937.427,1.328978,263972,12376
941.254,1.318135,281845,13548
945.076,1.334282,297271,13768
950.165,1.322329,315605,15025
953.978,1.317145,328029,15804
957.786,1.315781,340470,16455
961.59,1.321237,352317,16815
965.389,1.308092,363056,17860
969.185,1.308190,373162,18353
972.976,1.311126,382632,18692
976.763,1.315480,391202,18920
981.806,1.311942,400190,19513
985.583,1.308547,406088,19956
989.355,1.303006,410162,20415
993.124,1.313242,412868,20071
996.888,1.315964,414263,20013
1000.65,1.309683,415476,20364
1004.4,1.309409,415479,20377
1009.41,1.315565,414358,20036
1013.15,1.312068,412923,20128
1016.89,1.305940,411526,20345
1020.63,1.311589,409066,19962
1024.36,1.314163,406777,19733
1028.09,1.308577,404427,19873
1031.82,1.309950,401911,19687
1036.78,1.316080,398410,19242
1040.49,1.306972,396204,19541
1044.2,1.311732,394236,19232
1047.91,1.318851,392042,18814
1051.61,1.309380,389823,19120
1055.31,1.309700,388234,19028
1059,1.310476,387599,18963
1063.92,1.310830,386688,18903
1067.61,1.322465,386598,18399
1071.29,1.313745,387377,18810
1074.96,1.306469,388536,19185
1078.63,1.325142,389855,18440
1082.3,1.307016,391215,19293
1085.96,1.316540,393215,18971
1090.84,1.321575,396270,18898
1094.49,1.319496,398760,19108
1098.14,1.327358,400987,18870
1101.79,1.317123,403477,19440
1105.43,1.327412,406116,19109
1109.06,1.317001,407701,19649
1112.7,1.321843,409859,19534
1117.53,1.314713,412494,19985
1121.15,1.324281,414909,19664
1124.77,1.319103,416559,19979
1128.38,1.319116,418532,20073
1131.99,1.324002,419956,19916
1135.6,1.318982,421946,20243
1139.2,1.323335,423881,20133
1143.99,1.320282,426786,20414
1147.58,1.325001,428617,20280
1151.17,1.329382,431169,20196
1154.75,1.320637,433579,20722
1158.33,1.322459,436264,20763
1161.91,1.313849,439132,21318
1165.48,1.310607,442389,21637
1169.04,1.325851,446101,21066
1173.79,1.319332,451929,21664
1177.34,1.326915,456026,21482
1180.9,1.322574,461306,21949
1184.44,1.321973,467657,22282
1187.99,1.322488,473969,22556
1191.52,1.324225,479856,22745
1195.06,1.319685,487372,23344
1199.76,1.319444,497347,23835
1203.29,1.326030,504311,23805
1206.81,1.322674,511507,24332
1210.33,1.319854,519078,24853
1213.84,1.322721,527163,25074
1217.35,1.325449,534208,25250
1220.85,1.327068,540472,25451
1225.51,1.324266,549929,26064
1229.01,1.317082,556888,26834
1232.5,1.326367,562180,26516
1235.98,1.326681,567975,26770
1239.46,1.326158,574815,27125
1242.94,1.325889,582782,27518
1246.41,1.320565,591476,28273
1251.03,1.330245,604016,28236
1254.5,1.323825,612289,29049
1257.96,1.328124,619125,29084
1261.41,1.330259,624551,29195
1264.86,1.325580,629900,29764
1268.31,1.329204,634345,29725
1271.75,1.330937,638574,29804
1276.33,1.338389,642499,29477
1279.76,1.329860,645905,30221
1283.19,1.330496,648307,30289
1286.61,1.331282,650446,30334
1290.03,1.330805,652132,30446
1293.44,1.328944,653907,30660
1296.85,1.324370,655963,31082
1301.39,1.332586,657349,30564
1304.8,1.329524,657558,30790
1308.19,1.333554,658515,30550
1311.58,1.335668,658804,30415
1314.97,1.332080,659011,30677
1318.36,1.332301,658272,30627
1321.73,1.339732,658022,30096
1326.23,1.334353,657870,30464
1329.6,1.330056,656482,30702
1332.97,1.333933,654926,30357
1336.33,1.333939,653727,30301
1339.69,1.335781,652497,30116
1343.04,1.330282,649913,30379
1346.39,1.333062,647671,30081
1349.73,1.333884,645338,29916
1354.18,1.334147,641175,29705
1357.52,1.330205,638376,29845
1360.85,1.332884,635805,29542
1364.17,1.329487,633413,29662
1367.49,1.329651,631026,29539
1370.81,1.326438,628050,29618
1374.12,1.328695,625034,29323
1378.54,1.330514,620272,28978
1381.84,1.328351,616892,28964
1385.14,1.330088,613613,28695
1388.43,1.333142,611526,28397
1391.72,1.335106,610663,28229
1395.01,1.322635,610634,29050
1398.29,1.327644,611700,28767
1402.66,1.332781,614051,28538
1405.93,1.335886,616268,28437
1409.2,1.332191,617795,28751
1412.46,1.334097,618872,28675
1415.72,1.336095,619795,28586
1418.98,1.334887,620495,28698
1422.23,1.334484,621087,28752
1426.56,1.332531,621375,28895
1429.8,1.339638,621616,28437
1433.04,1.339173,622129,28491
1436.27,1.333434,621526,28842
1439.5,1.339577,621113,28418
1442.72,1.340192,620921,28369
1445.94,1.334003,620270,28746
1450.23,1.334256,618860,28664
1453.44,1.330013,617697,28891
1456.64,1.332506,616264,28659
1459.85,1.334180,614413,28463
1463.04,1.338974,612307,28054
1466.24,1.329214,610032,28585
1469.43,1.338595,607345,27851
1473.67,1.330713,603789,28195
1476.85,1.340332,601175,27458
1480.02,1.339108,597737,27378
1483.19,1.342098,594479,27042
1486.36,1.342426,591232,26874
1489.52,1.341977,587853,26748
1492.68,1.344453,583875,26416
1496.89,1.338696,578062,26502
1500.03,1.342225,574159,26110
1503.18,1.334982,570285,26370
1506.32,1.344014,565444,25608
1509.45,1.343045,560571,25444
1512.58,1.332844,555821,25828
1515.71,1.339475,550344,25186
1519.87,1.342063,543983,24747
1522.99,1.336439,538764,24829
1526.1,1.343619,533692,24192
1529.21,1.337824,527902,24251
1532.32,1.336208,521886,24064
1535.42,1.337606,515888,23711
1538.51,1.343684,509987,23114
1541.6,1.331696,503936,23479
1545.72,1.335374,494694,22854
1548.8,1.335629,488378,22549
1551.88,1.339330,481832,22058
1554.95,1.344528,474989,21486
1558.02,1.332797,467818,21741
1561.08,1.332708,460730,21416
1564.15,1.334420,454170,21028
1568.22,1.344321,444181,20102
1571.27,1.341379,436947,19909
1574.32,1.342627,429598,19518
1577.36,1.333540,422039,19580
1580.4,1.342959,414375,18812
1583.43,1.332535,406354,18896
1586.46,1.320825,398475,19036
1590.49,1.324946,388982,18407
1593.51,1.336587,380708,17539
1596.53,1.324474,372727,17657
1599.54,1.328125,365060,17149
1602.55,1.343652,357543,16206
1605.55,1.341280,349495,15928
1608.55,1.335615,341154,15752
1612.54,1.323131,330877,15723
1615.53,1.324922,322904,15281
1618.51,1.326773,315116,14849
1621.49,1.323390,307217,14590
1624.47,1.312225,299481,14593
1627.44,1.317379,292112,14066
1630.41,1.330364,284245,13284
1634.36,1.318686,274079,13158
1637.32,1.330473,266916,12471
1640.27,1.326543,259612,12240
1643.22,1.310663,251804,12314
1646.16,1.311332,244348,11931
1649.1,1.307691,236703,11655
1652.04,1.312937,228171,11100
1655.95,1.319540,215408,10321
1658.88,1.286437,204937,10597
1661.8,1.304853,193395,9585
1664.72,1.302259,179728,8961
1667.63,1.263043,163642,8930
1670.54,1.255617,146312,8122
1673.44,1.236523,128451,7451
1677.31,1.216155,105080,6388
1680.21,1.192675,88906,5705
1683.1,1.179421,75033,4964
1685.99,1.161635,63520,4378
1688.87,1.248932,53714,3028
1691.75,1.189353,45653,2952
1694.62,1.232752,39137,2290
1697.49,1.106018,33776,2646
1701.31,1.182223,28175,1852