Folder: textile_sorting_NIRSCAN_/ML/samples/unknown (part 55)

File: Column 1_078370_20241121_165842.csv
Method:,Column 1,,
Host Date-Time:,21/11/24 @ 16:58:42,,
Header Version:,1,,
System Temp (C):,35,,
Detector Temp (C):,33.48,,
Humidity (%):,1.91,,
Lamp PD:,3801,,
Shift Vector Coefficients:,-10.5391,0.0761263,-0.000134223,,
Pixel to Wavelength Coefficients:,1775.68,-0.916766,-0.000235065,,
Serial Number:,5510004,,
Scan Config Name:,Column 1,,
Scan Config Type:,Slew,,
Section 1,,
Start wavelength (nm):,900,,
End wavelength (nm):,1700,,
Pattern Pixel Width (nm):,   7.03,,,,
Exposure (ms):,  0.635,,,,
Digital Resolution:,228,,
Num Repeats:,6,,
PGA Gain:,64,,
Total Measurement Time in sec:,  2.708,,
Wavelength (nm),Absorbance (AU),Reference Signal (unitless),Sample Signal (unitless)
901.51,1.310848,108485,5303
905.376,1.330989,121306,5661
909.237,1.332389,131909,6136
913.095,1.308917,143299,7036
916.948,1.338095,156982,7207
922.079,1.332136,179937,8375
925.923,1.304955,200504,9935
929.762,1.323649,222660,10568
933.597,1.319628,244426,11709
937.427,1.322707,263972,12556
941.254,1.318424,281845,13539
945.076,1.321078,297271,14193
950.165,1.318044,315605,15174
953.978,1.325468,328029,15504
957.786,1.319891,340470,16300
961.59,1.306309,352317,17403
965.389,1.310262,363056,17771
969.185,1.297116,373162,18827
972.976,1.314508,382632,18547
976.763,1.316882,391202,18859
981.806,1.314532,400190,19397
985.583,1.309353,406088,19919
989.355,1.315567,410162,19833
993.124,1.311256,412868,20163
996.888,1.310444,414263,20269
1000.65,1.303689,415476,20647
1004.4,1.302264,415479,20715
1009.41,1.310329,414358,20279
1013.15,1.309315,412923,20256
1016.89,1.308767,411526,20213
1020.63,1.315150,409066,19799
1024.36,1.316149,406777,19643
1028.09,1.307071,404427,19942
1031.82,1.309884,401911,19690
1036.78,1.312305,398410,19410
1040.49,1.303629,396204,19692
1044.2,1.312025,394236,19219
1047.91,1.312254,392042,19102
1051.61,1.309902,389823,19097
1055.31,1.312218,388234,18918
1059,1.314132,387599,18804
1063.92,1.312142,386688,18846
1067.61,1.313310,386598,18791
1071.29,1.310112,387377,18968
1074.96,1.310152,388536,19023
1078.63,1.319829,389855,18667
1082.3,1.316161,391215,18891
1085.96,1.316219,393215,18985
1090.84,1.313448,396270,19255
1094.49,1.315988,398760,19263
1098.14,1.320168,400987,19185
1101.79,1.316922,403477,19449
1105.43,1.314272,406116,19696
1109.06,1.308444,407701,20040
1112.7,1.316650,409859,19769
1117.53,1.327347,412494,19412
1121.15,1.318664,414909,19920
1124.77,1.325497,416559,19687
1128.38,1.323138,418532,19888
1131.99,1.314255,419956,20368
1135.6,1.317611,421946,20307
1139.2,1.321205,423881,20232
1143.99,1.313967,426786,20713
1147.58,1.325623,428617,20251
1151.17,1.322640,431169,20512
1154.75,1.322653,433579,20626
1158.33,1.314624,436264,21141
1161.91,1.318807,439132,21076
1165.48,1.308845,442389,21725
1169.04,1.317986,446101,21451
1173.79,1.323279,451929,21468
1177.34,1.314499,456026,22105
1180.9,1.320718,461306,22043
1184.44,1.319699,467657,22399
1187.99,1.319552,473969,22709
1191.52,1.322396,479856,22841
1195.06,1.319853,487372,23335
1199.76,1.325056,497347,23529
1203.29,1.326030,504311,23805
1206.81,1.324606,511507,24224
1210.33,1.327754,519078,24405
1213.84,1.325920,527163,24890
1217.35,1.327121,534208,25153
1220.85,1.328436,540472,25371
1225.51,1.324232,549929,26066
1229.01,1.324658,556888,26370
1232.5,1.329920,562180,26300
1235.98,1.320895,567975,27129
1239.46,1.322396,574815,27361
1242.94,1.327851,582782,27394
1246.41,1.324469,591476,28020
1251.03,1.326691,604016,28468
1254.5,1.329968,612289,28641
1257.96,1.331708,619125,28845
1261.41,1.329784,624551,29227
1264.86,1.323571,629900,29902
1268.31,1.329511,634345,29704
1271.75,1.329627,638574,29894
1276.33,1.332608,642499,29872
1279.76,1.332382,645905,30046
1283.19,1.334978,648307,29978
1286.61,1.331998,650446,30284
1290.03,1.337171,652132,30003
1293.44,1.327572,653907,30757
1296.85,1.327821,655963,30836
1301.39,1.333795,657349,30479
1304.8,1.334604,657558,30432
1308.19,1.334180,658515,30506
1311.58,1.334214,658804,30517
1314.97,1.336048,659011,30398
1318.36,1.336891,658272,30305
1321.73,1.332860,658022,30576
1326.23,1.341555,657870,29963
1329.6,1.334850,656482,30365
1332.97,1.334836,654926,30294
1336.33,1.330613,653727,30534
1339.69,1.327072,652497,30726
1343.04,1.330625,649913,30355
1346.39,1.334769,647671,29963
1349.73,1.333521,645338,29941
1354.18,1.330536,641175,29953
1357.52,1.326856,638376,30076
1360.85,1.322283,635805,30272
1364.17,1.326859,633413,29842
1367.49,1.331464,631026,29416
1370.81,1.327996,628050,29512
1374.12,1.328532,625034,29334
1378.54,1.328018,620272,29145
1381.84,1.328486,616892,28955
1385.14,1.335066,613613,28368
1388.43,1.329321,611526,28648
1391.72,1.330043,610663,28560
1395.01,1.328808,610634,28640
1398.29,1.333434,611700,28386
1402.66,1.326766,614051,28936
1405.93,1.323213,616268,29279
1409.2,1.333871,617795,28640
1412.46,1.336467,618872,28519
1415.72,1.330825,619795,28935
1418.98,1.326138,620495,29282
1422.23,1.332194,621087,28904
1426.56,1.337778,621375,28548
1429.8,1.326092,621616,29338
1433.04,1.334910,622129,28772
1436.27,1.337397,621526,28580
1439.5,1.335349,621113,28696
1442.72,1.332364,620921,28885
1445.94,1.338605,620270,28443
1450.23,1.335272,618860,28597
1453.44,1.335169,617697,28550
1456.64,1.333598,616264,28587
1459.85,1.333661,614413,28497
1463.04,1.336982,612307,28183
1466.24,1.336461,610032,28112
1469.43,1.332371,607345,28253
1473.67,1.335779,603789,27868
1476.85,1.339542,601175,27508
1480.02,1.337020,597737,27510
1483.19,1.338850,594479,27245
1486.36,1.335516,591232,27305
1489.52,1.340033,587853,26868
1492.68,1.342059,583875,26562
1496.89,1.336962,578062,26608
1500.03,1.338202,574159,26353
1503.18,1.334636,570285,26391
1506.32,1.344031,565444,25607
1509.45,1.336170,560571,25850
1512.58,1.332996,555821,25819
1515.71,1.332700,550344,25582
1519.87,1.346508,543983,24495
1522.99,1.333632,538764,24990
1526.1,1.343781,533692,24183
1529.21,1.335146,527902,24401
1532.32,1.333402,521886,24220
1535.42,1.336545,515888,23769
1538.51,1.333122,509987,23683
1541.6,1.334033,503936,23353
1545.72,1.341132,494694,22553
1548.8,1.330821,488378,22800
1551.88,1.337385,481832,22157
1554.95,1.331879,474989,22121
1558.02,1.339257,467818,21420
1561.08,1.333317,460730,21386
1564.15,1.339197,454170,20798
1568.22,1.334685,444181,20553
1571.27,1.335551,436947,20178
1574.32,1.330450,429598,20073
1577.36,1.331416,422039,19676
1580.4,1.342820,414375,18818
1583.43,1.337179,406354,18695
1586.46,1.331239,398475,18585
1590.49,1.320557,388982,18594
1593.51,1.332006,380708,17725
1596.53,1.329496,372727,17454
1599.54,1.325399,365060,17257
1602.55,1.339227,357543,16372
1605.55,1.332801,349495,16242
1608.55,1.330544,341154,15937
1612.54,1.325180,330877,15649
1615.53,1.316450,322904,15582
1618.51,1.322611,315116,14992
1621.49,1.328691,307217,14413
1624.47,1.331515,299481,13959
1627.44,1.324821,292112,13827
1630.41,1.317258,284245,13691
1634.36,1.308025,274079,13485
1637.32,1.319980,266916,12776
1640.27,1.304038,259612,12891
1643.22,1.324495,251804,11928
1646.16,1.329849,244348,11433
1649.1,1.326851,236703,11152
1652.04,1.308151,228171,11223
1655.95,1.295437,215408,10910
1658.88,1.288656,204937,10543
1661.8,1.294688,193395,9812
1664.72,1.297871,179728,9052
1667.63,1.257582,163642,9043
1670.54,1.248826,146312,8250
1673.44,1.245474,128451,7299
1677.31,1.221835,105080,6305
1680.21,1.177050,88906,5914
1683.1,1.220691,75033,4514
1685.99,1.190551,63520,4096
1688.87,1.165540,53714,3669
1691.75,1.162401,45653,3141
1694.62,1.211834,39137,2403
1697.49,1.194356,33776,2159
1701.31,1.168376,28175,1912

File: Column 1_078372_20241121_165848.csv
Method:,Column 1,,
Host Date-Time:,21/11/24 @ 16:58:48,,
Header Version:,1,,
System Temp (C):,35.06,,
Detector Temp (C):,33.44,,
Humidity (%):,1.81,,
Lamp PD:,3801,,
Shift Vector Coefficients:,-10.5391,0.0761263,-0.000134223,,
Pixel to Wavelength Coefficients:,1775.68,-0.916766,-0.000235065,,
Serial Number:,5510004,,
Scan Config Name:,Column 1,,
Scan Config Type:,Slew,,
Section 1,,
Start wavelength (nm):,900,,
End wavelength (nm):,1700,,
Pattern Pixel Width (nm):,   7.03,,,,
Exposure (ms):,  0.635,,,,
Digital Resolution:,228,,
Num Repeats:,6,,
PGA Gain:,64,,
Total Measurement Time in sec:, 39.923,,
Wavelength (nm),Absorbance (AU),Reference Signal (unitless),Sample Signal (unitless)
901.51,1.312983,108485,5277
905.376,1.344943,121306,5482
909.237,1.332318,131909,6137
913.095,1.324949,143299,6781
916.948,1.325797,156982,7414
922.079,1.332758,179937,8363
925.923,1.327013,200504,9443
929.762,1.328484,222660,10451
933.597,1.343177,244426,11091
937.427,1.325831,263972,12466
941.254,1.324334,281845,13356
945.076,1.331139,297271,13868
950.165,1.310159,315605,15452
953.978,1.311006,328029,16029
957.786,1.319838,340470,16302
961.59,1.310472,352317,17237
965.389,1.305063,363056,17985
969.185,1.309399,373162,18302
972.976,1.318909,382632,18360
976.763,1.312438,391202,19053
981.806,1.309523,400190,19622
985.583,1.311977,406088,19799
989.355,1.310343,410162,20073
993.124,1.305798,412868,20418
996.888,1.316529,414263,19987
1000.65,1.307577,415476,20463
1004.4,1.312789,415479,20219
1009.41,1.307426,414358,20415
1013.15,1.319665,412923,19779
1016.89,1.309239,411526,20191
1020.63,1.310959,409066,19991
1024.36,1.306355,406777,20091
1028.09,1.320002,404427,19357
1031.82,1.305866,401911,19873
1036.78,1.317550,398410,19177
1040.49,1.303012,396204,19720
1044.2,1.307149,394236,19436
1047.91,1.315678,392042,18952
1051.61,1.309857,389823,19099
1055.31,1.311966,388234,18929
1059,1.318613,387599,18611
1063.92,1.309293,386688,18970
1067.61,1.311120,386598,18886
1071.29,1.316106,387377,18708
1074.96,1.319405,388536,18622
1078.63,1.320620,389855,18633
1082.3,1.323510,391215,18574
1085.96,1.322139,393215,18728
1090.84,1.318347,396270,19039
1094.49,1.318022,398760,19173
1098.14,1.320486,400987,19171
1101.79,1.314916,403477,19539
1105.43,1.322126,406116,19343
1109.06,1.325776,407701,19256
1112.7,1.307133,409859,20207
1117.53,1.316107,412494,19921
1121.15,1.328052,414909,19494
1124.77,1.316589,416559,20095
1128.38,1.323881,418532,19854
1131.99,1.313637,419956,20397
1135.6,1.317825,421946,20297
1139.2,1.315321,423881,20508
1143.99,1.319517,426786,20450
1147.58,1.325366,428617,20263
1151.17,1.324103,431169,20443
1154.75,1.315739,433579,20957
1158.33,1.326747,436264,20559
1161.91,1.314134,439132,21304
1165.48,1.320412,442389,21154
1169.04,1.314899,446101,21604
1173.79,1.316016,451929,21830
1177.34,1.320872,456026,21783
1180.9,1.319616,461306,22099
1184.44,1.318788,467657,22446
1187.99,1.316560,473969,22866
1191.52,1.326945,479856,22603
1195.06,1.316978,487372,23490
1199.76,1.324116,497347,23580
1203.29,1.323447,504311,23947
1206.81,1.321871,511507,24377
1210.33,1.332226,519078,24155
1213.84,1.321252,527163,25159
1217.35,1.327259,534208,25145
1220.85,1.321524,540472,25778
1225.51,1.322022,549929,26199
1229.01,1.325268,556888,26333
1232.5,1.331740,562180,26190
1235.98,1.321568,567975,27087
1239.46,1.324178,574815,27249
1242.94,1.327217,582782,27434
1246.41,1.322937,591476,28119
1251.03,1.328603,604016,28343
1254.5,1.324080,612289,29032
1257.96,1.326663,619125,29182
1261.41,1.324496,624551,29585
1264.86,1.327042,629900,29664
1268.31,1.328430,634345,29778
1271.75,1.324242,638574,30267
1276.33,1.326086,642499,30324
1279.76,1.328697,645905,30302
1283.19,1.328022,648307,30462
1286.61,1.325748,650446,30723
1290.03,1.332105,652132,30355
1293.44,1.334432,653907,30275
1296.85,1.332679,655963,30493
1301.39,1.333439,657349,30504
1304.8,1.332057,657558,30611
1308.19,1.330452,658515,30769
1311.58,1.341331,658804,30021
1314.97,1.330737,659011,30772
1318.36,1.329841,658272,30801
1321.73,1.333812,658022,30509
1326.23,1.336268,657870,30330
1329.6,1.332752,656482,30512
1332.97,1.331039,654926,30560
1336.33,1.333309,653727,30345
1339.69,1.331605,652497,30407
1343.04,1.333971,649913,30122
1346.39,1.331304,647671,30203
1349.73,1.330658,645338,30139
1354.18,1.329436,641175,30029
1357.52,1.335741,638376,29467
1360.85,1.323979,635805,30154
1364.17,1.327208,633413,29818
1367.49,1.331995,631026,29380
1370.81,1.331275,628050,29290
1374.12,1.331220,625034,29153
1378.54,1.332783,620272,28827
1381.84,1.329777,616892,28869
1385.14,1.327824,613613,28845
1388.43,1.324751,611526,28951
1391.72,1.324949,610663,28897
1395.01,1.327219,610634,28745
1398.29,1.327342,611700,28787
1402.66,1.333451,614051,28494
1405.93,1.333161,616268,28616
1409.2,1.331452,617795,28800
1412.46,1.329832,618872,28958
1415.72,1.331440,619795,28894
1418.98,1.331510,620495,28922
1422.23,1.333866,621087,28793
1426.56,1.336517,621375,28631
1429.8,1.332159,621616,28931
1433.04,1.341511,622129,28338
1436.27,1.338066,621526,28536
1439.5,1.337169,621113,28576
1442.72,1.333629,620921,28801
1445.94,1.332555,620270,28842
1450.23,1.330800,618860,28893
1453.44,1.343307,617697,28020
1456.64,1.332915,616264,28632
1459.85,1.337642,614413,28237
1463.04,1.336228,612307,28232
1466.24,1.329154,610032,28589
1469.43,1.339313,607345,27805
1473.67,1.335063,603789,27914
1476.85,1.332821,601175,27937
1480.02,1.334784,597737,27652
1483.19,1.336434,594479,27397
1486.36,1.343429,591232,26812
1489.52,1.336829,587853,27067
1492.68,1.342534,583875,26533
1496.89,1.338532,578062,26512
1500.03,1.340416,574159,26219
1503.18,1.335048,570285,26366
1506.32,1.335982,565444,26086
1509.45,1.335532,560571,25888
1512.58,1.338855,555821,25473
1515.71,1.343703,550344,24942
1519.87,1.334926,543983,25157
1522.99,1.339987,538764,24627
1526.1,1.340471,533692,24368
1529.21,1.339852,527902,24138
1532.32,1.345511,521886,23554
1535.42,1.344976,515888,23312
1538.51,1.327891,509987,23970
1541.6,1.340364,503936,23015
1545.72,1.338732,494694,22678
1548.8,1.345899,488378,22022
1551.88,1.331177,481832,22476
1554.95,1.342371,474989,21593
1558.02,1.346495,467818,21066
1561.08,1.334395,460730,21333
1564.15,1.337842,454170,20863
1568.22,1.325672,444181,20984
1571.27,1.336477,436947,20135
1574.32,1.346606,429598,19340
1577.36,1.336634,422039,19441
1580.4,1.333211,414375,19239
1583.43,1.322583,406354,19334
1586.46,1.332291,398475,18540
1590.49,1.340560,388982,17757
1593.51,1.334956,380708,17605
1596.53,1.324154,372727,17670
1599.54,1.320718,365060,17444
1602.55,1.319825,357543,17120
1605.55,1.328624,349495,16399
1608.55,1.325666,341154,16117
1612.54,1.328271,330877,15538
1615.53,1.314504,322904,15652
1618.51,1.325926,315116,14878
1621.49,1.321786,307217,14644
1624.47,1.341459,299481,13643
1627.44,1.332394,292112,13588
1630.41,1.321049,284245,13572
1634.36,1.313730,274079,13309
1637.32,1.330230,266916,12478
1640.27,1.324349,259612,12302
1643.22,1.314134,251804,12216
1646.16,1.301400,244348,12207
1649.1,1.318481,236703,11369
1652.04,1.311219,228171,11144
1655.95,1.298233,215408,10840
1658.88,1.298277,204937,10312
1661.8,1.288535,193395,9952
1664.72,1.289979,179728,9218
1667.63,1.264310,163642,8904
1670.54,1.250514,146312,8218
1673.44,1.230273,128451,7559
1677.31,1.209476,105080,6487
1680.21,1.180811,88906,5863
1683.1,1.200299,75033,4731
1685.99,1.196852,63520,4037
1688.87,1.192143,53714,3451
1691.75,1.147452,45653,3251
1694.62,1.152308,39137,2756
1697.49,1.234142,33776,1970
1701.31,1.162734,28175,1937

File: Column 1_078374_20241121_165933.csv
Method:,Column 1,,
Host Date-Time:,21/11/24 @ 16:59:33,,
Header Version:,1,,
System Temp (C):,34.62,,
Detector Temp (C):,33.32,,
Humidity (%):,1.66,,
Lamp PD:,3804,,
Shift Vector Coefficients:,-10.5391,0.0761263,-0.000134223,,
Pixel to Wavelength Coefficients:,1775.68,-0.916766,-0.000235065,,
Serial Number:,5510004,,
Scan Config Name:,Column 1,,
Scan Config Type:,Slew,,
Section 1,,
Start wavelength (nm):,900,,
End wavelength (nm):,1700,,
Pattern Pixel Width (nm):,   7.03,,,,
Exposure (ms):,  0.635,,,,
Digital Resolution:,228,,
Num Repeats:,6,,
PGA Gain:,64,,
Total Measurement Time in sec:,  2.704,,
Wavelength (nm),Absorbance (AU),Reference Signal (unitless),Sample Signal (unitless)
901.51,1.296906,108485,5476
905.376,1.344785,121306,5484
909.237,1.319901,131909,6315
913.095,1.321759,143299,6831
916.948,1.311734,156982,7658
922.079,1.314604,179937,8720
925.923,1.320033,200504,9596
929.762,1.334005,222660,10319
933.597,1.330025,244426,11432
937.427,1.331300,263972,12310
941.254,1.322582,281845,13410
945.076,1.331922,297271,13843
950.165,1.306353,315605,15588
953.978,1.309977,328029,16067
957.786,1.318322,340470,16359
961.59,1.314726,352317,17069
965.389,1.307388,363056,17889
969.185,1.308948,373162,18321
972.976,1.312685,382632,18625
976.763,1.311937,391202,19075
981.806,1.310809,400190,19564
985.583,1.308416,406088,19962
989.355,1.308314,410162,20167
993.124,1.316108,412868,19939
996.888,1.309117,414263,20331
1000.65,1.316648,415476,20040
1004.4,1.312553,415479,20230
1009.41,1.312928,414358,20158
1013.15,1.311874,412923,20137
1016.89,1.308358,411526,20232
1020.63,1.308446,409066,20107
1024.36,1.308305,406777,20001
1028.09,1.309496,404427,19831
1031.82,1.310613,401911,19657
1036.78,1.304433,398410,19765
1040.49,1.310543,396204,19381
1044.2,1.312523,394236,19197
1047.91,1.315517,392042,18959
1051.61,1.313648,389823,18933
1055.31,1.301695,388234,19382
1059,1.321892,387599,18471
1063.92,1.302614,386688,19264
1067.61,1.319736,386598,18515
1071.29,1.307260,387377,19093
1074.96,1.315990,388536,18769
1078.63,1.316399,389855,18815
1082.3,1.325667,391215,18482
1085.96,1.317021,393215,18950
1090.84,1.320130,396270,18961
1094.49,1.324020,398760,18910
1098.14,1.315396,400987,19397
1101.79,1.323423,403477,19160
1105.43,1.316638,406116,19589
1109.06,1.322383,407701,19407
1112.7,1.321399,409859,19554
1117.53,1.321680,412494,19667
1121.15,1.320893,414909,19818
1124.77,1.322529,416559,19822
1128.38,1.324253,418532,19837
1131.99,1.322369,419956,19991
1135.6,1.322428,421946,20083
1139.2,1.312745,423881,20630
1143.99,1.317187,426786,20560
1147.58,1.320930,428617,20471
1151.17,1.331171,431169,20113
1154.75,1.326885,433579,20426
1158.33,1.326578,436264,20567
1161.91,1.315359,439132,21244
1165.48,1.315228,442389,21408
1169.04,1.326635,446101,21028
1173.79,1.317471,451929,21757
1177.34,1.323672,456026,21643
1180.9,1.317128,461306,22226
1184.44,1.319912,467657,22388
1187.99,1.318482,473969,22765
1191.52,1.316522,479856,23152
1195.06,1.320132,487372,23320
1199.76,1.323324,497347,23623
1203.29,1.321872,504311,24034
1206.81,1.330635,511507,23890
1210.33,1.317779,519078,24972
1213.84,1.325101,527163,24937
1217.35,1.330709,534208,24946
1220.85,1.321895,540472,25756
1225.51,1.325150,549929,26011
1229.01,1.330210,556888,26035
1232.5,1.319946,562180,26911
1235.98,1.327639,567975,26711
1239.46,1.323939,574815,27264
1242.94,1.325558,582782,27539
1246.41,1.329473,591476,27699
1251.03,1.328434,604016,28354
1254.5,1.326931,612289,28842
1257.96,1.329800,619125,28972
1261.41,1.324570,624551,29580
1264.86,1.325493,629900,29770
1268.31,1.332975,634345,29468
1271.75,1.321510,638574,30458
1276.33,1.325113,642499,30392
1279.76,1.327895,645905,30358
1283.19,1.332105,648307,30177
1286.61,1.331382,650446,30327
1290.03,1.336592,652132,30043
1293.44,1.332300,653907,30424
1296.85,1.331499,655963,30576
1301.39,1.330092,657349,30740
1304.8,1.332326,657558,30592
1308.19,1.332022,658515,30658
1311.58,1.332028,658804,30671
1314.97,1.333498,659011,30577
1318.36,1.332202,658272,30634
1321.73,1.331668,658022,30660
1326.23,1.328055,657870,30909
1329.6,1.334835,656482,30366
1332.97,1.333219,654926,30407
1336.33,1.330840,653727,30518
1339.69,1.334687,652497,30192
1343.04,1.330697,649913,30350
1346.39,1.330916,647671,30230
1349.73,1.332840,645338,29988
1354.18,1.331262,641175,29903
1357.52,1.327970,638376,29999
1360.85,1.334357,635805,29442
1364.17,1.328156,633413,29753
1367.49,1.326400,631026,29761
1370.81,1.323443,628050,29823
1374.12,1.333625,625034,28992
1378.54,1.331609,620272,28905
1381.84,1.329191,616892,28908
1385.14,1.336354,613613,28284
1388.43,1.323688,611526,29022
1391.72,1.328344,610663,28672
1395.01,1.331134,610634,28487
1398.29,1.330780,611700,28560
1402.66,1.332325,614051,28568
1405.93,1.328016,616268,28957
1409.2,1.327923,617795,29035
1412.46,1.334977,618872,28617
1415.72,1.332735,619795,28808
1418.98,1.332397,620495,28863
1422.23,1.330515,621087,29016
1426.56,1.335426,621375,28703
1429.8,1.332384,621616,28916
1433.04,1.334126,622129,28824
1436.27,1.335441,621526,28709
1439.5,1.333070,621113,28847
1442.72,1.333900,620921,28783
1445.94,1.337660,620270,28505
1450.23,1.335956,618860,28552
1453.44,1.330615,617697,28851
1456.64,1.330872,616264,28767
1459.85,1.331093,614413,28666
1463.04,1.335413,612307,28285
1466.24,1.333290,610032,28318
1469.43,1.330683,607345,28363
1473.67,1.337028,603789,27788
1476.85,1.335785,601175,27747
1480.02,1.336578,597737,27538
1483.19,1.338260,594479,27282
1486.36,1.338452,591232,27121
1489.52,1.338742,587853,26948
1492.68,1.334506,583875,27028
1496.89,1.338597,578062,26508
1500.03,1.334788,574159,26561
1503.18,1.342926,570285,25892
1506.32,1.335916,565444,26090
1509.45,1.341257,560571,25549
1512.58,1.339725,555821,25422
1515.71,1.337977,550344,25273
1519.87,1.330923,543983,25390
1522.99,1.346973,538764,24234
1526.1,1.339936,533692,24398
1529.21,1.328908,527902,24754
1532.32,1.334641,521886,24151
1535.42,1.342635,515888,23438
1538.51,1.338325,509987,23401
1541.6,1.339064,503936,23084
1545.72,1.334160,494694,22918
1548.8,1.340899,488378,22277
1551.88,1.335644,481832,22246
1554.95,1.338187,474989,21802
1558.02,1.333337,467818,21714
1561.08,1.335781,460730,21265
1564.15,1.329043,454170,21290
1568.22,1.329685,444181,20791
1571.27,1.329693,436947,20452
1574.32,1.334144,429598,19903
1577.36,1.334006,422039,19559
1580.4,1.328809,414375,19435
1583.43,1.336297,406354,18733
1586.46,1.332479,398475,18532
1590.49,1.327099,388982,18316
1593.51,1.340317,380708,17389
1596.53,1.320337,372727,17826
1599.54,1.328582,365060,17131
1602.55,1.319393,357543,17137
1605.55,1.329897,349495,16351
1608.55,1.339520,341154,15611
1612.54,1.323546,330877,15708
1615.53,1.316896,322904,15566
1618.51,1.331390,315116,14692
1621.49,1.329747,307217,14378
1624.47,1.322707,299481,14245
1627.44,1.324602,292112,13834
1630.41,1.309648,284245,13933
1634.36,1.321168,274079,13083
1637.32,1.307119,266916,13160
1640.27,1.329999,259612,12143
1643.22,1.316486,251804,12150
1646.16,1.320603,244348,11679
1649.1,1.324482,236703,11213
1652.04,1.297714,228171,11496
1655.95,1.303432,215408,10711
1658.88,1.293961,204937,10415
1661.8,1.285058,193395,10032
1664.72,1.287255,179728,9276
1667.63,1.269856,163642,8791
1670.54,1.260618,146312,8029
1673.44,1.256380,128451,7118
1677.31,1.211826,105080,6452
1680.21,1.190019,88906,5740
1683.1,1.219154,75033,4530
1685.99,1.163623,63520,4358
1688.87,1.254416,53714,2990
1691.75,1.188178,45653,2960
1694.62,1.146828,39137,2791
1697.49,1.201863,33776,2122
1701.31,1.130550,28175,2086