Folder: textile_sorting_NIRSCAN_/ML/samples/unknown (part 9)

File: Column 1_078056_20241121_164319.csv
Method:,Column 1,,
Host Date-Time:,21/11/24 @ 16:43:19,,
Header Version:,1,,
System Temp (C):,31.1,,
Detector Temp (C):,25.86,,
Humidity (%):,5.37,,
Lamp PD:,3810,,
Shift Vector Coefficients:,-10.5391,0.0761263,-0.000134223,,
Pixel to Wavelength Coefficients:,1775.68,-0.916766,-0.000235065,,
Serial Number:,5510004,,
Scan Config Name:,Column 1,,
Scan Config Type:,Slew,,
Section 1,,
Start wavelength (nm):,900,,
End wavelength (nm):,1700,,
Pattern Pixel Width (nm):,   7.03,,,,
Exposure (ms):,  0.635,,,,
Digital Resolution:,228,,
Num Repeats:,6,,
PGA Gain:,64,,
Total Measurement Time in sec:,  2.708,,
Wavelength (nm),Absorbance (AU),Reference Signal (unitless),Sample Signal (unitless)
901.51,1.287027,108485,5602
905.376,1.319781,121306,5809
909.237,1.314366,131909,6396
913.095,1.292266,143299,7311
916.948,1.309303,156982,7701
922.079,1.302086,179937,8975
925.923,1.321166,200504,9571
929.762,1.301694,222660,11116
933.597,1.299020,244426,12278
937.427,1.285281,263972,13686
941.254,1.302767,281845,14036
945.076,1.320895,297271,14199
950.165,1.308392,315605,15515
953.978,1.318632,328029,15750
957.786,1.302064,340470,16983
961.59,1.302558,352317,17554
965.389,1.306708,363056,17917
969.185,1.307954,373162,18363
972.976,1.305012,382632,18957
976.763,1.306237,391202,19327
981.806,1.310121,400190,19595
985.583,1.300227,406088,20342
989.355,1.313819,410162,19913
993.124,1.309022,412868,20267
996.888,1.306031,414263,20476
1000.65,1.313302,415476,20195
1004.4,1.305716,415479,20551
1009.41,1.303551,414358,20598
1013.15,1.308074,412923,20314
1016.89,1.307822,411526,20257
1020.63,1.307971,409066,20129
1024.36,1.312056,406777,19829
1028.09,1.307769,404427,19910
1031.82,1.314407,401911,19486
1036.78,1.306349,398410,19678
1040.49,1.300552,396204,19832
1044.2,1.307015,394236,19442
1047.91,1.306225,392042,19369
1051.61,1.307928,389823,19184
1055.31,1.313990,388234,18841
1059,1.310773,387599,18950
1063.92,1.308105,386688,19022
1067.61,1.311396,386598,18874
1071.29,1.303297,387377,19268
1074.96,1.312349,388536,18927
1078.63,1.310712,389855,19063
1082.3,1.303831,391215,19435
1085.96,1.306180,393215,19429
1090.84,1.317709,396270,19067
1094.49,1.308721,398760,19588
1098.14,1.315351,400987,19399
1101.79,1.313563,403477,19600
1105.43,1.317726,406116,19540
1109.06,1.309464,407701,19993
1112.7,1.312866,409859,19942
1117.53,1.308478,412494,20274
1121.15,1.316988,414909,19997
1124.77,1.315401,416559,20150
1128.38,1.313762,418532,20322
1131.99,1.310540,419956,20543
1135.6,1.324183,421946,20002
1139.2,1.308263,423881,20844
1143.99,1.311083,426786,20851
1147.58,1.325194,428617,20271
1151.17,1.313236,431169,20961
1154.75,1.312950,433579,21092
1158.33,1.311227,436264,21307
1161.91,1.319302,439132,21052
1165.48,1.309985,442389,21668
1169.04,1.316692,446101,21515
1173.79,1.320999,451929,21581
1177.34,1.315187,456026,22070
1180.9,1.307963,461306,22700
1184.44,1.309713,467657,22920
1187.99,1.326492,473969,22349
1191.52,1.318289,479856,23058
1195.06,1.317033,487372,23487
1199.76,1.319754,497347,23818
1203.29,1.314615,504311,24439
1206.81,1.323549,511507,24283
1210.33,1.324545,519078,24586
1213.84,1.323606,527163,25023
1217.35,1.317676,534208,25706
1220.85,1.319893,540472,25875
1225.51,1.320367,549929,26299
1229.01,1.322293,556888,26514
1232.5,1.321287,562180,26828
1235.98,1.321665,567975,27081
1239.46,1.323143,574815,27314
1242.94,1.319591,582782,27920
1246.41,1.320350,591476,28287
1251.03,1.323061,604016,28707
1254.5,1.322080,612289,29166
1257.96,1.316994,619125,29839
1261.41,1.323529,624551,29651
1264.86,1.326471,629900,29703
1268.31,1.326887,634345,29884
1271.75,1.323396,638574,30326
1276.33,1.329061,642499,30117
1279.76,1.324348,645905,30607
1283.19,1.329966,648307,30326
1286.61,1.320926,650446,31066
1290.03,1.335336,652132,30130
1293.44,1.321696,653907,31176
1296.85,1.322252,655963,31234
1301.39,1.329725,657349,30766
1304.8,1.330555,657558,30717
1308.19,1.327933,658515,30948
1311.58,1.331476,658804,30710
1314.97,1.326593,659011,31067
1318.36,1.330221,658272,30774
1321.73,1.329633,658022,30804
1326.23,1.324849,657870,31138
1329.6,1.327728,656482,30867
1332.97,1.331437,654926,30532
1336.33,1.330428,653727,30547
1339.69,1.328191,652497,30647
1343.04,1.329739,649913,30417
1346.39,1.328609,647671,30391
1349.73,1.328029,645338,30322
1354.18,1.330406,641175,29962
1357.52,1.327420,638376,30037
1360.85,1.322871,635805,30231
1364.17,1.328448,633413,29733
1367.49,1.333239,631026,29296
1370.81,1.320367,628050,30035
1374.12,1.323615,625034,29668
1378.54,1.325329,620272,29326
1381.84,1.324945,616892,29192
1385.14,1.322973,613613,29169
1388.43,1.329305,611526,28649
1391.72,1.320047,610663,29225
1395.01,1.327249,610634,28743
1398.29,1.327568,611700,28772
1402.66,1.328842,614051,28798
1405.93,1.326071,616268,29087
1409.2,1.329841,617795,28907
1412.46,1.327753,618872,29097
1415.72,1.327565,619795,29153
1418.98,1.332036,620495,28887
1422.23,1.324392,621087,29428
1426.56,1.335003,621375,28731
1429.8,1.332880,621616,28883
1433.04,1.339569,622129,28465
1436.27,1.332697,621526,28891
1439.5,1.332468,621113,28887
1442.72,1.327505,620921,29210
1445.94,1.336124,620270,28606
1450.23,1.336336,618860,28527
1453.44,1.333848,617697,28637
1456.64,1.331265,616264,28741
1459.85,1.333616,614413,28500
1463.04,1.335244,612307,28296
1466.24,1.329762,610032,28549
1469.43,1.332817,607345,28224
1473.67,1.341300,603789,27516
1476.85,1.324400,601175,28484
1480.02,1.333169,597737,27755
1483.19,1.330264,594479,27789
1486.36,1.334959,591232,27340
1489.52,1.339888,587853,26877
1492.68,1.339679,583875,26708
1496.89,1.335544,578062,26695
1500.03,1.332846,574159,26680
1503.18,1.336715,570285,26265
1506.32,1.334536,565444,26173
1509.45,1.334996,560571,25920
1512.58,1.338497,555821,25494
1515.71,1.336879,550344,25337
1519.87,1.341186,543983,24797
1522.99,1.339917,538764,24631
1526.1,1.333540,533692,24760
1529.21,1.330719,527902,24651
1532.32,1.341364,521886,23780
1535.42,1.336947,515888,23747
1538.51,1.352472,509987,22651
1541.6,1.323832,503936,23908
1545.72,1.327932,494694,23249
1548.8,1.330307,488378,22827
1551.88,1.337875,481832,22132
1554.95,1.330252,474989,22204
1558.02,1.330944,467818,21834
1561.08,1.338526,460730,21131
1564.15,1.331580,454170,21166
1568.22,1.336378,444181,20473
1571.27,1.330948,436947,20393
1574.32,1.326123,429598,20274
1577.36,1.327833,422039,19839
1580.4,1.328630,414375,19443
1583.43,1.334146,406354,18826
1586.46,1.334758,398475,18435
1590.49,1.332971,388982,18070
1593.51,1.327084,380708,17927
1596.53,1.333797,372727,17282
1599.54,1.322065,365060,17390
1602.55,1.329677,357543,16736
1605.55,1.325562,349495,16515
1608.55,1.321003,341154,16291
1612.54,1.321394,330877,15786
1615.53,1.326459,322904,15227
1618.51,1.315742,315116,15231
1621.49,1.321371,307217,14658
1624.47,1.323653,299481,14214
1627.44,1.317904,292112,14049
1630.41,1.321241,284245,13566
1634.36,1.312980,274079,13332
1637.32,1.314810,266916,12929
1640.27,1.319854,259612,12430
1643.22,1.310981,251804,12305
1646.16,1.301009,244348,12218
1649.1,1.315474,236703,11448
1652.04,1.309974,228171,11176
1655.95,1.305382,215408,10663
1658.88,1.326329,204937,9667
1661.8,1.334574,193395,8951
1664.72,1.317549,179728,8651
1667.63,1.317699,163642,7874
1670.54,1.324797,146312,6926
1673.44,1.290116,128451,6586
1677.31,1.285203,105080,5449
1680.21,1.285230,88906,4610
1683.1,1.331805,75033,3495
1685.99,1.311269,63520,3102
1688.87,1.326967,53714,2530
1691.75,1.300583,45653,2285
1694.62,1.236753,39137,2269
1697.49,1.394112,33776,1363
1701.31,1.294832,28175,1429

File: Column 1_078059_20241121_164328.csv
Method:,Column 1,,
Host Date-Time:,21/11/24 @ 16:43:28,,
Header Version:,1,,
System Temp (C):,31.15,,
Detector Temp (C):,25.94,,
Humidity (%):,5.37,,
Lamp PD:,3810,,
Shift Vector Coefficients:,-10.5391,0.0761263,-0.000134223,,
Pixel to Wavelength Coefficients:,1775.68,-0.916766,-0.000235065,,
Serial Number:,5510004,,
Scan Config Name:,Column 1,,
Scan Config Type:,Slew,,
Section 1,,
Start wavelength (nm):,900,,
End wavelength (nm):,1700,,
Pattern Pixel Width (nm):,   7.03,,,,
Exposure (ms):,  0.635,,,,
Digital Resolution:,228,,
Num Repeats:,6,,
PGA Gain:,64,,
Total Measurement Time in sec:,  2.707,,
Wavelength (nm),Absorbance (AU),Reference Signal (unitless),Sample Signal (unitless)
901.51,1.311586,108485,5294
905.376,1.326107,121306,5725
909.237,1.320796,131909,6302
913.095,1.322969,143299,6812
916.948,1.320731,156982,7501
922.079,1.318205,179937,8648
925.923,1.307586,200504,9875
929.762,1.309658,222660,10914
933.597,1.328698,244426,11467
937.427,1.316491,263972,12737
941.254,1.314750,281845,13654
945.076,1.314398,297271,14413
950.165,1.307916,315605,15532
953.978,1.311684,328029,16004
957.786,1.309596,340470,16691
961.59,1.320359,352317,16849
965.389,1.308189,363056,17856
969.185,1.318099,373162,17939
972.976,1.308462,382632,18807
976.763,1.322375,391202,18622
981.806,1.307756,400190,19702
985.583,1.315103,406088,19657
989.355,1.315392,410162,19841
993.124,1.313719,412868,20049
996.888,1.310701,414263,20257
1000.65,1.324036,415476,19702
1004.4,1.319434,415479,19912
1009.41,1.316042,414358,20014
1013.15,1.316951,412923,19903
1016.89,1.315304,411526,19911
1020.63,1.310243,409066,20024
1024.36,1.314604,406777,19713
1028.09,1.312616,404427,19689
1031.82,1.311232,401911,19629
1036.78,1.310830,398410,19476
1040.49,1.310028,396204,19404
1044.2,1.307194,394236,19434
1047.91,1.313529,392042,19046
1051.61,1.308381,389823,19164
1055.31,1.311416,388234,18953
1059,1.317774,387599,18647
1063.92,1.311106,386688,18891
1067.61,1.309513,386598,18956
1071.29,1.325042,387377,18327
1074.96,1.319662,388536,18611
1078.63,1.307218,389855,19217
1082.3,1.317911,391215,18815
1085.96,1.315305,393215,19025
1090.84,1.319558,396270,18986
1094.49,1.319997,398760,19086
1098.14,1.318564,400987,19256
1101.79,1.313807,403477,19589
1105.43,1.319664,406116,19453
1109.06,1.317864,407701,19610
1112.7,1.324139,409859,19431
1117.53,1.320555,412494,19718
1121.15,1.325187,414909,19623
1124.77,1.323714,416559,19768
1128.38,1.324888,418532,19808
1131.99,1.324067,419956,19913
1135.6,1.328241,421946,19816
1139.2,1.322581,423881,20168
1143.99,1.321603,426786,20352
1147.58,1.328204,428617,20131
1151.17,1.324953,431169,20403
1154.75,1.327289,433579,20407
1158.33,1.320060,436264,20878
1161.91,1.328159,439132,20627
1165.48,1.322305,442389,21062
1169.04,1.325460,446101,21085
1173.79,1.320114,451929,21625
1177.34,1.328698,456026,21394
1180.9,1.321113,461306,22023
1184.44,1.322734,467657,22243
1187.99,1.320778,473969,22645
1191.52,1.320461,479856,22943
1195.06,1.322560,487372,23190
1199.76,1.326702,497347,23440
1203.29,1.322668,504311,23990
1206.81,1.328369,511507,24015
1210.33,1.330199,519078,24268
1213.84,1.323762,527163,25014
1217.35,1.321102,534208,25504
1220.85,1.327615,540472,25419
1225.51,1.326705,549929,25918
1229.01,1.322817,556888,26482
1232.5,1.328584,562180,26381
1235.98,1.324286,567975,26918
1239.46,1.324305,574815,27241
1242.94,1.332489,582782,27103
1246.41,1.324810,591476,27998
1251.03,1.325503,604016,28546
1254.5,1.328651,612289,28728
1257.96,1.330730,619125,28910
1261.41,1.329917,624551,29218
1264.86,1.331220,629900,29380
1268.31,1.330946,634345,29606
1271.75,1.326977,638574,30077
1276.33,1.329956,642499,30055
1279.76,1.330910,645905,30148
1283.19,1.327467,648307,30501
1286.61,1.329681,650446,30446
1290.03,1.336332,652132,30061
1293.44,1.333214,653907,30360
1296.85,1.335953,655963,30264
1301.39,1.331550,657349,30637
1304.8,1.334732,657558,30423
1308.19,1.328776,658515,30888
1311.58,1.329276,658804,30866
1314.97,1.337206,659011,30317
1318.36,1.334305,658272,30486
1321.73,1.330565,658022,30738
1326.23,1.333513,657870,30523
1329.6,1.339740,656482,30025
1332.97,1.334105,654926,30345
1336.33,1.330869,653727,30516
1339.69,1.330849,652497,30460
1343.04,1.337736,649913,29862
1346.39,1.331376,647671,30198
1349.73,1.331235,645338,30099
1354.18,1.335846,641175,29589
1357.52,1.333844,638376,29596
1360.85,1.335509,635805,29364
1364.17,1.333443,633413,29393
1367.49,1.326969,631026,29722
1370.81,1.325004,628050,29716
1374.12,1.329897,625034,29242
1378.54,1.333476,620272,28781
1381.84,1.334846,616892,28534
1385.14,1.328608,613613,28793
1388.43,1.329351,611526,28646
1391.72,1.342883,610663,27728
1395.01,1.331180,610634,28484
1398.29,1.326227,611700,28861
1402.66,1.331156,614051,28645
1405.93,1.336864,616268,28373
1409.2,1.325045,617795,29228
1412.46,1.336588,618872,28511
1415.72,1.328952,619795,29060
1418.98,1.337406,620495,28532
1422.23,1.332796,621087,28864
1426.56,1.336017,621375,28664
1429.8,1.334854,621616,28752
1433.04,1.330615,622129,29058
1436.27,1.337184,621526,28594
1439.5,1.341768,621113,28275
1442.72,1.339168,620921,28436
1445.94,1.340472,620270,28321
1450.23,1.339269,618860,28335
1453.44,1.333757,617697,28643
1456.64,1.331673,616264,28714
1459.85,1.334256,614413,28458
1463.04,1.336766,612307,28197
1466.24,1.336353,610032,28119
1469.43,1.334096,607345,28141
1473.67,1.333650,603789,28005
1476.85,1.342361,601175,27330
1480.02,1.342309,597737,27177
1483.19,1.341424,594479,27084
1486.36,1.334198,591232,27388
1489.52,1.338952,587853,26935
1492.68,1.336600,583875,26898
1496.89,1.336196,578062,26655
1500.03,1.344410,574159,25979
1503.18,1.340201,570285,26055
1506.32,1.340114,565444,25839
1509.45,1.342022,560571,25504
1512.58,1.338565,555821,25490
1515.71,1.340407,550344,25132
1519.87,1.339805,543983,24876
1522.99,1.338684,538764,24701
1526.1,1.340738,533692,24353
1529.21,1.339636,527902,24150
1532.32,1.337527,521886,23991
1535.42,1.334594,515888,23876
1538.51,1.347382,509987,22918
1541.6,1.338294,503936,23125
1545.72,1.344768,494694,22365
1548.8,1.343637,488378,22137
1551.88,1.332609,481832,22402
1554.95,1.338187,474989,21802
1558.02,1.335603,467818,21601
1561.08,1.342428,460730,20942
1564.15,1.340703,454170,20726
1568.22,1.333798,444181,20595
1571.27,1.339030,436947,20017
1574.32,1.334733,429598,19876
1577.36,1.333717,422039,19572
1580.4,1.339738,414375,18952
1583.43,1.332236,406354,18909
1586.46,1.341788,398475,18139
1590.49,1.340389,388982,17764
1593.51,1.329562,380708,17825
1596.53,1.337152,372727,17149
1599.54,1.332094,365060,16993
1602.55,1.325750,357543,16888
1605.55,1.333819,349495,16204
1608.55,1.339130,341154,15625
1612.54,1.330541,330877,15457
1615.53,1.325946,322904,15245
1618.51,1.336803,315116,14510
1621.49,1.324433,307217,14555
1624.47,1.332605,299481,13924
1627.44,1.329209,292112,13688
1630.41,1.330887,284245,13268
1634.36,1.323265,274079,13020
1637.32,1.312799,266916,12989
1640.27,1.312097,259612,12654
1643.22,1.321628,251804,12007
1646.16,1.325878,244348,11538
1649.1,1.324172,236703,11221
1652.04,1.314780,228171,11053
1655.95,1.324151,215408,10212
1658.88,1.334675,204937,9483
1661.8,1.353921,193395,8561
1664.72,1.321230,179728,8578
1667.63,1.314238,163642,7937
1670.54,1.306622,146312,7222
1673.44,1.334513,128451,5946
1677.31,1.343093,105080,4769
1680.21,1.324855,88906,4208
1683.1,1.383051,75033,3106
1685.99,1.313093,63520,3089
1688.87,1.279530,53714,2822
1691.75,1.427236,45653,1707
1694.62,1.443061,39137,1411
1697.49,1.258395,33776,1863
1701.31,1.275223,28175,1495

File: Column 1_078060_20241121_164331.csv
Method:,Column 1,,
Host Date-Time:,21/11/24 @ 16:43:31,,
Header Version:,1,,
System Temp (C):,31.17,,
Detector Temp (C):,25.96,,
Humidity (%):,5.37,,
Lamp PD:,3809,,
Shift Vector Coefficients:,-10.5391,0.0761263,-0.000134223,,
Pixel to Wavelength Coefficients:,1775.68,-0.916766,-0.000235065,,
Serial Number:,5510004,,
Scan Config Name:,Column 1,,
Scan Config Type:,Slew,,
Section 1,,
Start wavelength (nm):,900,,
End wavelength (nm):,1700,,
Pattern Pixel Width (nm):,   7.03,,,,
Exposure (ms):,  0.635,,,,
Digital Resolution:,228,,
Num Repeats:,6,,
PGA Gain:,64,,
Total Measurement Time in sec:,  2.708,,
Wavelength (nm),Absorbance (AU),Reference Signal (unitless),Sample Signal (unitless)
901.51,1.335272,108485,5013
905.376,1.328541,121306,5693
909.237,1.313687,131909,6406
913.095,1.300966,143299,7166
916.948,1.315208,156982,7597
922.079,1.318808,179937,8636
925.923,1.326599,200504,9452
929.762,1.307911,222660,10958
933.597,1.325265,244426,11558
937.427,1.305814,263972,13054
941.254,1.306059,281845,13930
945.076,1.319673,297271,14239
950.165,1.311144,315605,15417
953.978,1.314652,328029,15895
957.786,1.310873,340470,16642
961.59,1.311380,352317,17201
965.389,1.305909,363056,17950
969.185,1.305525,373162,18466
972.976,1.311428,382632,18679
976.763,1.305922,391202,19341
981.806,1.298789,400190,20113
985.583,1.311451,406088,19823
989.355,1.307733,410162,20194
993.124,1.307888,412868,20320
996.888,1.308861,414263,20343
1000.65,1.310815,415476,20311
1004.4,1.308940,415479,20399
1009.41,1.301468,414358,20697
1013.15,1.309037,412923,20269
1016.89,1.320460,411526,19676
1020.63,1.305025,409066,20266
1024.36,1.309065,406777,19966
1028.09,1.311691,404427,19731
1031.82,1.307728,401911,19788
1036.78,1.319570,398410,19088
1040.49,1.304601,396204,19648
1044.2,1.311258,394236,19253
1047.91,1.303565,392042,19488
1051.61,1.303648,389823,19374
1055.31,1.315629,388234,18770
1059,1.317727,387599,18649
1063.92,1.306873,386688,19076
1067.61,1.315209,386598,18709
1071.29,1.316943,387377,18672
1074.96,1.312395,388536,18925
1078.63,1.314441,389855,18900
1082.3,1.315426,391215,18923
1085.96,1.313278,393215,19114
1090.84,1.314667,396270,19201
1094.49,1.310788,398760,19495
1098.14,1.316472,400987,19349
1101.79,1.317167,403477,19438
1105.43,1.308751,406116,19948
1109.06,1.310181,407701,19960
1112.7,1.323380,409859,19465
1117.53,1.318555,412494,19809
1121.15,1.315146,414909,20082
1124.77,1.321675,416559,19861
1128.38,1.326382,418532,19740
1131.99,1.312277,419956,20461
1135.6,1.322883,421946,20062
1139.2,1.314115,423881,20565
1143.99,1.316596,426786,20588
1147.58,1.323313,428617,20359
1151.17,1.315958,431169,20830
1154.75,1.316382,433579,20926
1158.33,1.320998,436264,20833
1161.91,1.317901,439132,21120
1165.48,1.316712,442389,21335
1169.04,1.325110,446101,21102
1173.79,1.313003,451929,21982
1177.34,1.317793,456026,21938
1180.9,1.314673,461306,22352
1184.44,1.315435,467657,22620
1187.99,1.318864,473969,22745
1191.52,1.320783,479856,22926
1195.06,1.318515,487372,23407
1199.76,1.320083,497347,23800
1203.29,1.327126,504311,23745
1206.81,1.322174,511507,24360
1210.33,1.317449,519078,24991
1213.84,1.329037,527163,24712
1217.35,1.318488,534208,25658
1220.85,1.326778,540472,25468
1225.51,1.325868,549929,25968
1229.01,1.326060,556888,26285
1232.5,1.323445,562180,26695
1235.98,1.326259,567975,26796
1239.46,1.316422,574815,27740
1242.94,1.325385,582782,27550
1246.41,1.321642,591476,28203
1251.03,1.323651,604016,28668
1254.5,1.324484,612289,29005
1257.96,1.325237,619125,29278
1261.41,1.321920,624551,29761
1264.86,1.332656,629900,29283
1268.31,1.327643,634345,29832
1271.75,1.331885,638574,29739
1276.33,1.324842,642499,30411
1279.76,1.327509,645905,30385
1283.19,1.327040,648307,30531
1286.61,1.330709,650446,30374
1290.03,1.334688,652132,30175
1293.44,1.332257,653907,30427
1296.85,1.331101,655963,30604
1301.39,1.335766,657349,30341
1304.8,1.330485,657558,30722
1308.19,1.329747,658515,30819
1311.58,1.335326,658804,30439
1314.97,1.331712,659011,30703
1318.36,1.329404,658272,30832
1321.73,1.331994,658022,30637
1326.23,1.333044,657870,30556
1329.6,1.329971,656482,30708
1332.97,1.328672,654926,30727
1336.33,1.328853,653727,30658
1339.69,1.331219,652497,30434
1343.04,1.328356,649913,30514
1346.39,1.334204,647671,30002
1349.73,1.330154,645338,30174
1354.18,1.329624,641175,30016
1357.52,1.332189,638376,29709
1360.85,1.330129,635805,29730
1364.17,1.324913,633413,29976
1367.49,1.327013,631026,29719
1370.81,1.331675,628050,29263
1374.12,1.321702,625034,29799
1378.54,1.323807,620272,29429
1381.84,1.322527,616892,29355
1385.14,1.323823,613613,29112
1388.43,1.329730,611526,28621
1391.72,1.324994,610663,28894
1395.01,1.325334,610634,28870
1398.29,1.326920,611700,28815
1402.66,1.336909,614051,28268
1405.93,1.327986,616268,28959
1409.2,1.329571,617795,28925
1412.46,1.333492,618872,28715
1415.72,1.331305,619795,28903
1418.98,1.333904,620495,28763
1422.23,1.328887,621087,29125
1426.56,1.334172,621375,28786
1429.8,1.333949,621616,28812
1433.04,1.333058,622129,28895
1436.27,1.333058,621526,28867
1439.5,1.331612,621113,28944
1442.72,1.337309,620921,28558
1445.94,1.330857,620270,28955
1450.23,1.336824,618860,28495
1453.44,1.331323,617697,28804
1456.64,1.331325,616264,28737
1459.85,1.344072,614413,27822
1463.04,1.331317,612307,28553
1466.24,1.336646,610032,28100
1469.43,1.334652,607345,28105
1473.67,1.335343,603789,27896
1476.85,1.338895,601175,27549
1480.02,1.334485,597737,27671
1483.19,1.336735,594479,27378
1486.36,1.334832,591232,27348
1489.52,1.340842,587853,26818
1492.68,1.336681,583875,26893
1496.89,1.342233,578062,26287
1500.03,1.333319,574159,26651
1503.18,1.345838,570285,25719
1506.32,1.335400,565444,26121
1509.45,1.336389,560571,25837
1512.58,1.340289,555821,25389
1515.71,1.337617,550344,25294
1519.87,1.334219,543983,25198
1522.99,1.334502,538764,24940
1526.1,1.336197,533692,24609
1529.21,1.337430,527902,24273
1532.32,1.332470,521886,24272
1535.42,1.337130,515888,23737
1538.51,1.339700,509987,23327
1541.6,1.328746,503936,23639
1545.72,1.340690,494694,22576
1548.8,1.334456,488378,22610
1551.88,1.335195,481832,22269
1554.95,1.340965,474989,21663
1558.02,1.337800,467818,21492
1561.08,1.328812,460730,21609
1564.15,1.331046,454170,21192
1568.22,1.335150,444181,20531
1571.27,1.329184,436947,20476
1574.32,1.330537,429598,20069
1577.36,1.331195,422039,19686
1580.4,1.332287,414375,19280
1583.43,1.332788,406354,18885
1586.46,1.324445,398475,18878
1590.49,1.331891,388982,18115
1593.51,1.331296,380708,17754
1596.53,1.339743,372727,17047
1599.54,1.339518,365060,16705
1602.55,1.331575,357543,16663
1605.55,1.329366,349495,16371
1608.55,1.329374,341154,15980
1612.54,1.326069,330877,15617
1615.53,1.338079,322904,14825
1618.51,1.320905,315116,15051
1621.49,1.315924,307217,14843
1624.47,1.318188,299481,14394
1627.44,1.324664,292112,13832
1630.41,1.320537,284245,13588
1634.36,1.318719,274079,13157
1637.32,1.320796,266916,12752
1640.27,1.313610,259612,12610
1643.22,1.316951,251804,12137
1646.16,1.323663,244348,11597
1649.1,1.313355,236703,11504
1652.04,1.307881,228171,11230
1655.95,1.321649,215408,10271
1658.88,1.306740,204937,10113
1661.8,1.326689,193395,9115
1664.72,1.322599,179728,8551
1667.63,1.326446,163642,7717
1670.54,1.337265,146312,6730
1673.44,1.309121,128451,6304
1677.31,1.301775,105080,5245
1680.21,1.248833,88906,5013
1683.1,1.299718,75033,3763
1685.99,1.261581,63520,3478
1688.87,1.347710,53714,2412
1691.75,1.247850,45653,2580
1694.62,1.294827,39137,1985
1697.49,1.298926,33776,1697
1701.31,1.216868,28175,1710