Folder: textile_sorting_NIRSCAN_/ML/samples/unknown (part 124)

File: Column 1_078924_20241121_172845.csv
Method:,Column 1,,
Host Date-Time:,21/11/24 @ 17:28:45,,
Header Version:,1,,
System Temp (C):,37.38,,
Detector Temp (C):,36.41,,
Humidity (%):,0.58,,
Lamp PD:,3796,,
Shift Vector Coefficients:,-10.5391,0.0761263,-0.000134223,,
Pixel to Wavelength Coefficients:,1775.68,-0.916766,-0.000235065,,
Serial Number:,5510004,,
Scan Config Name:,Column 1,,
Scan Config Type:,Slew,,
Section 1,,
Start wavelength (nm):,900,,
End wavelength (nm):,1700,,
Pattern Pixel Width (nm):,   7.03,,,,
Exposure (ms):,  0.635,,,,
Digital Resolution:,228,,
Num Repeats:,6,,
PGA Gain:,64,,
Total Measurement Time in sec:,  2.704,,
Wavelength (nm),Absorbance (AU),Reference Signal (unitless),Sample Signal (unitless)
901.51,1.343758,108485,4916
905.376,1.318959,121306,5820
909.237,1.315522,131909,6379
913.095,1.317961,143299,6891
916.948,1.324160,156982,7442
922.079,1.332810,179937,8362
925.923,1.344085,200504,9079
929.762,1.319804,222660,10662
933.597,1.329304,244426,11451
937.427,1.337160,263972,12145
941.254,1.315132,281845,13642
945.076,1.327708,297271,13978
950.165,1.317100,315605,15207
953.978,1.326703,328029,15460
957.786,1.309414,340470,16698
961.59,1.313100,352317,17133
965.389,1.310824,363056,17748
969.185,1.309945,373162,18279
972.976,1.315516,382632,18504
976.763,1.308535,391202,19225
981.806,1.307690,400190,19705
985.583,1.302732,406088,20225
989.355,1.306123,410162,20269
993.124,1.303782,412868,20513
996.888,1.312829,414263,20158
1000.65,1.304890,415476,20590
1004.4,1.306351,415479,20521
1009.41,1.308811,414358,20350
1013.15,1.306537,412923,20386
1016.89,1.308079,411526,20245
1020.63,1.302674,409066,20376
1024.36,1.311071,406777,19874
1028.09,1.316004,404427,19536
1031.82,1.301042,401911,20095
1036.78,1.306018,398410,19693
1040.49,1.311889,396204,19321
1044.2,1.306435,394236,19468
1047.91,1.312914,392042,19073
1051.61,1.310312,389823,19079
1055.31,1.305476,388234,19214
1059,1.305421,387599,19185
1063.92,1.318362,386688,18578
1067.61,1.310683,386598,18905
1071.29,1.309883,387377,18978
1074.96,1.316662,388536,18740
1078.63,1.304110,389855,19355
1082.3,1.313776,391215,18995
1085.96,1.312212,393215,19161
1090.84,1.316912,396270,19102
1094.49,1.306312,398760,19697
1098.14,1.310453,400987,19619
1101.79,1.308496,403477,19830
1105.43,1.313215,406116,19744
1109.06,1.307816,407701,20069
1112.7,1.310563,409859,20048
1117.53,1.320114,412494,19738
1121.15,1.309858,414909,20328
1124.77,1.306527,416559,20566
1128.38,1.312290,418532,20391
1131.99,1.322261,419956,19996
1135.6,1.318725,421946,20255
1139.2,1.321098,423881,20237
1143.99,1.321688,426786,20348
1147.58,1.310989,428617,20945
1151.17,1.320928,431169,20593
1154.75,1.316361,433579,20927
1158.33,1.315982,436264,21075
1161.91,1.322761,439132,20885
1165.48,1.311391,442389,21598
1169.04,1.321523,446101,21277
1173.79,1.316733,451929,21794
1177.34,1.317397,456026,21958
1180.9,1.315139,461306,22328
1184.44,1.316473,467657,22566
1187.99,1.313475,473969,23029
1191.52,1.320366,479856,22948
1195.06,1.310245,487372,23857
1199.76,1.320429,497347,23781
1203.29,1.313852,504311,24482
1206.81,1.320342,511507,24463
1210.33,1.324474,519078,24590
1213.84,1.331010,527163,24600
1217.35,1.324058,534208,25331
1220.85,1.326335,540472,25494
1225.51,1.321641,549929,26222
1229.01,1.318184,556888,26766
1232.5,1.323104,562180,26716
1235.98,1.321136,567975,27114
1239.46,1.324736,574815,27214
1242.94,1.320058,582782,27890
1246.41,1.321349,591476,28222
1251.03,1.323909,604016,28651
1254.5,1.319437,612289,29344
1257.96,1.325385,619125,29268
1261.41,1.326320,624551,29461
1264.86,1.325493,629900,29770
1268.31,1.323413,634345,30124
1271.75,1.329729,638574,29887
1276.33,1.321584,642499,30640
1279.76,1.325627,645905,30517
1283.19,1.327395,648307,30506
1286.61,1.328584,650446,30523
1290.03,1.322820,652132,31011
1293.44,1.329766,653907,30602
1296.85,1.322530,655963,31214
1301.39,1.326546,657349,30992
1304.8,1.328862,657558,30837
1308.19,1.327947,658515,30947
1311.58,1.336111,658804,30384
1314.97,1.330836,659011,30765
1318.36,1.326176,658272,31062
1321.73,1.327832,658022,30932
1326.23,1.332177,657870,30617
1329.6,1.325021,656482,31060
1332.97,1.334248,654926,30335
1336.33,1.327071,653727,30784
1339.69,1.332091,652497,30373
1343.04,1.327602,649913,30567
1346.39,1.325080,647671,30639
1349.73,1.334988,645338,29840
1354.18,1.328930,641175,30064
1357.52,1.325717,638376,30155
1360.85,1.326246,635805,29997
1364.17,1.320990,633413,30248
1367.49,1.323462,631026,29963
1370.81,1.321684,628050,29944
1374.12,1.321032,625034,29845
1378.54,1.328689,620272,29100
1381.84,1.324484,616892,29223
1385.14,1.320449,613613,29339
1388.43,1.321389,611526,29176
1391.72,1.324738,610663,28911
1395.01,1.322575,610634,29054
1398.29,1.330355,611700,28588
1402.66,1.331565,614051,28618
1405.93,1.328181,616268,28946
1409.2,1.331105,617795,28823
1412.46,1.331184,618872,28868
1415.72,1.324167,619795,29382
1418.98,1.330385,620495,28997
1422.23,1.334273,621087,28766
1426.56,1.329924,621375,29069
1429.8,1.330122,621616,29067
1433.04,1.334156,622129,28822
1436.27,1.329268,621526,29120
1439.5,1.330907,621113,28991
1442.72,1.332514,620921,28875
1445.94,1.336275,620270,28596
1450.23,1.336489,618860,28517
1453.44,1.336541,617697,28460
1456.64,1.325516,616264,29124
1459.85,1.331215,614413,28658
1463.04,1.328150,612307,28762
1466.24,1.334334,610032,28250
1469.43,1.330224,607345,28393
1473.67,1.333805,603789,27995
1476.85,1.325087,601175,28439
1480.02,1.335286,597737,27620
1483.19,1.333117,594479,27607
1486.36,1.333184,591232,27452
1489.52,1.332137,587853,27361
1492.68,1.337424,583875,26847
1496.89,1.335479,578062,26699
1500.03,1.333319,574159,26651
1503.18,1.339235,570285,26113
1506.32,1.336499,565444,26055
1509.45,1.339594,560571,25647
1512.58,1.338071,555821,25519
1515.71,1.334128,550344,25498
1519.87,1.335514,543983,25123
1522.99,1.332192,538764,25073
1526.1,1.340649,533692,24358
1529.21,1.338451,527902,24216
1532.32,1.332077,521886,24294
1535.42,1.336161,515888,23790
1538.51,1.331000,509987,23799
1541.6,1.335001,503936,23301
1545.72,1.335850,494694,22829
1548.8,1.332922,488378,22690
1551.88,1.333055,481832,22379
1554.95,1.331820,474989,22124
1558.02,1.327990,467818,21983
1561.08,1.328089,460730,21645
1564.15,1.328676,454170,21308
1568.22,1.332514,444181,20656
1571.27,1.330650,436947,20407
1574.32,1.334144,429598,19903
1577.36,1.331107,422039,19690
1580.4,1.332399,414375,19275
1583.43,1.337667,406354,18674
1586.46,1.333864,398475,18473
1590.49,1.331604,388982,18127
1593.51,1.328419,380708,17872
1596.53,1.334249,372727,17264
1599.54,1.320320,365060,17460
1602.55,1.328795,357543,16770
1605.55,1.323045,349495,16611
1608.55,1.321243,341154,16282
1612.54,1.324875,330877,15660
1615.53,1.319808,322904,15462
1618.51,1.327915,315116,14810
1621.49,1.321222,307217,14663
1624.47,1.324417,299481,14189
1627.44,1.322910,292112,13888
1630.41,1.318719,284245,13645
1634.36,1.310933,274079,13395
1637.32,1.312064,266916,13011
1640.27,1.318842,259612,12459
1643.22,1.320941,251804,12026
1646.16,1.302076,244348,12188
1649.1,1.305387,236703,11717
1652.04,1.303801,228171,11336
1655.95,1.300442,215408,10785
1658.88,1.294545,204937,10401
1661.8,1.272723,193395,10321
1664.72,1.267173,179728,9715
1667.63,1.241183,163642,9391
1670.54,1.236935,146312,8479
1673.44,1.194500,128451,8208
1677.31,1.174256,105080,7035
1680.21,1.150971,88906,6280
1683.1,1.157998,75033,5215
1685.99,1.109184,63520,4940
1688.87,1.128679,53714,3994
1691.75,1.162955,45653,3137
1694.62,1.161546,39137,2698
1697.49,1.100798,33776,2678
1701.31,1.131383,28175,2082

File: Column 1_078925_20241121_172848.csv
Method:,Column 1,,
Host Date-Time:,21/11/24 @ 17:28:48,,
Header Version:,1,,
System Temp (C):,37.28,,
Detector Temp (C):,36.39,,
Humidity (%):,0.58,,
Lamp PD:,3796,,
Shift Vector Coefficients:,-10.5391,0.0761263,-0.000134223,,
Pixel to Wavelength Coefficients:,1775.68,-0.916766,-0.000235065,,
Serial Number:,5510004,,
Scan Config Name:,Column 1,,
Scan Config Type:,Slew,,
Section 1,,
Start wavelength (nm):,900,,
End wavelength (nm):,1700,,
Pattern Pixel Width (nm):,   7.03,,,,
Exposure (ms):,  0.635,,,,
Digital Resolution:,228,,
Num Repeats:,6,,
PGA Gain:,64,,
Total Measurement Time in sec:,  2.709,,
Wavelength (nm),Absorbance (AU),Reference Signal (unitless),Sample Signal (unitless)
901.51,1.308235,108485,5335
905.376,1.333605,121306,5627
909.237,1.324951,131909,6242
913.095,1.329327,143299,6713
916.948,1.323169,156982,7459
922.079,1.331255,179937,8392
925.923,1.335371,200504,9263
929.762,1.320374,222660,10648
933.597,1.313880,244426,11865
937.427,1.329610,263972,12358
941.254,1.331085,281845,13150
945.076,1.308740,297271,14602
950.165,1.313828,315605,15322
953.978,1.317723,328029,15783
957.786,1.311866,340470,16604
961.59,1.312264,352317,17166
965.389,1.318178,363056,17450
969.185,1.302618,373162,18590
972.976,1.313012,382632,18611
976.763,1.307159,391202,19286
981.806,1.305842,400190,19789
985.583,1.309614,406088,19907
989.355,1.303581,410162,20388
993.124,1.312054,412868,20126
996.888,1.306052,414263,20475
1000.65,1.305671,415476,20553
1004.4,1.314145,415479,20156
1009.41,1.307065,414358,20432
1013.15,1.308715,412923,20284
1016.89,1.295979,411526,20817
1020.63,1.296768,409066,20655
1024.36,1.309174,406777,19961
1028.09,1.308096,404427,19895
1031.82,1.312362,401911,19578
1036.78,1.301783,398410,19886
1040.49,1.312384,396204,19299
1044.2,1.317552,394236,18976
1047.91,1.299219,392042,19684
1051.61,1.311794,389823,19014
1055.31,1.300129,388234,19452
1059,1.321610,387599,18483
1063.92,1.316589,386688,18654
1067.61,1.315093,386598,18714
1071.29,1.306828,387377,19112
1074.96,1.308512,388536,19095
1078.63,1.309097,389855,19134
1082.3,1.315150,391215,18935
1085.96,1.318099,393215,18903
1090.84,1.311131,396270,19358
1094.49,1.316168,398760,19255
1098.14,1.313697,400987,19473
1101.79,1.316788,403477,19455
1105.43,1.319619,406116,19455
1109.06,1.304904,407701,20204
1112.7,1.305567,409859,20280
1117.53,1.317832,412494,19842
1121.15,1.320586,414909,19832
1124.77,1.305240,416559,20627
1128.38,1.315862,418532,20224
1131.99,1.329908,419956,19647
1135.6,1.316031,421946,20381
1139.2,1.322323,423881,20180
1143.99,1.315059,426786,20661
1147.58,1.315784,428617,20715
1151.17,1.317316,431169,20765
1154.75,1.316403,433579,20925
1158.33,1.316848,436264,21033
1161.91,1.318580,439132,21087
1165.48,1.321501,442389,21101
1169.04,1.314557,446101,21621
1173.79,1.314705,451929,21896
1177.34,1.310043,456026,22333
1180.9,1.315918,461306,22288
1184.44,1.319505,467657,22409
1187.99,1.320298,473969,22670
1191.52,1.311747,479856,23408
1195.06,1.319816,487372,23337
1199.76,1.320101,497347,23799
1203.29,1.330339,504311,23570
1206.81,1.322888,511507,24320
1210.33,1.323363,519078,24653
1213.84,1.320252,527163,25217
1217.35,1.320609,534208,25533
1220.85,1.317299,540472,26030
1225.51,1.320599,549929,26285
1229.01,1.322375,556888,26509
1232.5,1.319284,562180,26952
1235.98,1.320160,567975,27175
1239.46,1.323747,574815,27276
1242.94,1.326442,582782,27483
1246.41,1.317047,591476,28503
1251.03,1.318890,604016,28984
1254.5,1.323706,612289,29057
1257.96,1.320149,619125,29623
1261.41,1.323353,624551,29663
1264.86,1.332374,629900,29302
1268.31,1.326727,634345,29895
1271.75,1.325032,638574,30212
1276.33,1.321612,642499,30638
1279.76,1.326211,645905,30476
1283.19,1.331084,648307,30248
1286.61,1.320241,650446,31115
1290.03,1.322050,652132,31066
1293.44,1.332600,653907,30403
1296.85,1.323728,655963,31128
1301.39,1.330007,657349,30746
1304.8,1.325663,657558,31065
1308.19,1.330241,658515,30784
1311.58,1.327184,658804,31015
1314.97,1.326258,659011,31091
1318.36,1.331805,658272,30662
1321.73,1.333784,658022,30511
1326.23,1.332546,657870,30591
1329.6,1.326590,656482,30948
1332.97,1.330173,654926,30621
1336.33,1.324259,653727,30984
1339.69,1.330421,652497,30490
1343.04,1.328299,649913,30518
1346.39,1.331218,647671,30209
1349.73,1.332029,645338,30044
1354.18,1.326352,641175,30243
1357.52,1.321974,638376,30416
1360.85,1.326927,635805,29950
1364.17,1.331629,633413,29516
1367.49,1.328023,631026,29650
1370.81,1.328585,628050,29472
1374.12,1.323074,625034,29705
1378.54,1.329885,620272,29020
1381.84,1.323994,616892,29256
1385.14,1.324958,613613,29036
1388.43,1.335750,611526,28227
1391.72,1.329026,610663,28627
1395.01,1.326690,610634,28780
1398.29,1.325791,611700,28890
1402.66,1.319458,614051,29427
1405.93,1.332448,616268,28663
1409.2,1.331211,617795,28816
1412.46,1.323446,618872,29387
1415.72,1.324167,619795,29382
1418.98,1.328502,620495,29123
1422.23,1.327978,621087,29186
1426.56,1.331210,621375,28983
1429.8,1.322877,621616,29556
1433.04,1.334714,622129,28785
1436.27,1.334127,621526,28796
1439.5,1.335485,621113,28687
1442.72,1.333644,620921,28800
1445.94,1.334971,620270,28682
1450.23,1.328880,618860,29021
1453.44,1.334592,617697,28588
1456.64,1.333462,616264,28596
1459.85,1.332748,614413,28557
1463.04,1.331957,612307,28511
1466.24,1.335890,610032,28149
1469.43,1.337178,607345,27942
1473.67,1.324701,603789,28588
1476.85,1.335300,601175,27778
1480.02,1.335806,597737,27587
1483.19,1.338531,594479,27265
1486.36,1.332504,591232,27495
1489.52,1.331740,587853,27386
1492.68,1.333944,583875,27063
1496.89,1.329342,578062,27079
1500.03,1.333058,574159,26667
1503.18,1.339734,570285,26083
1506.32,1.340905,565444,25792
1509.45,1.340900,560571,25570
1512.58,1.330865,555821,25946
1515.71,1.336845,550344,25339
1519.87,1.336934,543983,25041
1522.99,1.340022,538764,24625
1526.1,1.332471,533692,24821
1529.21,1.332856,527902,24530
1532.32,1.332882,521886,24249
1535.42,1.336307,515888,23782
1538.51,1.335531,509987,23552
1541.6,1.337693,503936,23157
1545.72,1.336154,494694,22813
1548.8,1.331717,488378,22753
1551.88,1.333579,481832,22352
1554.95,1.329295,474989,22253
1558.02,1.334018,467818,21680
1561.08,1.329214,460730,21589
1564.15,1.324477,454170,21515
1568.22,1.333461,444181,20611
1571.27,1.328230,436947,20521
1574.32,1.333729,429598,19922
1577.36,1.336076,422039,19466
1580.4,1.334341,414375,19189
1583.43,1.324970,406354,19228
1586.46,1.329350,398475,18666
1590.49,1.329763,388982,18204
1593.51,1.334044,380708,17642
1596.53,1.327114,372727,17550
1599.54,1.326760,365060,17203
1602.55,1.330300,357543,16712
1605.55,1.315708,349495,16894
1608.55,1.327205,341154,16060
1612.54,1.314381,330877,16043
1615.53,1.318070,322904,15524
1618.51,1.321627,315116,15026
1621.49,1.316978,307217,14807
1624.47,1.327612,299481,14085
1627.44,1.328037,292112,13725
1630.41,1.320985,284245,13574
1634.36,1.318554,274079,13162
1637.32,1.313468,266916,12969
1640.27,1.322166,259612,12364
1643.22,1.306347,251804,12437
1646.16,1.310641,244348,11950
1649.1,1.309970,236703,11594
1652.04,1.298243,228171,11482
1655.95,1.299436,215408,10810
1658.88,1.300515,204937,10259
1661.8,1.290415,193395,9909
1664.72,1.265032,179728,9763
1667.63,1.250390,163642,9194
1670.54,1.226260,146312,8690
1673.44,1.207988,128451,7957
1677.31,1.189970,105080,6785
1680.21,1.156960,88906,6194
1683.1,1.145764,75033,5364
1685.99,1.121217,63520,4805
1688.87,1.167914,53714,3649
1691.75,1.154727,45653,3197
1694.62,1.174121,39137,2621
1697.49,1.086599,33776,2767
1701.31,1.142154,28175,2031

File: Column 1_078926_20241121_172851.csv
Method:,Column 1,,
Host Date-Time:,21/11/24 @ 17:28:51,,
Header Version:,1,,
System Temp (C):,37.23,,
Detector Temp (C):,36.38,,
Humidity (%):,0.58,,
Lamp PD:,3796,,
Shift Vector Coefficients:,-10.5391,0.0761263,-0.000134223,,
Pixel to Wavelength Coefficients:,1775.68,-0.916766,-0.000235065,,
Serial Number:,5510004,,
Scan Config Name:,Column 1,,
Scan Config Type:,Slew,,
Section 1,,
Start wavelength (nm):,900,,
End wavelength (nm):,1700,,
Pattern Pixel Width (nm):,   7.03,,,,
Exposure (ms):,  0.635,,,,
Digital Resolution:,228,,
Num Repeats:,6,,
PGA Gain:,64,,
Total Measurement Time in sec:,  2.729,,
Wavelength (nm),Absorbance (AU),Reference Signal (unitless),Sample Signal (unitless)
901.51,1.338140,108485,4980
905.376,1.320155,121306,5804
909.237,1.318596,131909,6334
913.095,1.293337,143299,7293
916.948,1.307277,156982,7737
922.079,1.312319,179937,8766
925.923,1.323076,200504,9529
929.762,1.328734,222660,10445
933.597,1.319813,244426,11704
937.427,1.325030,263972,12489
941.254,1.317398,281845,13571
945.076,1.316482,297271,14344
950.165,1.312611,315605,15365
953.978,1.309113,328029,16099
957.786,1.311474,340470,16619
961.59,1.304715,352317,17467
965.389,1.307800,363056,17872
969.185,1.307127,373162,18398
972.976,1.312545,382632,18631
976.763,1.306012,391202,19337
981.806,1.305184,400190,19819
985.583,1.299523,406088,20375
989.355,1.303240,410162,20404
993.124,1.300345,412868,20676
996.888,1.308370,414263,20366
1000.65,1.309235,415476,20385
1004.4,1.300528,415479,20798
1009.41,1.302308,414358,20657
1013.15,1.300571,412923,20668
1016.89,1.300425,411526,20605
1020.63,1.310134,409066,20029
1024.36,1.297666,406777,20497
1028.09,1.307159,404427,19938
1031.82,1.306194,401911,19858
1036.78,1.313111,398410,19374
1040.49,1.305264,396204,19618
1044.2,1.302792,394236,19632
1047.91,1.308428,392042,19271
1051.61,1.312411,389823,18987
1055.31,1.307061,388234,19144
1059,1.312933,387599,18856
1063.92,1.307534,386688,19047
1067.61,1.306522,386598,19087
1071.29,1.307988,387377,19061
1074.96,1.313797,388536,18864
1078.63,1.321040,389855,18615
1082.3,1.319090,391215,18764
1085.96,1.307590,393215,19366
1090.84,1.305403,396270,19615
1094.49,1.314076,398760,19348
1098.14,1.310033,400987,19638
1101.79,1.317480,403477,19424
1105.43,1.308207,406116,19973
1109.06,1.314423,407701,19766
1112.7,1.314131,409859,19884
1117.53,1.302986,412494,20532
1121.15,1.318467,414909,19929
1124.77,1.309642,416559,20419
1128.38,1.316657,418532,20187
1131.99,1.322109,419956,20003
1135.6,1.311579,421946,20591
1139.2,1.309807,423881,20770
1143.99,1.314975,426786,20665
1147.58,1.316624,428617,20675
1151.17,1.315833,431169,20836
1154.75,1.316278,433579,20931
1158.33,1.317882,436264,20983
1161.91,1.309370,439132,21539
1165.48,1.314134,442389,21462
1169.04,1.311256,446101,21786
1173.79,1.316713,451929,21795
1177.34,1.306962,456026,22492
1180.9,1.313160,461306,22430
1184.44,1.310927,467657,22856
1187.99,1.307073,473969,23371
1191.52,1.324072,479856,22753
1195.06,1.318905,487372,23386
1199.76,1.318098,497347,23909
1203.29,1.324373,504311,23896
1206.81,1.317493,511507,24624
1210.33,1.316356,519078,25054
1213.84,1.324805,527163,24954
1217.35,1.313238,534208,25970
1220.85,1.322080,540472,25745
1225.51,1.322088,549929,26195
1229.01,1.319908,556888,26660
1232.5,1.322487,562180,26754
1235.98,1.318724,567975,27265
1239.46,1.317033,574815,27701
1242.94,1.310616,582782,28503
1246.41,1.320412,591476,28283
1251.03,1.311329,604016,29493
1254.5,1.321975,612289,29173
1257.96,1.319783,619125,29648
1261.41,1.323002,624551,29687
1264.86,1.322657,629900,29965
1268.31,1.323745,634345,30101
1271.75,1.325104,638574,30207
1276.33,1.324599,642499,30428
1279.76,1.326196,645905,30477
1283.19,1.322526,648307,30850
1286.61,1.325733,650446,30724
1290.03,1.328557,652132,30604
1293.44,1.325234,653907,30923
1296.85,1.328470,655963,30790
1301.39,1.324380,657349,31147
1304.8,1.324378,657558,31157
1308.19,1.326840,658515,31026
1311.58,1.326052,658804,31096
1314.97,1.325212,659011,31166
1318.36,1.324195,658272,31204
1321.73,1.326473,658022,31029
1326.23,1.332830,657870,30571
1329.6,1.324337,656482,31109
1332.97,1.327416,654926,30816
1336.33,1.324203,653727,30988
1339.69,1.331491,652497,30415
1343.04,1.328484,649913,30505
1346.39,1.326173,647671,30562
1349.73,1.322805,645338,30689
1354.18,1.320773,641175,30634
1357.52,1.321903,638376,30421
1360.85,1.326420,635805,29985
1364.17,1.321968,633413,30180
1367.49,1.320558,631026,30164
1370.81,1.324887,628050,29724
1374.12,1.326656,625034,29461
1378.54,1.320235,620272,29672
1381.84,1.319299,616892,29574
1385.14,1.323763,613613,29116
1388.43,1.322104,611526,29128
1391.72,1.320999,610663,29161
1395.01,1.327839,610634,28704
1398.29,1.329672,611700,28633
1402.66,1.330292,614051,28702
1405.93,1.326758,616268,29041
1409.2,1.331452,617795,28800
1412.46,1.329188,618872,29001
1415.72,1.326315,619795,29237
1418.98,1.333436,620495,28794
1422.23,1.324406,621087,29427
1426.56,1.329550,621375,29094
1429.8,1.327218,621616,29262
1433.04,1.331243,622129,29016
1436.27,1.330029,621526,29069
1439.5,1.329382,621113,29093
1442.72,1.327089,620921,29238
1445.94,1.326930,620270,29218
1450.23,1.336748,618860,28500
1453.44,1.328003,617697,29025
1456.64,1.329094,616264,28885
1459.85,1.333433,614413,28512
1463.04,1.335336,612307,28290
1466.24,1.334058,610032,28268
1469.43,1.327221,607345,28590
1473.67,1.340669,603789,27556
1476.85,1.330403,601175,28093
1480.02,1.328330,597737,28066
1483.19,1.334567,594479,27515
1486.36,1.328902,591232,27724
1489.52,1.333408,587853,27281
1492.68,1.329744,583875,27326
1496.89,1.331190,578062,26964
1500.03,1.335917,574159,26492
1503.18,1.332862,570285,26499
1506.32,1.335001,565444,26145
1509.45,1.334962,560571,25922
1512.58,1.323430,555821,26394
1515.71,1.335920,550344,25393
1519.87,1.354362,543983,24056
1522.99,1.330826,538764,25152
1526.1,1.331039,533692,24903
1529.21,1.330208,527902,24680
1532.32,1.328676,521886,24485
1535.42,1.333940,515888,23912
1538.51,1.333086,509987,23685
1541.6,1.327114,503936,23728
1545.72,1.332873,494694,22986
1548.8,1.330060,488378,22840
1551.88,1.333055,481832,22379
1554.95,1.338566,474989,21783
1558.02,1.326590,467818,22054
1561.08,1.331635,460730,21469
1564.15,1.337738,454170,20868
1568.22,1.336527,444181,20466
1571.27,1.330012,436947,20437
1574.32,1.330861,429598,20054
1577.36,1.324996,422039,19969
1580.4,1.322751,414375,19708
1583.43,1.326464,406354,19162
1586.46,1.316829,398475,19212
1590.49,1.323627,388982,18463
1593.51,1.330099,380708,17803
1596.53,1.323859,372727,17682
1599.54,1.323867,365060,17318
1602.55,1.325185,357543,16910
1605.55,1.327751,349495,16432
1608.55,1.321109,341154,16287
1612.54,1.323242,330877,15719
1615.53,1.334142,322904,14960
1618.51,1.317915,315116,15155
1621.49,1.322468,307217,14621
1624.47,1.316983,299481,14434
1627.44,1.316793,292112,14085
1630.41,1.322299,284245,13533
1634.36,1.315070,274079,13268
1637.32,1.320524,266916,12760
1640.27,1.317484,259612,12498
1643.22,1.304048,251804,12503
1646.16,1.288950,244348,12562
1649.1,1.304499,236703,11741
1652.04,1.310947,228171,11151
1655.95,1.272602,215408,11499
1658.88,1.300515,204937,10259
1661.8,1.275298,193395,10260
1664.72,1.249264,179728,10124
1667.63,1.244106,163642,9328
1670.54,1.219270,146312,8831
1673.44,1.191022,128451,8274
1677.31,1.157187,105080,7317
1680.21,1.167966,88906,6039
1683.1,1.143825,75033,5388
1685.99,1.173909,63520,4256
1688.87,1.115823,53714,4114
1691.75,1.124049,45653,3431
1694.62,1.133799,39137,2876
1697.49,1.121047,33776,2556
1701.31,1.198956,28175,1782