Folder: textile_sorting_NIRSCAN_/ML/samples/unknown (part 16)

File: Column 1_078107_20241121_164548.csv
Method:,Column 1,,
Host Date-Time:,21/11/24 @ 16:45:48,,
Header Version:,1,,
System Temp (C):,32.5,,
Detector Temp (C):,27.78,,
Humidity (%):,4.01,,
Lamp PD:,3807,,
Shift Vector Coefficients:,-10.5391,0.0761263,-0.000134223,,
Pixel to Wavelength Coefficients:,1775.68,-0.916766,-0.000235065,,
Serial Number:,5510004,,
Scan Config Name:,Column 1,,
Scan Config Type:,Slew,,
Section 1,,
Start wavelength (nm):,900,,
End wavelength (nm):,1700,,
Pattern Pixel Width (nm):,   7.03,,,,
Exposure (ms):,  0.635,,,,
Digital Resolution:,228,,
Num Repeats:,6,,
PGA Gain:,64,,
Total Measurement Time in sec:,  2.705,,
Wavelength (nm),Absorbance (AU),Reference Signal (unitless),Sample Signal (unitless)
901.51,1.307910,108485,5339
905.376,1.308053,121306,5968
909.237,1.300533,131909,6603
913.095,1.307254,143299,7063
916.948,1.323635,156982,7451
922.079,1.309750,179937,8818
925.923,1.308334,200504,9858
929.762,1.311453,222660,10869
933.597,1.304609,244426,12121
937.427,1.307815,263972,12994
941.254,1.315674,281845,13625
945.076,1.316603,297271,14340
950.165,1.297365,315605,15914
953.978,1.306370,328029,16201
957.786,1.314200,340470,16515
961.59,1.311607,352317,17192
965.389,1.301815,363056,18120
969.185,1.316432,373162,18008
972.976,1.311846,382632,18661
976.763,1.308896,391202,19209
981.806,1.308793,400190,19655
985.583,1.306181,406088,20065
989.355,1.304114,410162,20363
993.124,1.303951,412868,20505
996.888,1.302798,414263,20629
1000.65,1.303521,415476,20655
1004.4,1.311610,415479,20274
1009.41,1.309132,414358,20335
1013.15,1.313365,412923,20068
1016.89,1.312413,411526,20044
1020.63,1.313923,409066,19855
1024.36,1.308696,406777,19983
1028.09,1.309758,404427,19819
1031.82,1.303426,401911,19985
1036.78,1.315696,398410,19259
1040.49,1.313398,396204,19254
1044.2,1.313225,394236,19166
1047.91,1.307483,392042,19313
1051.61,1.311497,389823,19027
1055.31,1.316927,388234,18714
1059,1.310338,387599,18969
1063.92,1.323441,386688,18362
1067.61,1.310086,386598,18931
1071.29,1.310525,387377,18950
1074.96,1.314973,388536,18813
1078.63,1.313500,389855,18941
1082.3,1.315426,391215,18923
1085.96,1.312167,393215,19163
1090.84,1.317891,396270,19059
1094.49,1.313806,398760,19360
1098.14,1.324148,400987,19010
1101.79,1.306399,403477,19926
1105.43,1.315619,406116,19635
1109.06,1.320352,407701,19498
1112.7,1.313280,409859,19923
1117.53,1.313238,412494,20053
1121.15,1.316359,414909,20026
1124.77,1.325850,416559,19671
1128.38,1.315647,418532,20234
1131.99,1.323152,419956,19955
1135.6,1.316756,421946,20347
1139.2,1.328042,423881,19916
1143.99,1.312627,426786,20777
1147.58,1.313047,428617,20846
1151.17,1.327644,431169,20277
1154.75,1.322274,433579,20644
1158.33,1.319084,436264,20925
1161.91,1.312791,439132,21370
1165.48,1.322408,442389,21057
1169.04,1.319344,446101,21384
1173.79,1.321462,451929,21558
1177.34,1.312656,456026,22199
1180.9,1.318459,461306,22158
1184.44,1.323047,467657,22227
1187.99,1.319112,473969,22732
1191.52,1.322073,479856,22858
1195.06,1.317736,487372,23449
1199.76,1.319554,497347,23829
1203.29,1.315095,504311,24412
1206.81,1.323174,511507,24304
1210.33,1.328431,519078,24367
1213.84,1.328475,527163,24744
1217.35,1.330274,534208,24971
1220.85,1.321473,540472,25781
1225.51,1.327309,549929,25882
1229.01,1.324757,556888,26364
1232.5,1.318640,562180,26992
1235.98,1.319537,567975,27214
1239.46,1.322174,574815,27375
1242.94,1.321055,582782,27826
1246.41,1.322968,591476,28117
1251.03,1.326722,604016,28466
1254.5,1.321157,612289,29228
1257.96,1.326574,619125,29188
1261.41,1.324071,624551,29614
1264.86,1.327027,629900,29665
1268.31,1.325146,634345,30004
1271.75,1.326010,638574,30144
1276.33,1.326616,642499,30287
1279.76,1.326253,645905,30473
1283.19,1.338046,648307,29767
1286.61,1.332974,650446,30216
1290.03,1.326900,652132,30721
1293.44,1.331430,653907,30485
1296.85,1.329699,655963,30703
1301.39,1.333453,657349,30503
1304.8,1.331461,657558,30653
1308.19,1.331526,658515,30693
1311.58,1.329910,658804,30821
1314.97,1.329398,659011,30867
1318.36,1.331777,658272,30664
1321.73,1.329056,658022,30845
1326.23,1.328350,657870,30888
1329.6,1.333750,656482,30442
1332.97,1.332263,654926,30474
1336.33,1.325846,653727,30871
1339.69,1.324002,652497,30944
1343.04,1.330196,649913,30385
1346.39,1.329668,647671,30317
1349.73,1.331668,645338,30069
1354.18,1.325606,641175,30295
1357.52,1.330147,638376,29849
1360.85,1.327711,635805,29896
1364.17,1.330102,633413,29620
1367.49,1.327832,631026,29663
1370.81,1.332448,628050,29211
1374.12,1.329303,625034,29282
1378.54,1.333869,620272,28755
1381.84,1.331450,616892,28758
1385.14,1.324300,613613,29080
1388.43,1.329548,611526,28633
1391.72,1.327451,610663,28731
1395.01,1.330723,610634,28514
1398.29,1.321215,611700,29196
1402.66,1.328465,614051,28823
1405.93,1.328661,616268,28914
1409.2,1.330172,617795,28885
1412.46,1.331305,618872,28860
1415.72,1.337800,619795,28474
1418.98,1.328115,620495,29149
1422.23,1.331669,621087,28939
1426.56,1.326946,621375,29269
1429.8,1.332354,621616,28918
1433.04,1.333464,622129,28868
1436.27,1.333841,621526,28815
1439.5,1.334321,621113,28764
1442.72,1.334822,620921,28722
1445.94,1.333913,620270,28752
1450.23,1.334847,618860,28625
1453.44,1.336266,617697,28478
1456.64,1.335776,616264,28444
1459.85,1.336198,614413,28331
1463.04,1.338603,612307,28078
1466.24,1.334903,610032,28213
1469.43,1.331956,607345,28280
1473.67,1.331068,603789,28172
1476.85,1.332728,601175,27943
1480.02,1.334219,597737,27688
1483.19,1.333133,594479,27606
1486.36,1.335675,591232,27295
1489.52,1.342936,587853,26689
1492.68,1.340199,583875,26676
1496.89,1.333564,578062,26817
1500.03,1.334804,574159,26560
1503.18,1.333338,570285,26470
1506.32,1.342000,565444,25727
1509.45,1.338512,560571,25711
1512.58,1.338514,555821,25493
1515.71,1.336485,550344,25360
1519.87,1.330512,543983,25414
1522.99,1.341153,538764,24561
1526.1,1.331423,533692,24881
1529.21,1.344083,527902,23904
1532.32,1.338833,521886,23919
1535.42,1.333649,515888,23928
1538.51,1.337379,509987,23452
1541.6,1.330883,503936,23523
1545.72,1.336383,494694,22801
1548.8,1.336284,488378,22515
1551.88,1.331312,481832,22469
1554.95,1.339025,474989,21760
1558.02,1.336227,467818,21570
1561.08,1.336988,460730,21206
1564.15,1.333863,454170,21055
1568.22,1.321409,444181,21191
1571.27,1.329842,436947,20445
1574.32,1.328830,429598,20148
1577.36,1.335184,422039,19506
1580.4,1.329816,414375,19390
1583.43,1.330402,406354,18989
1586.46,1.325297,398475,18841
1590.49,1.322781,388982,18499
1593.51,1.340767,380708,17371
1596.53,1.327634,372727,17529
1599.54,1.320196,365060,17465
1602.55,1.329832,357543,16730
1605.55,1.328332,349495,16410
1608.55,1.335119,341154,15770
1612.54,1.328383,330877,15534
1615.53,1.334694,322904,14941
1618.51,1.326422,315116,14861
1621.49,1.327187,307217,14463
1624.47,1.325766,299481,14145
1627.44,1.318677,292112,14024
1630.41,1.330201,284245,13289
1634.36,1.319909,274079,13121
1637.32,1.328528,266916,12527
1640.27,1.329248,259612,12164
1643.22,1.311864,251804,12280
1646.16,1.319971,244348,11696
1649.1,1.310345,236703,11584
1652.04,1.325883,228171,10774
1655.95,1.312693,215408,10485
1658.88,1.311143,204937,10011
1661.8,1.313410,193395,9398
1664.72,1.288850,179728,9242
1667.63,1.294555,163642,8305
1670.54,1.288716,146312,7526
1673.44,1.293625,128451,6533
1677.31,1.254810,105080,5844
1680.21,1.246932,88906,5035
1683.1,1.253246,75033,4188
1685.99,1.223813,63520,3794
1688.87,1.284017,53714,2793
1691.75,1.305745,45653,2258
1694.62,1.236753,39137,2269
1697.49,1.379081,33776,1411
1701.31,1.143010,28175,2027

File: Column 1_078109_20241121_164554.csv
Method:,Column 1,,
Host Date-Time:,21/11/24 @ 16:45:54,,
Header Version:,1,,
System Temp (C):,32.53,,
Detector Temp (C):,27.84,,
Humidity (%):,4.1,,
Lamp PD:,3807,,
Shift Vector Coefficients:,-10.5391,0.0761263,-0.000134223,,
Pixel to Wavelength Coefficients:,1775.68,-0.916766,-0.000235065,,
Serial Number:,5510004,,
Scan Config Name:,Column 1,,
Scan Config Type:,Slew,,
Section 1,,
Start wavelength (nm):,900,,
End wavelength (nm):,1700,,
Pattern Pixel Width (nm):,   7.03,,,,
Exposure (ms):,  0.635,,,,
Digital Resolution:,228,,
Num Repeats:,6,,
PGA Gain:,64,,
Total Measurement Time in sec:,  2.726,,
Wavelength (nm),Absorbance (AU),Reference Signal (unitless),Sample Signal (unitless)
901.51,1.300330,108485,5433
905.376,1.326866,121306,5715
909.237,1.303834,131909,6553
913.095,1.328486,143299,6726
916.948,1.303644,156982,7802
922.079,1.301602,179937,8985
925.923,1.315486,200504,9697
929.762,1.307752,222660,10962
933.597,1.317519,244426,11766
937.427,1.311406,263972,12887
941.254,1.317815,281845,13558
945.076,1.317058,297271,14325
950.165,1.321175,315605,15065
953.978,1.321731,328029,15638
957.786,1.321279,340470,16248
961.59,1.311430,352317,17199
965.389,1.308676,363056,17836
969.185,1.317567,373162,17961
972.976,1.306894,382632,18875
976.763,1.297781,391202,19707
981.806,1.312610,400190,19483
985.583,1.307873,406088,19987
989.355,1.311448,410162,20022
993.124,1.313848,412868,20043
996.888,1.311925,414263,20200
1000.65,1.304257,415476,20620
1004.4,1.307495,415479,20467
1009.41,1.310865,414358,20254
1013.15,1.304264,412923,20493
1016.89,1.308573,411526,20222
1020.63,1.310633,409066,20006
1024.36,1.315773,406777,19660
1028.09,1.308074,404427,19896
1031.82,1.311011,401911,19639
1036.78,1.312999,398410,19379
1040.49,1.309491,396204,19428
1044.2,1.315565,394236,19063
1047.91,1.311118,392042,19152
1051.61,1.307770,389823,19191
1055.31,1.320071,388234,18579
1059,1.323329,387599,18410
1063.92,1.311842,386688,18859
1067.61,1.314745,386598,18729
1071.29,1.321103,387377,18494
1074.96,1.309103,388536,19069
1078.63,1.310666,389855,19065
1082.3,1.315793,391215,18907
1085.96,1.306784,393215,19402
1090.84,1.314622,396270,19203
1094.49,1.319133,398760,19124
1098.14,1.321143,400987,19142
1101.79,1.322608,403477,19196
1105.43,1.313611,406116,19726
1109.06,1.316957,407701,19651
1112.7,1.313738,409859,19902
1117.53,1.323849,412494,19569
1121.15,1.318511,414909,19927
1124.77,1.318864,416559,19990
1128.38,1.318079,418532,20121
1131.99,1.319317,419956,20132
1135.6,1.325989,421946,19919
1139.2,1.314115,423881,20565
1143.99,1.326906,426786,20105
1147.58,1.320803,428617,20477
1151.17,1.322174,431169,20534
1154.75,1.320176,433579,20744
1158.33,1.317985,436264,20978
1161.91,1.325368,439132,20760
1165.48,1.314965,442389,21421
1169.04,1.325212,446101,21097
1173.79,1.317551,451929,21753
1177.34,1.325724,456026,21541
1180.9,1.318419,461306,22160
1184.44,1.315723,467657,22605
1187.99,1.324572,473969,22448
1191.52,1.317010,479856,23126
1195.06,1.320207,487372,23316
1199.76,1.325351,497347,23513
1203.29,1.326322,504311,23789
1206.81,1.327646,511507,24055
1210.33,1.322219,519078,24718
1213.84,1.331787,527163,24556
1217.35,1.329718,534208,25003
1220.85,1.328898,540472,25344
1225.51,1.322155,549929,26191
1229.01,1.327881,556888,26175
1232.5,1.322876,562180,26730
1235.98,1.318039,567975,27308
1239.46,1.320290,574815,27494
1242.94,1.321836,582782,27776
1246.41,1.328393,591476,27768
1251.03,1.321204,604016,28830
1254.5,1.331229,612289,28558
1257.96,1.325281,619125,29275
1261.41,1.329591,624551,29240
1264.86,1.326808,629900,29680
1268.31,1.331371,634345,29577
1271.75,1.336967,638574,29393
1276.33,1.329566,642499,30082
1279.76,1.328396,645905,30323
1283.19,1.329737,648307,30342
1286.61,1.331697,650446,30305
1290.03,1.328926,652132,30578
1293.44,1.333271,653907,30356
1296.85,1.337203,655963,30177
1301.39,1.334665,657349,30418
1304.8,1.329948,657558,30760
1308.19,1.334864,658515,30458
1311.58,1.333489,658804,30568
1314.97,1.329229,659011,30879
1318.36,1.335789,658272,30382
1321.73,1.329408,658022,30820
1326.23,1.331341,657870,30676
1329.6,1.332055,656482,30561
1332.97,1.329563,654926,30664
1336.33,1.336844,653727,30099
1339.69,1.340275,652497,29806
1343.04,1.331126,649913,30320
1346.39,1.329296,647671,30343
1349.73,1.332999,645338,29977
1354.18,1.330681,641175,29943
1357.52,1.331969,638376,29724
1360.85,1.328933,635805,29812
1364.17,1.329765,633413,29643
1367.49,1.333224,631026,29297
1370.81,1.330682,628050,29330
1374.12,1.320799,625034,29861
1378.54,1.330979,620272,28947
1381.84,1.329853,616892,28864
1385.14,1.327177,613613,28888
1388.43,1.328563,611526,28698
1391.72,1.331216,610663,28483
1395.01,1.327551,610634,28723
1398.29,1.333266,611700,28397
1402.66,1.332857,614051,28533
1405.93,1.332130,616268,28684
1409.2,1.335193,617795,28553
1412.46,1.331365,618872,28856
1415.72,1.333912,619795,28730
1418.98,1.338778,620495,28442
1422.23,1.338918,621087,28460
1426.56,1.331300,621375,28977
1429.8,1.332309,621616,28921
1433.04,1.337925,622129,28573
1436.27,1.335820,621526,28684
1439.5,1.327758,621113,29202
1442.72,1.335730,620921,28662
1445.94,1.332586,620270,28840
1450.23,1.331612,618860,28839
1453.44,1.334577,617697,28589
1456.64,1.342904,616264,27981
1459.85,1.334760,614413,28425
1463.04,1.333896,612307,28384
1466.24,1.335643,610032,28165
1469.43,1.337551,607345,27918
1473.67,1.340370,603789,27575
1476.85,1.332091,601175,27984
1480.02,1.334517,597737,27669
1483.19,1.337513,594479,27329
1486.36,1.345947,591232,26657
1489.52,1.334572,587853,27208
1492.68,1.342468,583875,26537
1496.89,1.340469,578062,26394
1500.03,1.338878,574159,26312
1503.18,1.341553,570285,25974
1506.32,1.343624,565444,25631
1509.45,1.340187,560571,25612
1512.58,1.342846,555821,25240
1515.71,1.337960,550344,25274
1519.87,1.341029,543983,24806
1522.99,1.336474,538764,24827
1526.1,1.334646,533692,24697
1529.21,1.336929,527902,24301
1532.32,1.336009,521886,24075
1535.42,1.342561,515888,23442
1538.51,1.335052,509987,23578
1541.6,1.337299,503936,23178
1545.72,1.334748,494694,22887
1548.8,1.334898,488378,22587
1551.88,1.340177,481832,22015
1554.95,1.329764,474989,22229
1558.02,1.342882,467818,21242
1561.08,1.336763,460730,21217
1564.15,1.340452,454170,20738
1568.22,1.332535,444181,20655
1571.27,1.337017,436947,20110
1574.32,1.341161,429598,19584
1577.36,1.336612,422039,19442
1580.4,1.339029,414375,18983
1583.43,1.338645,406354,18632
1586.46,1.335890,398475,18387
1590.49,1.342742,388982,17668
1593.51,1.331100,380708,17762
1596.53,1.318077,372727,17919
1599.54,1.323491,365060,17333
1602.55,1.323672,357543,16969
1605.55,1.324040,349495,16573
1608.55,1.331635,341154,15897
1612.54,1.328747,330877,15521
1615.53,1.328288,322904,15163
1618.51,1.324905,315116,14913
1621.49,1.317683,307217,14783
1624.47,1.321215,299481,14294
1627.44,1.321785,292112,13924
1630.41,1.322491,284245,13527
1634.36,1.315824,274079,13245
1637.32,1.325212,266916,12623
1640.27,1.328606,259612,12182
1643.22,1.315201,251804,12186
1646.16,1.319749,244348,11702
1649.1,1.340619,236703,10804
1652.04,1.315016,228171,11047
1655.95,1.297272,215408,10864
1658.88,1.304385,204937,10168
1661.8,1.293936,193395,9829
1664.72,1.300228,179728,9003
1667.63,1.305785,163642,8093
1670.54,1.298756,146312,7354
1673.44,1.297833,128451,6470
1677.31,1.302686,105080,5234
1680.21,1.292641,88906,4532
1683.1,1.300642,75033,3755
1685.99,1.297489,63520,3202
1688.87,1.289336,53714,2759
1691.75,1.292300,45653,2329
1694.62,1.232183,39137,2293
1697.49,1.211799,33776,2074
1701.31,1.152760,28175,1982

File: Column 1_078110_20241121_164557.csv
Method:,Column 1,,
Host Date-Time:,21/11/24 @ 16:45:57,,
Header Version:,1,,
System Temp (C):,32.57,,
Detector Temp (C):,27.84,,
Humidity (%):,4.1,,
Lamp PD:,3807,,
Shift Vector Coefficients:,-10.5391,0.0761263,-0.000134223,,
Pixel to Wavelength Coefficients:,1775.68,-0.916766,-0.000235065,,
Serial Number:,5510004,,
Scan Config Name:,Column 1,,
Scan Config Type:,Slew,,
Section 1,,
Start wavelength (nm):,900,,
End wavelength (nm):,1700,,
Pattern Pixel Width (nm):,   7.03,,,,
Exposure (ms):,  0.635,,,,
Digital Resolution:,228,,
Num Repeats:,6,,
PGA Gain:,64,,
Total Measurement Time in sec:,  2.723,,
Wavelength (nm),Absorbance (AU),Reference Signal (unitless),Sample Signal (unitless)
901.51,1.341203,108485,4945
905.376,1.301338,121306,6061
909.237,1.338447,131909,6051
913.095,1.318402,143299,6884
916.948,1.360413,156982,6846
922.079,1.302958,179937,8957
925.923,1.309128,200504,9840
929.762,1.332450,222660,10356
933.597,1.305183,244426,12105
937.427,1.319605,263972,12646
941.254,1.309471,281845,13821
945.076,1.317604,297271,14307
950.165,1.308028,315605,15528
953.978,1.321065,328029,15662
957.786,1.301349,340470,17011
961.59,1.306484,352317,17396
965.389,1.308554,363056,17841
969.185,1.303273,373162,18562
972.976,1.315657,382632,18498
976.763,1.313830,391202,18992
981.806,1.307183,400190,19728
985.583,1.300590,406088,20325
989.355,1.301859,410162,20469
993.124,1.307930,412868,20318
996.888,1.320129,414263,19822
1000.65,1.311821,415476,20264
1004.4,1.318955,415479,19934
1009.41,1.308065,414358,20385
1013.15,1.309594,412923,20243
1016.89,1.308831,411526,20210
1020.63,1.302419,409066,20388
1024.36,1.300771,406777,20351
1028.09,1.310636,404427,19779
1031.82,1.310237,401911,19674
1036.78,1.311478,398410,19447
1040.49,1.322976,396204,18834
1044.2,1.320330,394236,18855
1047.91,1.311572,392042,19132
1051.61,1.312503,389823,18983
1055.31,1.308083,388234,19099
1059,1.317331,387599,18666
1063.92,1.314383,386688,18749
1067.61,1.310109,386598,18930
1071.29,1.315480,387377,18735
1074.96,1.322025,388536,18510
1078.63,1.320178,389855,18652
1082.3,1.313342,391215,19014
1085.96,1.314416,393215,19064
1090.84,1.316708,396270,19111
1094.49,1.317523,398760,19195
1098.14,1.318903,400987,19241
1101.79,1.318263,403477,19389
1105.43,1.316239,406116,19607
1109.06,1.314995,407701,19740
1112.7,1.323179,409859,19474
1117.53,1.318314,412494,19820
1121.15,1.324701,414909,19645
1124.77,1.322639,416559,19817
1128.38,1.321111,418532,19981
1131.99,1.321957,419956,20010
1135.6,1.321176,421946,20141
1139.2,1.321270,423881,20229
1143.99,1.320814,426786,20389
1147.58,1.320612,428617,20486
1151.17,1.327109,431169,20302
1154.75,1.322653,433579,20626
1158.33,1.322857,436264,20744
1161.91,1.319281,439132,21053
1165.48,1.320884,442389,21131
1169.04,1.321013,446101,21302
1173.79,1.324352,451929,21415
1177.34,1.321271,456026,21763
1180.9,1.320600,461306,22049
1184.44,1.321778,467657,22292
1187.99,1.326006,473969,22374
1191.52,1.328176,479856,22539
1195.06,1.329069,487372,22845
1199.76,1.320338,497347,23786
1203.29,1.322560,504311,23996
1206.81,1.328369,511507,24015
1210.33,1.329823,519078,24289
1213.84,1.322773,527163,25071
1217.35,1.325122,534208,25269
1220.85,1.327068,540472,25451
1225.51,1.324999,549929,26020
1229.01,1.324674,556888,26369
1232.5,1.327417,562180,26452
1235.98,1.326065,567975,26808
1239.46,1.324417,574815,27234
1242.94,1.320743,582782,27846
1246.41,1.327143,591476,27848
1251.03,1.325579,604016,28541
1254.5,1.328606,612289,28731
1257.96,1.331843,619125,28836
1261.41,1.331138,624551,29136
1264.86,1.330570,629900,29424
1268.31,1.328357,634345,29783
1271.75,1.332089,638574,29725
1276.33,1.326387,642499,30303
1279.76,1.328583,645905,30310
1283.19,1.331113,648307,30246
1286.61,1.334544,650446,30107
1290.03,1.333768,652132,30239
1293.44,1.330704,653907,30536
1296.85,1.328865,655963,30762
1301.39,1.334237,657349,30448
1304.8,1.334518,657558,30438
1308.19,1.335392,658515,30421
1311.58,1.333205,658804,30588
1314.97,1.334764,659011,30488
1318.36,1.336018,658272,30366
1321.73,1.336783,658022,30301
1326.23,1.330521,657870,30734
1329.6,1.335021,656482,30353
1332.97,1.330939,654926,30567
1336.33,1.332766,653727,30383
1339.69,1.336070,652497,30096
1343.04,1.331871,649913,30268
1346.39,1.336556,647671,29840
1349.73,1.328990,645338,30255
1354.18,1.329754,641175,30007
1357.52,1.329115,638376,29920
1360.85,1.332869,635805,29543
1364.17,1.328594,633413,29723
1367.49,1.331360,631026,29423
1370.81,1.333251,628050,29157
1374.12,1.335051,625034,28897
1378.54,1.329451,620272,29049
1381.84,1.334238,616892,28574
1385.14,1.328397,613613,28807
1388.43,1.329199,611526,28656
1391.72,1.326590,610663,28788
1395.01,1.329901,610634,28568
1398.29,1.329156,611700,28667
1402.66,1.330262,614051,28704
1405.93,1.326459,616268,29061
1409.2,1.340272,617795,28221
1412.46,1.336573,618872,28512
1415.72,1.330000,619795,28990
1418.98,1.330206,620495,29009
1422.23,1.339696,621087,28409
1426.56,1.335442,621375,28702
1429.8,1.338464,621616,28514
1433.04,1.338077,622129,28563
1436.27,1.339392,621526,28449
1439.5,1.340755,621113,28341
1442.72,1.337217,620921,28564
1445.94,1.334003,620270,28746
1450.23,1.340697,618860,28242
1453.44,1.336266,617697,28478
1456.64,1.338902,616264,28240
1459.85,1.339291,614413,28130
1463.04,1.331804,612307,28521
1466.24,1.341120,610032,27812
1469.43,1.331803,607345,28290
1473.67,1.338860,603789,27671
1476.85,1.339447,601175,27514
1480.02,1.337225,597737,27497
1483.19,1.339663,594479,27194
1486.36,1.335532,591232,27304
1489.52,1.340535,587853,26837
1492.68,1.337246,583875,26858
1496.89,1.339532,578062,26451
1500.03,1.339357,574159,26283
1503.18,1.340018,570285,26066
1506.32,1.340148,565444,25837
1509.45,1.347109,560571,25207
1512.58,1.340906,555821,25353
1515.71,1.338562,550344,25239
1519.87,1.339369,543983,24901
1522.99,1.339388,538764,24661
1526.1,1.335439,533692,24652
1529.21,1.338397,527902,24219
1532.32,1.342479,521886,23719
1535.42,1.337917,515888,23694
1538.51,1.337509,509987,23445
1541.6,1.339478,503936,23062
1545.72,1.341209,494694,22549
1548.8,1.334110,488378,22628
1551.88,1.339251,481832,22062
1554.95,1.332134,474989,22108
1558.02,1.335181,467818,21622
1561.08,1.335291,460730,21289
1564.15,1.336906,454170,20908
1568.22,1.340706,444181,20270
1571.27,1.341161,436947,19919
1574.32,1.339589,429598,19655
1577.36,1.335518,422039,19491
1580.4,1.330152,414375,19375
1583.43,1.336854,406354,18709
1586.46,1.336528,398475,18360
1590.49,1.336277,388982,17933
1593.51,1.329879,380708,17812
1596.53,1.338090,372727,17112
1599.54,1.335996,365060,16841
1602.55,1.336160,357543,16488
1605.55,1.335080,349495,16157
1608.55,1.334733,341154,15784
1612.54,1.330963,330877,15442
1615.53,1.341225,322904,14718
1618.51,1.326569,315116,14856
1621.49,1.340202,307217,14036
1624.47,1.325214,299481,14163
1627.44,1.326363,292112,13778
1630.41,1.322684,284245,13521
1634.36,1.319181,274079,13143
1637.32,1.325006,266916,12629
1640.27,1.317172,259612,12507
1643.22,1.324313,251804,11933
1646.16,1.333396,244348,11340
1649.1,1.309933,236703,11595
1652.04,1.311414,228171,11139
1655.95,1.304203,215408,10692
1658.88,1.317127,204937,9874
1661.8,1.306124,193395,9557
1664.72,1.317700,179728,8648
1667.63,1.301407,163642,8175
1670.54,1.316968,146312,7052
1673.44,1.296694,128451,6487
1677.31,1.286960,105080,5427
1680.21,1.273978,88906,4731
1683.1,1.289115,75033,3856
1685.99,1.295594,63520,3216
1688.87,1.251665,53714,3009
1691.75,1.290625,45653,2338
1694.62,1.196737,39137,2488
1697.49,1.301493,33776,1687
1701.31,1.261217,28175,1544