Folder: textile_sorting_NIRSCAN_/ML/samples/unknown (part 123)

File: Column 1_078917_20241121_172825.csv
Method:,Column 1,,
Host Date-Time:,21/11/24 @ 17:28:25,,
Header Version:,1,,
System Temp (C):,36.96,,
Detector Temp (C):,36.36,,
Humidity (%):,0.24,,
Lamp PD:,3796,,
Shift Vector Coefficients:,-10.5391,0.0761263,-0.000134223,,
Pixel to Wavelength Coefficients:,1775.68,-0.916766,-0.000235065,,
Serial Number:,5510004,,
Scan Config Name:,Column 1,,
Scan Config Type:,Slew,,
Section 1,,
Start wavelength (nm):,900,,
End wavelength (nm):,1700,,
Pattern Pixel Width (nm):,   7.03,,,,
Exposure (ms):,  0.635,,,,
Digital Resolution:,228,,
Num Repeats:,6,,
PGA Gain:,64,,
Total Measurement Time in sec:,  2.724,,
Wavelength (nm),Absorbance (AU),Reference Signal (unitless),Sample Signal (unitless)
901.51,1.295718,108485,5491
905.376,1.304574,121306,6016
909.237,1.295693,131909,6677
913.095,1.334010,143299,6641
916.948,1.295592,156982,7948
922.079,1.296891,179937,9083
925.923,1.318271,200504,9635
929.762,1.324925,222660,10537
933.597,1.306368,244426,12072
937.427,1.319948,263972,12636
941.254,1.308874,281845,13840
945.076,1.304861,297271,14733
950.165,1.322937,315605,15004
953.978,1.302262,328029,16355
957.786,1.308038,340470,16751
961.59,1.305213,352317,17447
965.389,1.298949,363056,18240
969.185,1.306985,373162,18404
972.976,1.301930,382632,19092
976.763,1.296109,391202,19783
981.806,1.289856,400190,20531
985.583,1.305057,406088,20117
989.355,1.298856,410162,20611
993.124,1.307012,412868,20361
996.888,1.302398,414263,20648
1000.65,1.314314,415476,20148
1004.4,1.302495,415479,20704
1009.41,1.299814,414358,20776
1013.15,1.302952,412923,20555
1016.89,1.299414,411526,20653
1020.63,1.316886,409066,19720
1024.36,1.300941,406777,20343
1028.09,1.305550,404427,20012
1031.82,1.299920,401911,20147
1036.78,1.314391,398410,19317
1040.49,1.297302,396204,19981
1044.2,1.312410,394236,19202
1047.91,1.298294,392042,19726
1051.61,1.302171,389823,19440
1055.31,1.311003,388234,18971
1059,1.300424,387599,19407
1063.92,1.308561,386688,19002
1067.61,1.305499,386598,19132
1071.29,1.311442,387377,18910
1074.96,1.310381,388536,19013
1078.63,1.308712,389855,19151
1082.3,1.311974,391215,19074
1085.96,1.309208,393215,19294
1090.84,1.305491,396270,19611
1094.49,1.304771,398760,19767
1098.14,1.303863,400987,19919
1101.79,1.303813,403477,20045
1105.43,1.308729,406116,19949
1109.06,1.311991,407701,19877
1112.7,1.308748,409859,20132
1117.53,1.302669,412494,20547
1121.15,1.314217,414909,20125
1124.77,1.314949,416559,20171
1128.38,1.317087,418532,20167
1131.99,1.313637,419956,20397
1135.6,1.319390,421946,20224
1139.2,1.310393,423881,20742
1143.99,1.315879,426786,20622
1147.58,1.305631,428617,21205
1151.17,1.327730,431169,20273
1154.75,1.309934,433579,21239
1158.33,1.309092,436264,21412
1161.91,1.314766,439132,21273
1165.48,1.313770,442389,21480
1169.04,1.309723,446101,21863
1173.79,1.310481,451929,22110
1177.34,1.314263,456026,22117
1180.9,1.313431,461306,22416
1184.44,1.316454,467657,22567
1187.99,1.313871,473969,23008
1191.52,1.311858,479856,23402
1195.06,1.319202,487372,23370
1199.76,1.316430,497347,24001
1203.29,1.312806,504311,24541
1206.81,1.321195,511507,24415
1210.33,1.320658,519078,24807
1213.84,1.318481,527163,25320
1217.35,1.320201,534208,25557
1220.85,1.321676,540472,25769
1225.51,1.318522,549929,26411
1229.01,1.319305,556888,26697
1232.5,1.316330,562180,27136
1235.98,1.322708,567975,27016
1239.46,1.315077,574815,27826
1242.94,1.321493,582782,27798
1246.41,1.320965,591476,28247
1251.03,1.319025,604016,28975
1254.5,1.321276,612289,29220
1257.96,1.316427,619125,29878
1261.41,1.315029,624551,30237
1264.86,1.324764,629900,29820
1268.31,1.322089,634345,30216
1271.75,1.317521,638574,30739
1276.33,1.321045,642499,30678
1279.76,1.325855,645905,30501
1283.19,1.325747,648307,30622
1286.61,1.320269,650446,31113
1290.03,1.328231,652132,30627
1293.44,1.328194,653907,30713
1296.85,1.326542,655963,30927
1301.39,1.324994,657349,31103
1304.8,1.328975,657558,30829
1308.19,1.322217,658515,31358
1311.58,1.323753,658804,31261
1314.97,1.324808,659011,31195
1318.36,1.325729,658272,31094
1321.73,1.325522,658022,31097
1326.23,1.324891,657870,31135
1329.6,1.332283,656482,30545
1332.97,1.330244,654926,30616
1336.33,1.326606,653727,30817
1339.69,1.325492,652497,30838
1343.04,1.322279,649913,30944
1346.39,1.327040,647671,30501
1349.73,1.328732,645338,30273
1354.18,1.326438,641175,30237
1357.52,1.318972,638376,30627
1360.85,1.328132,635805,29867
1364.17,1.326365,633413,29876
1367.49,1.325379,631026,29831
1370.81,1.325970,628050,29650
1374.12,1.321454,625034,29816
1378.54,1.316330,620272,29940
1381.84,1.320917,616892,29464
1385.14,1.322185,613613,29222
1388.43,1.326510,611526,28834
1391.72,1.326454,610663,28797
1395.01,1.317921,610634,29367
1398.29,1.325325,611700,28921
1402.66,1.326556,614051,28950
1405.93,1.325519,616268,29124
1409.2,1.326564,617795,29126
1412.46,1.327947,618872,29084
1415.72,1.329925,619795,28995
1418.98,1.327460,620495,29193
1422.23,1.334590,621087,28745
1426.56,1.330701,621375,29017
1429.8,1.328258,621616,29192
1433.04,1.331123,622129,29024
1436.27,1.326888,621526,29280
1439.5,1.324203,621113,29442
1442.72,1.332499,620921,28876
1445.94,1.330048,620270,29009
1450.23,1.330229,618860,28931
1453.44,1.329818,617697,28904
1456.64,1.330736,616264,28776
1459.85,1.328104,614413,28864
1463.04,1.330011,612307,28639
1466.24,1.335566,610032,28170
1469.43,1.333017,607345,28211
1473.67,1.331283,603789,28158
1476.85,1.330789,601175,28068
1480.02,1.333983,597737,27703
1483.19,1.331923,594479,27683
1486.36,1.331699,591232,27546
1489.52,1.330157,587853,27486
1492.68,1.333848,583875,27069
1496.89,1.332335,578062,26893
1500.03,1.330136,574159,26847
1503.18,1.328931,570285,26740
1506.32,1.324141,565444,26807
1509.45,1.331308,560571,26141
1512.58,1.335323,555821,25681
1515.71,1.338270,550344,25256
1519.87,1.334012,543983,25210
1522.99,1.335025,538764,24910
1526.1,1.330307,533692,24945
1529.21,1.333352,527902,24502
1532.32,1.324984,521886,24694
1535.42,1.331928,515888,24023
1538.51,1.333893,509987,23641
1541.6,1.337337,503936,23176
1545.72,1.325994,494694,23353
1548.8,1.330459,488378,22819
1551.88,1.329095,481832,22584
1554.95,1.329041,474989,22266
1558.02,1.333057,467818,21728
1561.08,1.327307,460730,21684
1564.15,1.331970,454170,21147
1568.22,1.335615,444181,20509
1571.27,1.326372,436947,20609
1574.32,1.330407,429598,20075
1577.36,1.328271,422039,19819
1580.4,1.320290,414375,19820
1583.43,1.325581,406354,19201
1586.46,1.322815,398475,18949
1590.49,1.328500,388982,18257
1593.51,1.324500,380708,18034
1596.53,1.324326,372727,17663
1599.54,1.312310,365060,17785
1602.55,1.318406,357543,17176
1605.55,1.328121,349495,16418
1608.55,1.324428,341154,16163
1612.54,1.319199,330877,15866
1615.53,1.322456,322904,15368
1618.51,1.320559,315116,15063
1621.49,1.326317,307217,14492
1624.47,1.324356,299481,14191
1627.44,1.314394,292112,14163
1630.41,1.323520,284245,13495
1634.36,1.319280,274079,13140
1637.32,1.305735,266916,13202
1640.27,1.319260,259612,12447
1643.22,1.315594,251804,12175
1646.16,1.300795,244348,12224
1649.1,1.303427,236703,11770
1652.04,1.299303,228171,11454
1655.95,1.289703,215408,11055
1658.88,1.293253,204937,10432
1661.8,1.280364,193395,10141
1664.72,1.255790,179728,9973
1667.63,1.247471,163642,9256
1670.54,1.230529,146312,8605
1673.44,1.213536,128451,7856
1677.31,1.165577,105080,7177
1680.21,1.127025,88906,6636
1683.1,1.134969,75033,5499
1685.99,1.108393,63520,4949
1688.87,1.087821,53714,4388
1691.75,1.099084,45653,3634
1694.62,1.151364,39137,2762
1697.49,1.073002,33776,2855
1701.31,1.102534,28175,2225

File: Column 1_078920_20241121_172834.csv
Method:,Column 1,,
Host Date-Time:,21/11/24 @ 17:28:34,,
Header Version:,1,,
System Temp (C):,37.21,,
Detector Temp (C):,36.38,,
Humidity (%):,0.48,,
Lamp PD:,3796,,
Shift Vector Coefficients:,-10.5391,0.0761263,-0.000134223,,
Pixel to Wavelength Coefficients:,1775.68,-0.916766,-0.000235065,,
Serial Number:,5510004,,
Scan Config Name:,Column 1,,
Scan Config Type:,Slew,,
Section 1,,
Start wavelength (nm):,900,,
End wavelength (nm):,1700,,
Pattern Pixel Width (nm):,   7.03,,,,
Exposure (ms):,  0.635,,,,
Digital Resolution:,228,,
Num Repeats:,6,,
PGA Gain:,64,,
Total Measurement Time in sec:,  2.727,,
Wavelength (nm),Absorbance (AU),Reference Signal (unitless),Sample Signal (unitless)
901.51,1.289437,108485,5571
905.376,1.303637,121306,6029
909.237,1.300994,131909,6596
913.095,1.311704,143299,6991
916.948,1.319979,156982,7514
922.079,1.322545,179937,8562
925.923,1.313787,200504,9735
929.762,1.320089,222660,10655
933.597,1.314942,244426,11836
937.427,1.324196,263972,12513
941.254,1.320417,281845,13477
945.076,1.313405,297271,14446
950.165,1.316501,315605,15228
953.978,1.301015,328029,16402
957.786,1.317951,340470,16373
961.59,1.306909,352317,17379
965.389,1.301887,363056,18117
969.185,1.302571,373162,18592
972.976,1.314765,382632,18536
976.763,1.307069,391202,19290
981.806,1.305579,400190,19801
985.583,1.304863,406088,20126
989.355,1.298667,410162,20620
993.124,1.309065,412868,20265
996.888,1.292808,414263,21109
1000.65,1.302701,415476,20694
1004.4,1.305441,415479,20564
1009.41,1.302245,414358,20660
1013.15,1.307347,412923,20348
1016.89,1.306666,411526,20311
1020.63,1.301631,409066,20425
1024.36,1.304457,406777,20179
1028.09,1.298724,404427,20329
1031.82,1.305954,401911,19869
1036.78,1.297631,398410,20077
1040.49,1.298695,396204,19917
1044.2,1.305855,394236,19494
1047.91,1.300877,392042,19609
1051.61,1.302462,389823,19427
1055.31,1.304257,388234,19268
1059,1.305036,387599,19202
1063.92,1.308424,386688,19008
1067.61,1.300377,386598,19359
1071.29,1.305489,387377,19171
1074.96,1.304234,388536,19284
1078.63,1.316399,389855,18815
1082.3,1.320179,391215,18717
1085.96,1.309906,393215,19263
1090.84,1.304452,396270,19658
1094.49,1.301466,398760,19918
1098.14,1.310808,400987,19603
1101.79,1.312191,403477,19662
1105.43,1.314184,406116,19700
1109.06,1.305098,407701,20195
1112.7,1.314983,409859,19845
1117.53,1.316499,412494,19903
1121.15,1.308621,414909,20386
1124.77,1.314067,416559,20212
1128.38,1.317324,418532,20156
1131.99,1.301047,419956,20997
1135.6,1.310400,421946,20647
1139.2,1.313419,423881,20598
1143.99,1.317124,426786,20563
1147.58,1.306287,428617,21173
1151.17,1.323190,431169,20486
1154.75,1.318275,433579,20835
1158.33,1.315529,436264,21097
1161.91,1.303681,439132,21823
1165.48,1.308325,442389,21751
1169.04,1.314236,446101,21637
1173.79,1.304357,451929,22424
1177.34,1.310354,456026,22317
1180.9,1.312367,461306,22471
1184.44,1.308748,467657,22971
1187.99,1.314249,473969,22988
1191.52,1.309471,479856,23531
1195.06,1.321307,487372,23257
1199.76,1.310910,497347,24308
1203.29,1.311710,504311,24603
1206.81,1.315101,511507,24760
1210.33,1.321359,519078,24767
1213.84,1.318224,527163,25335
1217.35,1.318708,534208,25645
1220.85,1.319876,540472,25876
1225.51,1.318785,549929,26395
1229.01,1.315209,556888,26950
1232.5,1.320592,562180,26871
1235.98,1.316167,567975,27426
1239.46,1.320069,574815,27508
1242.94,1.321352,582782,27807
1246.41,1.315465,591476,28607
1251.03,1.318411,604016,29016
1254.5,1.320920,612289,29244
1257.96,1.320472,619125,29601
1261.41,1.324599,624551,29578
1264.86,1.322773,629900,29957
1268.31,1.318596,634345,30460
1271.75,1.321382,638574,30467
1276.33,1.319026,642499,30821
1279.76,1.319227,645905,30970
1283.19,1.324049,648307,30742
1286.61,1.327263,650446,30616
1290.03,1.323436,652132,30967
1293.44,1.327290,653907,30777
1296.85,1.328131,655963,30814
1301.39,1.326715,657349,30980
1304.8,1.325761,657558,31058
1308.19,1.325945,658515,31090
1311.58,1.323906,658804,31250
1314.97,1.328176,659011,30954
1318.36,1.326400,658272,31046
1321.73,1.324545,658022,31167
1326.23,1.327255,657870,30966
1329.6,1.323625,656482,31160
1332.97,1.327740,654926,30793
1336.33,1.327947,653727,30722
1339.69,1.331162,652497,30438
1343.04,1.329568,649913,30429
1346.39,1.329582,647671,30323
1349.73,1.327686,645338,30346
1354.18,1.320008,641175,30688
1357.52,1.325199,638376,30191
1360.85,1.324642,635805,30108
1364.17,1.325696,633413,29922
1367.49,1.323563,631026,29956
1370.81,1.328143,628050,29502
1374.12,1.331161,625034,29157
1378.54,1.323069,620272,29479
1381.84,1.327482,616892,29022
1385.14,1.318706,613613,29457
1388.43,1.319221,611526,29322
1391.72,1.321506,610663,29127
1395.01,1.320562,610634,29189
1398.29,1.326242,611700,28860
1402.66,1.317926,614051,29531
1405.93,1.322546,616268,29324
1409.2,1.325968,617795,29166
1412.46,1.329802,618872,28960
1415.72,1.322721,619795,29480
1418.98,1.329458,620495,29059
1422.23,1.328246,621087,29168
1426.56,1.329386,621375,29105
1429.8,1.331094,621616,29002
1433.04,1.326361,622129,29344
1436.27,1.332757,621526,28887
1439.5,1.326555,621113,29283
1442.72,1.328890,620921,29117
1445.94,1.325047,620270,29345
1450.23,1.325942,618860,29218
1453.44,1.323523,617697,29326
1456.64,1.330163,616264,28814
1459.85,1.333083,614413,28535
1463.04,1.328105,612307,28765
1466.24,1.330371,610032,28509
1469.43,1.327708,607345,28558
1473.67,1.333975,603789,27984
1476.85,1.328998,601175,28184
1480.02,1.328531,597737,28053
1483.19,1.331484,594479,27711
1486.36,1.326777,591232,27860
1489.52,1.330837,587853,27443
1492.68,1.327414,583875,27473
1496.89,1.329631,578062,27061
1500.03,1.334396,574159,26585
1503.18,1.333240,570285,26476
1506.32,1.334752,565444,26160
1509.45,1.339831,560571,25633
1512.58,1.326750,555821,26193
1515.71,1.332259,550344,25608
1519.87,1.330906,543983,25391
1522.99,1.329946,538764,25203
1526.1,1.331301,533692,24888
1529.21,1.324457,527902,25009
1532.32,1.330756,521886,24368
1535.42,1.336490,515888,23772
1538.51,1.329688,509987,23871
1541.6,1.335598,503936,23269
1545.72,1.324601,494694,23428
1548.8,1.332443,488378,22715
1551.88,1.327272,481832,22679
1554.95,1.328437,474989,22297
1558.02,1.325606,467818,22104
1561.08,1.329254,460730,21587
1564.15,1.327292,454170,21376
1568.22,1.327102,444181,20915
1571.27,1.327406,436947,20560
1574.32,1.327324,429598,20218
1577.36,1.324648,422039,19985
1580.4,1.321870,414375,19748
1583.43,1.325309,406354,19213
1586.46,1.329839,398475,18645
1590.49,1.319903,388982,18622
1593.51,1.320688,380708,18193
1596.53,1.316287,372727,17993
1599.54,1.314857,365060,17681
1602.55,1.323723,357543,16967
1605.55,1.318597,349495,16782
1608.55,1.327205,341154,16060
1612.54,1.322689,330877,15739
1615.53,1.311738,322904,15752
1618.51,1.323916,315116,14947
1621.49,1.325090,307217,14533
1624.47,1.327089,299481,14102
1627.44,1.299030,292112,14673
1630.41,1.304381,284245,14103
1634.36,1.317203,274079,13203
1637.32,1.303733,266916,13263
1640.27,1.311377,259612,12675
1643.22,1.316594,251804,12147
1646.16,1.307563,244348,12035
1649.1,1.306055,236703,11699
1652.04,1.307726,228171,11234
1655.95,1.292501,215408,10984
1658.88,1.289976,204937,10511
1661.8,1.269495,193395,10398
1664.72,1.271305,179728,9623
1667.63,1.244246,163642,9325
1670.54,1.238064,146312,8457
1673.44,1.187988,128451,8332
1677.31,1.151702,105080,7410
1680.21,1.160480,88906,6144
1683.1,1.118692,75033,5709
1685.99,1.111564,63520,4913
1688.87,1.124782,53714,4030
1691.75,1.146385,45653,3259
1694.62,1.157062,39137,2726
1697.49,1.131016,33776,2498
1701.31,1.084938,28175,2317

File: Column 1_078922_20241121_172840.csv
Method:,Column 1,,
Host Date-Time:,21/11/24 @ 17:28:40,,
Header Version:,1,,
System Temp (C):,37.32,,
Detector Temp (C):,36.38,,
Humidity (%):,0.58,,
Lamp PD:,3796,,
Shift Vector Coefficients:,-10.5391,0.0761263,-0.000134223,,
Pixel to Wavelength Coefficients:,1775.68,-0.916766,-0.000235065,,
Serial Number:,5510004,,
Scan Config Name:,Column 1,,
Scan Config Type:,Slew,,
Section 1,,
Start wavelength (nm):,900,,
End wavelength (nm):,1700,,
Pattern Pixel Width (nm):,   7.03,,,,
Exposure (ms):,  0.635,,,,
Digital Resolution:,228,,
Num Repeats:,6,,
PGA Gain:,64,,
Total Measurement Time in sec:,  2.718,,
Wavelength (nm),Absorbance (AU),Reference Signal (unitless),Sample Signal (unitless)
901.51,1.308398,108485,5333
905.376,1.323234,121306,5763
909.237,1.326694,131909,6217
913.095,1.315573,143299,6929
916.948,1.345510,156982,7085
922.079,1.314455,179937,8723
925.923,1.330615,200504,9365
929.762,1.335860,222660,10275
933.597,1.346439,244426,11008
937.427,1.323434,263972,12535
941.254,1.315706,281845,13624
945.076,1.307968,297271,14628
950.165,1.312216,315605,15379
953.978,1.309680,328029,16078
957.786,1.299362,340470,17089
961.59,1.310573,352317,17233
965.389,1.299068,363056,18235
969.185,1.305995,373162,18446
972.976,1.303845,382632,19008
976.763,1.307272,391202,19281
981.806,1.303457,400190,19898
985.583,1.297142,406088,20487
989.355,1.305588,410162,20294
993.124,1.302577,412868,20570
996.888,1.305289,414263,20511
1000.65,1.300629,415476,20793
1004.4,1.305230,415479,20574
1009.41,1.309046,414358,20339
1013.15,1.295806,412923,20896
1016.89,1.302516,411526,20506
1020.63,1.300867,409066,20461
1024.36,1.308891,406777,19974
1028.09,1.311273,404427,19750
1031.82,1.308761,401911,19741
1036.78,1.305357,398410,19723
1040.49,1.307884,396204,19500
1044.2,1.301400,394236,19695
1047.91,1.309150,392042,19239
1051.61,1.313832,389823,18925
1055.31,1.314220,388234,18831
1059,1.311898,387599,18901
1063.92,1.308150,386688,19020
1067.61,1.308597,386598,18996
1071.29,1.304471,387377,19216
1074.96,1.317241,388536,18715
1078.63,1.311875,389855,19012
1082.3,1.307421,391215,19275
1085.96,1.309298,393215,19290
1090.84,1.310548,396270,19384
1094.49,1.303367,398760,19831
1098.14,1.317798,400987,19290
1101.79,1.315673,403477,19505
1105.43,1.312731,406116,19766
1109.06,1.321400,407701,19451
1112.7,1.311691,409859,19996
1117.53,1.313390,412494,20046
1121.15,1.325852,414909,19593
1124.77,1.312352,416559,20292
1128.38,1.315282,418532,20251
1131.99,1.303058,419956,20900
1135.6,1.309706,421946,20680
1139.2,1.305480,423881,20978
1143.99,1.312669,426786,20775
1147.58,1.321312,428617,20453
1151.17,1.314210,431169,20914
1154.75,1.318775,433579,20811
1158.33,1.321290,436264,20819
1161.91,1.311330,439132,21442
1165.48,1.317364,442389,21303
1169.04,1.320992,446101,21303
1173.79,1.315778,451929,21842
1177.34,1.313028,456026,22180
1180.9,1.316737,461306,22246
1184.44,1.315761,467657,22603
1187.99,1.308450,473969,23297
1191.52,1.313308,479856,23324
1195.06,1.312490,487372,23734
1199.76,1.315292,497347,24064
1203.29,1.318435,504311,24225
1206.81,1.316401,511507,24686
1210.33,1.323892,519078,24623
1213.84,1.319374,527163,25268
1217.35,1.316529,534208,25774
1220.85,1.326727,540472,25471
1225.51,1.321326,549929,26241
1229.01,1.318639,556888,26738
1232.5,1.323918,562180,26666
1235.98,1.320208,567975,27172
1239.46,1.316688,574815,27723
1242.94,1.315827,582782,28163
1246.41,1.321857,591476,28189
1251.03,1.318606,604016,29003
1254.5,1.318166,612289,29430
1257.96,1.325252,619125,29277
1261.41,1.322651,624551,29711
1264.86,1.320821,629900,30092
1268.31,1.325914,634345,29951
1271.75,1.319390,638574,30607
1276.33,1.328873,642499,30130
1279.76,1.328196,645905,30337
1283.19,1.328436,648307,30433
1286.61,1.323365,650446,30892
1290.03,1.319833,652132,31225
1293.44,1.320097,653907,31291
1296.85,1.325070,655963,31032
1301.39,1.328865,657349,30827
1304.8,1.327203,657558,30955
1308.19,1.323604,658515,31258
1311.58,1.327240,658804,31011
1314.97,1.326482,659011,31075
1318.36,1.332755,658272,30595
1321.73,1.326095,658022,31056
1326.23,1.328941,657870,30846
1329.6,1.326296,656482,30969
1332.97,1.333733,654926,30371
1336.33,1.324483,653727,30968
1339.69,1.327964,652497,30663
1343.04,1.327702,649913,30560
1346.39,1.318859,647671,31081
1349.73,1.326742,645338,30412
1354.18,1.324746,641175,30355
1357.52,1.327608,638376,30024
1360.85,1.324037,635805,30150
1364.17,1.325624,633413,29927
1367.49,1.331080,631026,29442
1370.81,1.326805,628050,29593
1374.12,1.327217,625034,29423
1378.54,1.320470,620272,29656
1381.84,1.332221,616892,28707
1385.14,1.328638,613613,28791
1388.43,1.326390,611526,28842
1391.72,1.325656,610663,28850
1395.01,1.320517,610634,29192
1398.29,1.326032,611700,28874
1402.66,1.327758,614051,28870
1405.93,1.328106,616268,28951
1409.2,1.324867,617795,29240
1412.46,1.326501,618872,29181
1415.72,1.329596,619795,29017
1418.98,1.329024,620495,29088
1422.23,1.331234,621087,28968
1426.56,1.324534,621375,29432
1429.8,1.331784,621616,28956
1433.04,1.325444,622129,29406
1436.27,1.327556,621526,29235
1439.5,1.325962,621113,29323
1442.72,1.331148,620921,28966
1445.94,1.328091,620270,29140
1450.23,1.330499,618860,28913
1453.44,1.325274,617697,29208
1456.64,1.330963,616264,28761
1459.85,1.326647,614413,28961
1463.04,1.329436,612307,28677
1466.24,1.334365,610032,28248
1469.43,1.336727,607345,27971
1473.67,1.332627,603789,28071
1476.85,1.333194,601175,27913
1480.02,1.339696,597737,27341
1483.19,1.330561,594479,27770
1486.36,1.336966,591232,27214
1489.52,1.336476,587853,27089
1492.68,1.327129,583875,27491
1496.89,1.332190,578062,26902
1500.03,1.333139,574159,26662
1503.18,1.331700,570285,26570
1506.32,1.337383,565444,26002
1509.45,1.326862,560571,26410
1512.58,1.331082,555821,25933
1515.71,1.332971,550344,25566
1519.87,1.338637,543983,24943
1522.99,1.331811,538764,25095
1526.1,1.336020,533692,24619
1529.21,1.325883,527902,24927
1532.32,1.338053,521886,23962
1535.42,1.334357,515888,23889
1538.51,1.342389,509987,23183
1541.6,1.338745,503936,23101
1545.72,1.323842,494694,23469
1548.8,1.334110,488378,22628
1551.88,1.331196,481832,22475
1554.95,1.334537,474989,21986
1558.02,1.332718,467818,21745
1561.08,1.331979,460730,21452
1564.15,1.330309,454170,21228
1568.22,1.342574,444181,20183
1571.27,1.327532,436947,20554
1574.32,1.327517,429598,20209
1577.36,1.331526,422039,19671
1580.4,1.334296,414375,19191
1583.43,1.334377,406354,18816
1586.46,1.327006,398475,18767
1590.49,1.320627,388982,18591
1593.51,1.325971,380708,17973
1596.53,1.315202,372727,18038
1599.54,1.318681,365060,17526
1602.55,1.323851,357543,16962
1605.55,1.318054,349495,16803
1608.55,1.322659,341154,16229
1612.54,1.318406,330877,15895
1615.53,1.318098,322904,15523
1618.51,1.321511,315116,15030
1621.49,1.318006,307217,14772
1624.47,1.315541,299481,14482
1627.44,1.315992,292112,14111
1630.41,1.327302,284245,13378
1634.36,1.307188,274079,13511
1637.32,1.315617,266916,12905
1640.27,1.304443,259612,12879
1643.22,1.303458,251804,12520
1646.16,1.302076,244348,12188
1649.1,1.306166,236703,11696
1652.04,1.290372,228171,11692
1655.95,1.304243,215408,10691
1658.88,1.291632,204937,10471
1661.8,1.280065,193395,10148
1664.72,1.267620,179728,9705
1667.63,1.247378,163642,9258
1670.54,1.219861,146312,8819
1673.44,1.202780,128451,8053
1677.31,1.118484,105080,7999
1680.21,1.146636,88906,6343
1683.1,1.149504,75033,5318
1685.99,1.138363,63520,4619
1688.87,1.133051,53714,3954
1691.75,1.137939,45653,3323
1694.62,1.096766,39137,3132
1697.49,1.089118,33776,2751
1701.31,1.173402,28175,1890