Folder: textile_sorting_NIRSCAN_/ML/samples/unknown (part 40)

File: Column 1_078250_20241121_165251.csv
Method:,Column 1,,
Host Date-Time:,21/11/24 @ 16:52:51,,
Header Version:,1,,
System Temp (C):,34.34,,
Detector Temp (C):,31.73,,
Humidity (%):,2.45,,
Lamp PD:,3802,,
Shift Vector Coefficients:,-10.5391,0.0761263,-0.000134223,,
Pixel to Wavelength Coefficients:,1775.68,-0.916766,-0.000235065,,
Serial Number:,5510004,,
Scan Config Name:,Column 1,,
Scan Config Type:,Slew,,
Section 1,,
Start wavelength (nm):,900,,
End wavelength (nm):,1700,,
Pattern Pixel Width (nm):,   7.03,,,,
Exposure (ms):,  0.635,,,,
Digital Resolution:,228,,
Num Repeats:,6,,
PGA Gain:,64,,
Total Measurement Time in sec:,  2.726,,
Wavelength (nm),Absorbance (AU),Reference Signal (unitless),Sample Signal (unitless)
901.51,1.286175,108485,5613
905.376,1.346292,121306,5465
909.237,1.287702,131909,6801
913.095,1.347897,143299,6432
916.948,1.321600,156982,7486
922.079,1.334111,179937,8337
925.923,1.323212,200504,9526
929.762,1.319071,222660,10680
933.597,1.327487,244426,11499
937.427,1.319056,263972,12662
941.254,1.297447,281845,14209
945.076,1.305392,297271,14715
950.165,1.312103,315605,15383
953.978,1.318136,328029,15768
957.786,1.306614,340470,16806
961.59,1.312012,352317,17176
965.389,1.306781,363056,17914
969.185,1.322454,373162,17760
972.976,1.310452,382632,18721
976.763,1.307542,391202,19269
981.806,1.308374,400190,19674
985.583,1.310051,406088,19887
989.355,1.320411,410162,19613
993.124,1.310976,412868,20176
996.888,1.309737,414263,20302
1000.65,1.306009,415476,20537
1004.4,1.300319,415479,20808
1009.41,1.311788,414358,20211
1013.15,1.305962,412923,20413
1016.89,1.312391,411526,20045
1020.63,1.316578,409066,19734
1024.36,1.309218,406777,19959
1028.09,1.306027,404427,19990
1031.82,1.312628,401911,19566
1036.78,1.304631,398410,19756
1040.49,1.309022,396204,19449
1044.2,1.307462,394236,19422
1047.91,1.304346,392042,19453
1051.61,1.313075,389823,18958
1055.31,1.312586,388234,18902
1059,1.311484,387599,18919
1063.92,1.319931,386688,18511
1067.61,1.310338,386598,18920
1071.29,1.311925,387377,18889
1074.96,1.309536,388536,19050
1078.63,1.312676,389855,18977
1082.3,1.307601,391215,19267
1085.96,1.303617,393215,19544
1090.84,1.316844,396270,19105
1094.49,1.317049,398760,19216
1098.14,1.323167,400987,19053
1101.79,1.321501,403477,19245
1105.43,1.311809,406116,19808
1109.06,1.303381,407701,20275
1112.7,1.310109,409859,20069
1117.53,1.318906,412494,19793
1121.15,1.317423,414909,19977
1124.77,1.312180,416559,20300
1128.38,1.312524,418532,20380
1131.99,1.319295,419956,20133
1135.6,1.311601,421946,20590
1139.2,1.309306,423881,20794
1143.99,1.312627,426786,20777
1147.58,1.316918,428617,20661
1151.17,1.319055,431169,20682
1154.75,1.315428,433579,20972
1158.33,1.322062,436264,20782
1161.91,1.319157,439132,21059
1165.48,1.309144,442389,21710
1169.04,1.314678,446101,21615
1173.79,1.322692,451929,21497
1177.34,1.308548,456026,22410
1180.9,1.318792,461306,22141
1184.44,1.316396,467657,22570
1187.99,1.328576,473969,22242
1191.52,1.311135,479856,23441
1195.06,1.324644,487372,23079
1199.76,1.318916,497347,23864
1203.29,1.322198,504311,24016
1206.81,1.323406,511507,24291
1210.33,1.324086,519078,24612
1213.84,1.328545,527163,24740
1217.35,1.327380,534208,25138
1220.85,1.330340,540472,25260
1225.51,1.321392,549929,26237
1229.01,1.325581,556888,26314
1232.5,1.320802,562180,26858
1235.98,1.327964,567975,26691
1239.46,1.324592,574815,27223
1242.94,1.322650,582782,27724
1246.41,1.322042,591476,28177
1251.03,1.325169,604016,28568
1254.5,1.324873,612289,28979
1257.96,1.327647,619125,29116
1261.41,1.325216,624551,29536
1264.86,1.329023,629900,29529
1268.31,1.327323,634345,29854
1271.75,1.329322,638574,29915
1276.33,1.328960,642499,30124
1279.76,1.327366,645905,30395
1283.19,1.320910,648307,30965
1286.61,1.331110,650446,30346
1290.03,1.325545,652132,30817
1293.44,1.335480,653907,30202
1296.85,1.332380,655963,30514
1301.39,1.330884,657349,30684
1304.8,1.327751,657558,30916
1308.19,1.332362,658515,30634
1311.58,1.333773,658804,30548
1314.97,1.331401,659011,30725
1318.36,1.331862,658272,30658
1321.73,1.331994,658022,30637
1326.23,1.336454,657870,30317
1329.6,1.331388,656482,30608
1332.97,1.335539,654926,30245
1336.33,1.330229,653727,30561
1339.69,1.330492,652497,30485
1343.04,1.333409,649913,30161
1346.39,1.325321,647671,30622
1349.73,1.330961,645338,30118
1354.18,1.329740,641175,30008
1357.52,1.327767,638376,30013
1360.85,1.325725,635805,30033
1364.17,1.332852,633413,29433
1367.49,1.332424,631026,29351
1370.81,1.332879,628050,29182
1374.12,1.332175,625034,29089
1378.54,1.325241,620272,29332
1381.84,1.330078,616892,28849
1385.14,1.322854,613613,29177
1388.43,1.325712,611526,28887
1391.72,1.325069,610663,28889
1395.01,1.327521,610634,28725
1398.29,1.330142,611700,28602
1402.66,1.330005,614051,28721
1405.93,1.329323,616268,28870
1409.2,1.332479,617795,28732
1412.46,1.327544,618872,29111
1415.72,1.333807,619795,28737
1418.98,1.331180,620495,28944
1422.23,1.334409,621087,28757
1426.56,1.332276,621375,28912
1429.8,1.336579,621616,28638
1433.04,1.336286,622129,28681
1436.27,1.329223,621526,29123
1439.5,1.333492,621113,28819
1442.72,1.336868,620921,28587
1445.94,1.337249,620270,28532
1450.23,1.338335,618860,28396
1453.44,1.339696,617697,28254
1456.64,1.330872,616264,28767
1459.85,1.332261,614413,28589
1463.04,1.336305,612307,28227
1466.24,1.329777,610032,28548
1469.43,1.334219,607345,28133
1473.67,1.333789,603789,27996
1476.85,1.334737,601175,27814
1480.02,1.335365,597737,27615
1483.19,1.325910,594479,28069
1486.36,1.331652,591232,27549
1489.52,1.336444,587853,27091
1492.68,1.336616,583875,26897
1496.89,1.340124,578062,26415
1500.03,1.339605,574159,26268
1503.18,1.336781,570285,26261
1506.32,1.336849,565444,26034
1509.45,1.331541,560571,26127
1512.58,1.333500,555821,25789
1515.71,1.343825,550344,24935
1519.87,1.334219,543983,25198
1522.99,1.337999,538764,24740
1526.1,1.336267,533692,24605
1529.21,1.335591,527902,24376
1532.32,1.335234,521886,24118
1535.42,1.338045,515888,23687
1538.51,1.335790,509987,23538
1541.6,1.337131,503936,23187
1545.72,1.336745,494694,22782
1548.8,1.340451,488378,22300
1551.88,1.338464,481832,22102
1554.95,1.334518,474989,21987
1558.02,1.335141,467818,21624
1561.08,1.326187,460730,21740
1564.15,1.334544,454170,21022
1568.22,1.335192,444181,20529
1571.27,1.339268,436947,20006
1574.32,1.331511,429598,20024
1577.36,1.330027,422039,19739
1580.4,1.334092,414375,19200
1583.43,1.332719,406354,18888
1586.46,1.334052,398475,18465
1590.49,1.337999,388982,17862
1593.51,1.323826,380708,18062
1596.53,1.324081,372727,17673
1599.54,1.323541,365060,17331
1602.55,1.330586,357543,16701
1605.55,1.321948,349495,16653
1608.55,1.319991,341154,16329
1612.54,1.330008,330877,15476
1615.53,1.309346,322904,15839
1618.51,1.315400,315116,15243
1621.49,1.322795,307217,14610
1624.47,1.325797,299481,14144
1627.44,1.323473,292112,13870
1630.41,1.322363,284245,13531
1634.36,1.318521,274079,13163
1637.32,1.315213,266916,12917
1640.27,1.318075,259612,12481
1643.22,1.310170,251804,12328
1646.16,1.305223,244348,12100
1649.1,1.303501,236703,11768
1652.04,1.303265,228171,11350
1655.95,1.293768,215408,10952
1658.88,1.311968,204937,9992
1661.8,1.302503,193395,9637
1664.72,1.297631,179728,9057
1667.63,1.272582,163642,8736
1670.54,1.252898,146312,8173
1673.44,1.250501,128451,7215
1677.31,1.221215,105080,6314
1680.21,1.215413,88906,5414
1683.1,1.202047,75033,4712
1685.99,1.213408,63520,3886
1688.87,1.188758,53714,3478
1691.75,1.177454,45653,3034
1694.62,1.118226,39137,2981
1697.49,1.201045,33776,2126
1701.31,1.186465,28175,1834

File: Column 1_078251_20241121_165254.csv
Method:,Column 1,,
Host Date-Time:,21/11/24 @ 16:52:54,,
Header Version:,1,,
System Temp (C):,34.35,,
Detector Temp (C):,31.75,,
Humidity (%):,2.45,,
Lamp PD:,3803,,
Shift Vector Coefficients:,-10.5391,0.0761263,-0.000134223,,
Pixel to Wavelength Coefficients:,1775.68,-0.916766,-0.000235065,,
Serial Number:,5510004,,
Scan Config Name:,Column 1,,
Scan Config Type:,Slew,,
Section 1,,
Start wavelength (nm):,900,,
End wavelength (nm):,1700,,
Pattern Pixel Width (nm):,   7.03,,,,
Exposure (ms):,  0.635,,,,
Digital Resolution:,228,,
Num Repeats:,6,,
PGA Gain:,64,,
Total Measurement Time in sec:,  2.727,,
Wavelength (nm),Absorbance (AU),Reference Signal (unitless),Sample Signal (unitless)
901.51,1.315045,108485,5252
905.376,1.315836,121306,5862
909.237,1.300402,131909,6605
913.095,1.337621,143299,6586
916.948,1.317328,156982,7560
922.079,1.326417,179937,8486
925.923,1.321665,200504,9560
929.762,1.330442,222660,10404
933.597,1.324626,244426,11575
937.427,1.323191,263972,12542
941.254,1.323911,281845,13369
945.076,1.325971,297271,14034
950.165,1.321752,315605,15045
953.978,1.318908,328029,15740
957.786,1.322457,340470,16204
961.59,1.315846,352317,17025
965.389,1.318303,363056,17445
969.185,1.312614,373162,18167
972.976,1.308785,382632,18793
976.763,1.309666,391202,19175
981.806,1.318422,400190,19224
985.583,1.301659,406088,20275
989.355,1.311708,410162,20010
993.124,1.306628,412868,20379
996.888,1.311194,414263,20234
1000.65,1.311564,415476,20276
1004.4,1.308451,415479,20422
1009.41,1.313661,414358,20124
1013.15,1.311077,412923,20174
1016.89,1.320814,411526,19660
1020.63,1.306098,409066,20216
1024.36,1.317566,406777,19579
1028.09,1.315161,404427,19574
1031.82,1.312939,401911,19552
1036.78,1.308274,398410,19591
1040.49,1.311260,396204,19349
1044.2,1.316295,394236,19031
1047.91,1.302897,392042,19518
1051.61,1.308313,389823,19167
1055.31,1.310752,388234,18982
1059,1.309858,387599,18990
1063.92,1.313734,386688,18777
1067.61,1.320111,386598,18499
1071.29,1.318387,387377,18610
1074.96,1.320339,388536,18582
1078.63,1.318713,389855,18715
1082.3,1.314051,391215,18983
1085.96,1.322023,393215,18733
1090.84,1.314080,396270,19227
1094.49,1.325631,398760,18840
1098.14,1.313898,400987,19464
1101.79,1.318779,403477,19366
1105.43,1.310299,406116,19877
1109.06,1.321668,407701,19439
1112.7,1.316430,409859,19779
1117.53,1.323051,412494,19605
1121.15,1.327473,414909,19520
1124.77,1.315552,416559,20143
1128.38,1.329872,418532,19582
1131.99,1.331591,419956,19571
1135.6,1.324357,421946,19994
1139.2,1.324415,423881,20083
1143.99,1.324644,426786,20210
1147.58,1.322737,428617,20386
1151.17,1.326190,431169,20345
1154.75,1.317671,433579,20864
1158.33,1.323045,436264,20735
1161.91,1.314848,439132,21269
1165.48,1.327887,442389,20793
1169.04,1.318026,446101,21449
1173.79,1.325144,451929,21376
1177.34,1.321570,456026,21748
1180.9,1.322911,461306,21932
1184.44,1.317822,467657,22496
1187.99,1.319208,473969,22727
1191.52,1.315080,479856,23229
1195.06,1.320039,487372,23325
1199.76,1.322204,497347,23684
1203.29,1.322813,504311,23982
1206.81,1.324946,511507,24205
1210.33,1.320151,519078,24836
1213.84,1.322479,527163,25088
1217.35,1.323887,534208,25341
1220.85,1.329172,540472,25328
1225.51,1.329108,549929,25775
1229.01,1.324477,556888,26381
1232.5,1.335069,562180,25990
1235.98,1.325741,567975,26828
1239.46,1.324816,574815,27209
1242.94,1.332665,582782,27092
1246.41,1.327955,591476,27796
1251.03,1.326127,604016,28505
1254.5,1.329574,612289,28667
1257.96,1.325430,619125,29265
1261.41,1.336945,624551,28749
1264.86,1.329995,629900,29463
1268.31,1.329730,634345,29689
1271.75,1.323582,638574,30313
1276.33,1.331084,642499,29977
1279.76,1.330205,645905,30197
1283.19,1.329236,648307,30377
1286.61,1.326512,650446,30669
1290.03,1.329879,652132,30511
1293.44,1.329624,653907,30612
1296.85,1.336743,655963,30209
1301.39,1.330375,657349,30720
1304.8,1.334789,657558,30419
1308.19,1.334209,658515,30504
1311.58,1.335883,658804,30400
1314.97,1.330314,659011,30802
1318.36,1.334049,658272,30504
1321.73,1.333457,658022,30534
1326.23,1.335295,657870,30398
1329.6,1.339725,656482,30026
1332.97,1.330386,654926,30606
1336.33,1.331909,653727,30443
1339.69,1.341004,652497,29756
1343.04,1.334794,649913,30065
1346.39,1.333785,647671,30031
1349.73,1.333593,645338,29936
1354.18,1.332338,641175,29829
1357.52,1.330030,638376,29857
1360.85,1.334180,635805,29454
1364.17,1.334968,633413,29290
1367.49,1.333936,631026,29249
1370.81,1.325501,628050,29682
1374.12,1.327453,625034,29407
1378.54,1.323969,620272,29418
1381.84,1.326122,616892,29113
1385.14,1.326471,613613,28935
1388.43,1.327611,611526,28761
1391.72,1.332636,610663,28390
1395.01,1.330008,610634,28561
1398.29,1.333067,611700,28410
1402.66,1.332051,614051,28586
1405.93,1.337217,616268,28350
1409.2,1.331090,617795,28824
1412.46,1.334249,618872,28665
1415.72,1.332614,619795,28816
1418.98,1.335750,620495,28641
1422.23,1.334152,621087,28774
1426.56,1.341828,621375,28283
1429.8,1.333452,621616,28845
1433.04,1.340960,622129,28374
1436.27,1.335048,621526,28735
1439.5,1.337975,621113,28523
1442.72,1.336670,620921,28600
1445.94,1.334759,620270,28696
1450.23,1.338748,618860,28369
1453.44,1.335367,617697,28537
1456.64,1.337643,616264,28322
1459.85,1.363513,614413,26604
1463.04,1.344160,612307,27721
1466.24,1.337234,610032,28062
1469.43,1.335332,607345,28061
1473.67,1.337059,603789,27786
1476.85,1.339621,601175,27503
1480.02,1.338807,597737,27397
1483.19,1.344546,594479,26890
1486.36,1.336009,591232,27274
1489.52,1.331502,587853,27401
1492.68,1.336116,583875,26928
1496.89,1.342019,578062,26300
1500.03,1.339804,574159,26256
1503.18,1.333190,570285,26479
1506.32,1.337801,565444,25977
1509.45,1.338664,560571,25702
1512.58,1.347203,555821,24988
1515.71,1.342833,550344,24992
1519.87,1.339630,543983,24886
1522.99,1.340958,538764,24572
1526.1,1.337983,533692,24508
1529.21,1.333813,527902,24476
1532.32,1.341108,521886,23794
1535.42,1.344678,515888,23328
1538.51,1.327565,509987,23988
1541.6,1.343755,503936,22836
1545.72,1.340824,494694,22569
1548.8,1.338392,488378,22406
1551.88,1.333618,481832,22350
1554.95,1.331486,474989,22141
1558.02,1.344664,467818,21155
1561.08,1.346826,460730,20731
1564.15,1.334668,454170,21016
1568.22,1.341693,444181,20224
1571.27,1.340094,436947,19968
1574.32,1.329499,429598,20117
1577.36,1.341170,422039,19239
1580.4,1.336906,414375,19076
1583.43,1.338878,406354,18622
1586.46,1.340401,398475,18197
1590.49,1.339558,388982,17798
1593.51,1.335820,380708,17570
1596.53,1.333621,372727,17289
1599.54,1.332248,365060,16987
1602.55,1.322445,357543,17017
1605.55,1.334006,349495,16197
1608.55,1.327313,341154,16056
1612.54,1.329055,330877,15510
1615.53,1.336325,322904,14885
1618.51,1.331064,315116,14703
1621.49,1.325120,307217,14532
1624.47,1.339363,299481,13709
1627.44,1.321349,292112,13938
1630.41,1.318592,284245,13649
1634.36,1.323432,274079,13015
1637.32,1.323804,266916,12664
1640.27,1.313231,259612,12621
1643.22,1.315986,251804,12164
1646.16,1.333702,244348,11332
1649.1,1.320281,236703,11322
1652.04,1.316986,228171,10997
1655.95,1.314021,215408,10453
1658.88,1.310060,204937,10036
1661.8,1.291469,193395,9885
1664.72,1.283293,179728,9361
1667.63,1.273328,163642,8721
1670.54,1.259754,146312,8045
1673.44,1.255709,128451,7129
1677.31,1.237188,105080,6086
1680.21,1.234182,88906,5185
1683.1,1.236264,75033,4355
1685.99,1.262581,63520,3470
1688.87,1.228617,53714,3173
1691.75,1.219348,45653,2755
1694.62,1.244672,39137,2228
1697.49,1.171245,33776,2277
1701.31,1.189316,28175,1822

File: Column 1_078254_20241121_165303.csv
Method:,Column 1,,
Host Date-Time:,21/11/24 @ 16:53:3,,
Header Version:,1,,
System Temp (C):,34.32,,
Detector Temp (C):,31.78,,
Humidity (%):,2.55,,
Lamp PD:,3803,,
Shift Vector Coefficients:,-10.5391,0.0761263,-0.000134223,,
Pixel to Wavelength Coefficients:,1775.68,-0.916766,-0.000235065,,
Serial Number:,5510004,,
Scan Config Name:,Column 1,,
Scan Config Type:,Slew,,
Section 1,,
Start wavelength (nm):,900,,
End wavelength (nm):,1700,,
Pattern Pixel Width (nm):,   7.03,,,,
Exposure (ms):,  0.635,,,,
Digital Resolution:,228,,
Num Repeats:,6,,
PGA Gain:,64,,
Total Measurement Time in sec:,  2.726,,
Wavelength (nm),Absorbance (AU),Reference Signal (unitless),Sample Signal (unitless)
901.51,1.308154,108485,5336
905.376,1.313693,121306,5891
909.237,1.292130,131909,6732
913.095,1.319286,143299,6870
916.948,1.316295,156982,7578
922.079,1.345190,179937,8127
925.923,1.322438,200504,9543
929.762,1.314098,222660,10803
933.597,1.320891,244426,11675
937.427,1.314857,263972,12785
941.254,1.322873,281845,13401
945.076,1.311336,297271,14515
950.165,1.315077,315605,15278
953.978,1.309329,328029,16091
957.786,1.306537,340470,16809
961.59,1.309490,352317,17276
965.389,1.316117,363056,17533
969.185,1.312758,373162,18161
972.976,1.313385,382632,18595
976.763,1.309598,391202,19178
981.806,1.301758,400190,19976
985.583,1.309287,406088,19922
989.355,1.308293,410162,20168
993.124,1.315672,412868,19959
996.888,1.310530,414263,20265
1000.65,1.303963,415476,20634
1004.4,1.311117,415479,20297
1009.41,1.315153,414358,20055
1013.15,1.305324,412923,20443
1016.89,1.316899,411526,19838
1020.63,1.304426,409066,20294
1024.36,1.307004,406777,20061
1028.09,1.311163,404427,19755
1031.82,1.308541,401911,19751
1036.78,1.302176,398410,19868
1040.49,1.314324,396204,19213
1044.2,1.312772,394236,19186
1047.91,1.305800,392042,19388
1051.61,1.312503,389823,18983
1055.31,1.311668,388234,18942
1059,1.314410,387599,18792
1063.92,1.306282,386688,19102
1067.61,1.304275,386598,19186
1071.29,1.317408,387377,18652
1074.96,1.322400,388536,18494
1078.63,1.325472,389855,18426
1082.3,1.305847,391215,19345
1085.96,1.312189,393215,19162
1090.84,1.319032,396270,19009
1094.49,1.313268,398760,19384
1098.14,1.317011,400987,19325
1101.79,1.304724,403477,20003
1105.43,1.322441,406116,19329
1109.06,1.312603,407701,19849
1112.7,1.316189,409859,19790
1117.53,1.312719,412494,20077
1121.15,1.320170,414909,19851
1124.77,1.316113,416559,20117
1128.38,1.313271,418532,20345
1131.99,1.313808,419956,20389
1135.6,1.317526,421946,20311
1139.2,1.318061,423881,20379
1143.99,1.325827,426786,20155
1147.58,1.319702,428617,20529
1151.17,1.322851,431169,20502
1154.75,1.318504,433579,20824
1158.33,1.323674,436264,20705
1161.91,1.323843,439132,20833
1165.48,1.322924,442389,21032
1169.04,1.314718,446101,21613
1173.79,1.311780,451929,22044
1177.34,1.322330,456026,21710
1180.9,1.313799,461306,22397
1184.44,1.323281,467657,22215
1187.99,1.319781,473969,22697
1191.52,1.321769,479856,22874
1195.06,1.314709,487372,23613
1199.76,1.317390,497347,23948
1203.29,1.328702,504311,23659
1206.81,1.326420,511507,24123
1210.33,1.322659,519078,24693
1213.84,1.317642,527163,25369
1217.35,1.328279,534208,25086
1220.85,1.329927,540472,25284
1225.51,1.323417,549929,26115
1229.01,1.319582,556888,26680
1232.5,1.327696,562180,26435
1235.98,1.322194,567975,27048
1239.46,1.324241,574815,27245
1242.94,1.319684,582782,27914
1246.41,1.327549,591476,27822
1251.03,1.321882,604016,28785
1254.5,1.324753,612289,28987
1257.96,1.328782,619125,29040
1261.41,1.326173,624551,29471
1264.86,1.325376,629900,29778
1268.31,1.329525,634345,29703
1271.75,1.333626,638574,29620
1276.33,1.334210,642499,29762
1279.76,1.335152,645905,29855
1283.19,1.330811,648307,30267
1286.61,1.330323,650446,30401
1290.03,1.335207,652132,30139
1293.44,1.332943,653907,30379
1296.85,1.332352,655963,30516
1301.39,1.329020,657349,30816
1304.8,1.332624,657558,30571
1308.19,1.328017,658515,30942
1311.58,1.331844,658804,30684
1314.97,1.331373,659011,30727
1318.36,1.332358,658272,30623
1321.73,1.335481,658022,30392
1326.23,1.334938,657870,30423
1329.6,1.333992,656482,30425
1332.97,1.334549,654926,30314
1336.33,1.331766,653727,30453
1339.69,1.332864,652497,30319
1343.04,1.332704,649913,30210
1346.39,1.332572,647671,30115
1349.73,1.323328,645338,30652
1354.18,1.333023,641175,29782
1357.52,1.326106,638376,30128
1360.85,1.331387,635805,29644
1364.17,1.324291,633413,30019
1367.49,1.325875,631026,29797
1370.81,1.331764,628050,29257
1374.12,1.335156,625034,28890
1378.54,1.332662,620272,28835
1381.84,1.330304,616892,28834
1385.14,1.332745,613613,28520
1388.43,1.325637,611526,28892
1391.72,1.328692,610663,28649
1395.01,1.324388,610634,28933
1398.29,1.333205,611700,28401
1402.66,1.328737,614051,28805
1405.93,1.325250,616268,29142
1409.2,1.329751,617795,28913
1412.46,1.339140,618872,28344
1415.72,1.329925,619795,28995
1418.98,1.332021,620495,28888
1422.23,1.328484,621087,29152
1426.56,1.323694,621375,29489
1429.8,1.332715,621616,28894
1433.04,1.334956,622129,28769
1436.27,1.336714,621526,28625
1439.5,1.336228,621113,28638
1442.72,1.330848,620921,28986
1445.94,1.332405,620270,28852
1450.23,1.331763,618860,28829
1453.44,1.330660,617697,28848
1456.64,1.338103,616264,28292
1459.85,1.342265,614413,27938
1463.04,1.334799,612307,28325
1466.24,1.335427,610032,28179
1469.43,1.336122,607345,28010
1473.67,1.333510,603789,28014
1476.85,1.335300,601175,27778
1480.02,1.336972,597737,27513
1483.19,1.336989,594479,27362
1486.36,1.335102,591232,27331
1489.52,1.336315,587853,27099
1492.68,1.340672,583875,26647
1496.89,1.341441,578062,26335
1500.03,1.331514,574159,26762
1503.18,1.333207,570285,26478
1506.32,1.333376,565444,26243
1509.45,1.334811,560571,25931
1512.58,1.336593,555821,25606
1515.71,1.334691,550344,25465
1519.87,1.334030,543983,25209
1522.99,1.337718,538764,24756
1526.1,1.338728,533692,24466
1529.21,1.336286,527902,24337
1532.32,1.335324,521886,24113
1535.42,1.335468,515888,23828
1538.51,1.336029,509987,23525
1541.6,1.343394,503936,22855
1545.72,1.334539,494694,22898
1548.8,1.331698,488378,22754
1551.88,1.337757,481832,22138
1554.95,1.328768,474989,22280
1558.02,1.339501,467818,21408
1561.08,1.330362,460730,21532
1564.15,1.333884,454170,21054
1568.22,1.328683,444181,20839
1571.27,1.333768,436947,20261
1574.32,1.338508,429598,19704
1577.36,1.335229,422039,19504
1580.4,1.332084,414375,19289
1583.43,1.329443,406354,19031
1586.46,1.329327,398475,18667
1590.49,1.332683,388982,18082
1593.51,1.331345,380708,17752
1596.53,1.331641,372727,17368
1599.54,1.329063,365060,17112
1602.55,1.320408,357543,17097
1605.55,1.333256,349495,16225
1608.55,1.326179,341154,16098
1612.54,1.333445,330877,15354
1615.53,1.315754,322904,15607
1618.51,1.329119,315116,14769
1621.49,1.321459,307217,14655
1624.47,1.321155,299481,14296
1627.44,1.315254,292112,14135
1630.41,1.329678,284245,13305
1634.36,1.320306,274079,13109
1637.32,1.338735,266916,12236
1640.27,1.318598,259612,12466
1643.22,1.318744,251804,12087
1646.16,1.321646,244348,11651
1649.1,1.305573,236703,11712
1652.04,1.310518,228171,11162
1655.95,1.313730,215408,10460
1658.88,1.312316,204937,9984
1661.8,1.298779,193395,9720
1664.72,1.294193,179728,9129
1667.63,1.265971,163642,8870
1670.54,1.258245,146312,8073
1673.44,1.222868,128451,7689
1677.31,1.233210,105080,6142
1680.21,1.209280,88906,5491
1683.1,1.167342,75033,5104
1685.99,1.197821,63520,4028
1688.87,1.231364,53714,3153
1691.75,1.239679,45653,2629
1694.62,1.192050,39137,2515
1697.49,1.227144,33776,2002
1701.31,1.385032,28175,1161