Folder: textile_sorting_NIRSCAN_/ML/samples/unknown (part 122)

File: Column 1_078912_20241121_172811.csv
Method:,Column 1,,
Host Date-Time:,21/11/24 @ 17:28:11,,
Header Version:,1,,
System Temp (C):,36.7,,
Detector Temp (C):,36.39,,
Humidity (%):,0.19,,
Lamp PD:,3795,,
Shift Vector Coefficients:,-10.5391,0.0761263,-0.000134223,,
Pixel to Wavelength Coefficients:,1775.68,-0.916766,-0.000235065,,
Serial Number:,5510004,,
Scan Config Name:,Column 1,,
Scan Config Type:,Slew,,
Section 1,,
Start wavelength (nm):,900,,
End wavelength (nm):,1700,,
Pattern Pixel Width (nm):,   7.03,,,,
Exposure (ms):,  0.635,,,,
Digital Resolution:,228,,
Num Repeats:,6,,
PGA Gain:,64,,
Total Measurement Time in sec:,  2.727,,
Wavelength (nm),Absorbance (AU),Reference Signal (unitless),Sample Signal (unitless)
901.51,1.307503,108485,5344
905.376,1.323309,121306,5762
909.237,1.337587,131909,6063
913.095,1.327390,143299,6743
916.948,1.323927,156982,7446
922.079,1.323408,179937,8545
925.923,1.329041,200504,9399
929.762,1.326412,222660,10501
933.597,1.317371,244426,11770
937.427,1.324335,263972,12509
941.254,1.313734,281845,13686
945.076,1.320375,297271,14216
950.165,1.313064,315605,15349
953.978,1.309167,328029,16097
957.786,1.308687,340470,16726
961.59,1.303053,352317,17534
965.389,1.314634,363056,17593
969.185,1.310706,373162,18247
972.976,1.300885,382632,19138
976.763,1.316330,391202,18883
981.806,1.307227,400190,19726
985.583,1.311692,406088,19812
989.355,1.301604,410162,20481
993.124,1.311579,412868,20148
996.888,1.308264,414263,20371
1000.65,1.304847,415476,20592
1004.4,1.296640,415479,20985
1009.41,1.301741,414358,20684
1013.15,1.303522,412923,20528
1016.89,1.307672,411526,20264
1020.63,1.308101,409066,20123
1024.36,1.310569,406777,19897
1028.09,1.304769,404427,20048
1031.82,1.313784,401911,19514
1036.78,1.299257,398410,20002
1040.49,1.311350,396204,19345
1044.2,1.309030,394236,19352
1047.91,1.304301,392042,19455
1051.61,1.306482,389823,19248
1055.31,1.301628,388234,19385
1059,1.318100,387599,18633
1063.92,1.311773,386688,18862
1067.61,1.318074,386598,18586
1071.29,1.318878,387377,18589
1074.96,1.310541,388536,19006
1078.63,1.310461,389855,19074
1082.3,1.319113,391215,18763
1085.96,1.306896,393215,19397
1090.84,1.312231,396270,19309
1094.49,1.312105,398760,19436
1098.14,1.311739,400987,19561
1101.79,1.308759,403477,19818
1105.43,1.310430,406116,19871
1109.06,1.306412,407701,20134
1112.7,1.306724,409859,20226
1117.53,1.309486,412494,20227
1121.15,1.320127,414909,19853
1124.77,1.315121,416559,20163
1128.38,1.318446,418532,20104
1131.99,1.311365,419956,20504
1135.6,1.320314,421946,20181
1139.2,1.311630,423881,20683
1143.99,1.322564,426786,20307
1147.58,1.317507,428617,20633
1151.17,1.311127,431169,21063
1154.75,1.318713,433579,20814
1158.33,1.318773,436264,20940
1161.91,1.318395,439132,21096
1165.48,1.323399,442389,21009
1169.04,1.312014,446101,21748
1173.79,1.310717,451929,22098
1177.34,1.316843,456026,21986
1180.9,1.312386,461306,22470
1184.44,1.318344,467657,22469
1187.99,1.313890,473969,23007
1191.52,1.318308,479856,23057
1195.06,1.314195,487372,23641
1199.76,1.317826,497347,23924
1203.29,1.322324,504311,24009
1206.81,1.322549,511507,24339
1210.33,1.315628,519078,25096
1213.84,1.318945,527163,25293
1217.35,1.322842,534208,25402
1220.85,1.321238,540472,25795
1225.51,1.325367,549929,25998
1229.01,1.326903,556888,26234
1232.5,1.320575,562180,26872
1235.98,1.323271,567975,26981
1239.46,1.316343,574815,27745
1242.94,1.325448,582782,27546
1246.41,1.321488,591476,28213
1251.03,1.327455,604016,28418
1254.5,1.316267,612289,29559
1257.96,1.323269,619125,29411
1261.41,1.327221,624551,29400
1264.86,1.327657,629900,29622
1268.31,1.323716,634345,30103
1271.75,1.329192,638574,29924
1276.33,1.325399,642499,30372
1279.76,1.325726,645905,30510
1283.19,1.322695,648307,30838
1286.61,1.324886,650446,30784
1290.03,1.324237,652132,30910
1293.44,1.325192,653907,30926
1296.85,1.327455,655963,30862
1301.39,1.326350,657349,31006
1304.8,1.331433,657558,30655
1308.19,1.329071,658515,30867
1311.58,1.326177,658804,31087
1314.97,1.321604,659011,31426
1318.36,1.331111,658272,30711
1321.73,1.335481,658022,30392
1326.23,1.327788,657870,30928
1329.6,1.325833,656482,31002
1332.97,1.329309,654926,30682
1336.33,1.323363,653727,31048
1339.69,1.325774,652497,30818
1343.04,1.329439,649913,30438
1346.39,1.329525,647671,30327
1349.73,1.321999,645338,30746
1354.18,1.328800,641175,30073
1357.52,1.331210,638376,29776
1360.85,1.326290,635805,29994
1364.17,1.321522,633413,30211
1367.49,1.322738,631026,30013
1370.81,1.324070,628050,29780
1374.12,1.326141,625034,29496
1378.54,1.324250,620272,29399
1381.84,1.318859,616892,29604
1385.14,1.320553,613613,29332
1388.43,1.322268,611526,29117
1391.72,1.325550,610663,28857
1395.01,1.327234,610634,28744
1398.29,1.323647,611700,29033
1402.66,1.322628,614051,29213
1405.93,1.331117,616268,28751
1409.2,1.326728,617795,29115
1412.46,1.331816,618872,28826
1415.72,1.333625,619795,28749
1418.98,1.326627,620495,29249
1422.23,1.327071,621087,29247
1426.56,1.336821,621375,28611
1429.8,1.331874,621616,28950
1433.04,1.334639,622129,28790
1436.27,1.331526,621526,28969
1439.5,1.332724,621113,28870
1442.72,1.331493,620921,28943
1445.94,1.337919,620270,28488
1450.23,1.335439,618860,28586
1453.44,1.334501,617697,28594
1456.64,1.327294,616264,29005
1459.85,1.334195,614413,28462
1463.04,1.335828,612307,28258
1466.24,1.338427,610032,27985
1469.43,1.330653,607345,28365
1473.67,1.333030,603789,28045
1476.85,1.341441,601175,27388
1480.02,1.326985,597737,28153
1483.19,1.331547,594479,27707
1486.36,1.332315,591232,27507
1489.52,1.331661,587853,27391
1492.68,1.334602,583875,27022
1496.89,1.330965,578062,26978
1500.03,1.337231,574159,26412
1503.18,1.332862,570285,26499
1506.32,1.332797,565444,26278
1509.45,1.335012,560571,25919
1512.58,1.343259,555821,25216
1515.71,1.337205,550344,25318
1519.87,1.337663,543983,24999
1522.99,1.335670,538764,24873
1526.1,1.338728,533692,24466
1529.21,1.333139,527902,24514
1532.32,1.333061,521886,24239
1535.42,1.330070,515888,24126
1538.51,1.331914,509987,23749
1541.6,1.332603,503936,23430
1545.72,1.334653,494694,22892
1548.8,1.337966,488378,22428
1551.88,1.338621,481832,22094
1554.95,1.332154,474989,22107
1558.02,1.331760,467818,21793
1561.08,1.334741,460730,21316
1564.15,1.325649,454170,21457
1568.22,1.336888,444181,20449
1571.27,1.323934,436947,20725
1574.32,1.330688,429598,20062
1577.36,1.324344,422039,19999
1580.4,1.326002,414375,19561
1583.43,1.331066,406354,18960
1586.46,1.335111,398475,18420
1590.49,1.329190,388982,18228
1593.51,1.329416,380708,17831
1596.53,1.325015,372727,17635
1599.54,1.317642,365060,17568
1602.55,1.328045,357543,16799
1605.55,1.322496,349495,16632
1608.55,1.320417,341154,16313
1612.54,1.326988,330877,15584
1615.53,1.317371,322904,15549
1618.51,1.332336,315116,14660
1621.49,1.321934,307217,14639
1624.47,1.321185,299481,14295
1627.44,1.314701,292112,14153
1630.41,1.319261,284245,13628
1634.36,1.310317,274079,13414
1637.32,1.317100,266916,12861
1640.27,1.321780,259612,12375
1643.22,1.319643,251804,12062
1646.16,1.317159,244348,11772
1649.1,1.319055,236703,11354
1652.04,1.302729,228171,11364
1655.95,1.307465,215408,10612
1658.88,1.275591,204937,10865
1661.8,1.295352,193395,9797
1664.72,1.246911,179728,10179
1667.63,1.241785,163642,9378
1670.54,1.226660,146312,8682
1673.44,1.186895,128451,8353
1677.31,1.156594,105080,7327
1680.21,1.125587,88906,6658
1683.1,1.120216,75033,5689
1685.99,1.164421,63520,4350
1688.87,1.114243,53714,4129
1691.75,1.116768,45653,3489
1694.62,1.107576,39137,3055
1697.49,1.065761,33776,2903
1701.31,1.140447,28175,2039

File: Column 1_078915_20241121_172819.csv
Method:,Column 1,,
Host Date-Time:,21/11/24 @ 17:28:19,,
Header Version:,1,,
System Temp (C):,36.82,,
Detector Temp (C):,36.33,,
Humidity (%):,0.09,,
Lamp PD:,3796,,
Shift Vector Coefficients:,-10.5391,0.0761263,-0.000134223,,
Pixel to Wavelength Coefficients:,1775.68,-0.916766,-0.000235065,,
Serial Number:,5510004,,
Scan Config Name:,Column 1,,
Scan Config Type:,Slew,,
Section 1,,
Start wavelength (nm):,900,,
End wavelength (nm):,1700,,
Pattern Pixel Width (nm):,   7.03,,,,
Exposure (ms):,  0.635,,,,
Digital Resolution:,228,,
Num Repeats:,6,,
PGA Gain:,64,,
Total Measurement Time in sec:,  2.725,,
Wavelength (nm),Absorbance (AU),Reference Signal (unitless),Sample Signal (unitless)
901.51,1.326269,108485,5118
905.376,1.334997,121306,5609
909.237,1.301587,131909,6587
913.095,1.322969,143299,6812
916.948,1.313268,156982,7631
922.079,1.314156,179937,8729
925.923,1.331869,200504,9338
929.762,1.330985,222660,10391
933.597,1.317408,244426,11769
937.427,1.336910,263972,12152
941.254,1.322711,281845,13406
945.076,1.318850,297271,14266
950.165,1.322243,315605,15028
953.978,1.315171,328029,15876
957.786,1.305093,340470,16865
961.59,1.316331,352317,17006
965.389,1.304147,363056,18023
969.185,1.313787,373162,18118
972.976,1.315563,382632,18502
976.763,1.309009,391202,19204
981.806,1.301475,400190,19989
985.583,1.299800,406088,20362
989.355,1.303219,410162,20405
993.124,1.301796,412868,20607
996.888,1.300698,414263,20729
1000.65,1.307895,415476,20448
1004.4,1.303104,415479,20675
1009.41,1.309345,414358,20325
1013.15,1.306175,412923,20403
1016.89,1.301269,411526,20565
1020.63,1.307820,409066,20136
1024.36,1.313899,406777,19745
1028.09,1.304141,404427,20077
1031.82,1.305190,401911,19904
1036.78,1.308362,398410,19587
1040.49,1.306728,396204,19552
1044.2,1.307686,394236,19412
1047.91,1.307056,392042,19332
1051.61,1.307951,389823,19183
1055.31,1.299460,388234,19482
1059,1.306146,387599,19153
1063.92,1.311704,386688,18865
1067.61,1.309078,386598,18975
1071.29,1.307010,387377,19104
1074.96,1.309354,388536,19058
1078.63,1.324577,389855,18464
1082.3,1.311678,391215,19087
1085.96,1.313438,393215,19107
1090.84,1.317458,396270,19078
1094.49,1.322324,398760,18984
1098.14,1.319829,400987,19200
1101.79,1.308584,403477,19826
1105.43,1.320066,406116,19435
1109.06,1.320040,407701,19512
1112.7,1.314655,409859,19860
1117.53,1.316586,412494,19899
1121.15,1.309944,414909,20324
1124.77,1.308304,416559,20482
1128.38,1.319723,418532,20045
1131.99,1.318562,419956,20167
1135.6,1.315286,421946,20416
1139.2,1.319855,423881,20295
1143.99,1.314135,426786,20705
1147.58,1.309705,428617,21007
1151.17,1.318866,431169,20691
1154.75,1.318796,433579,20810
1158.33,1.315858,436264,21081
1161.91,1.323031,439132,20872
1165.48,1.318588,442389,21243
1169.04,1.312254,446101,21736
1173.79,1.316454,451929,21808
1177.34,1.310646,456026,22302
1180.9,1.307772,461306,22710
1184.44,1.318073,467657,22483
1187.99,1.313230,473969,23042
1191.52,1.307555,479856,23635
1195.06,1.321120,487372,23267
1199.76,1.325961,497347,23480
1203.29,1.322777,504311,23984
1206.81,1.317952,511507,24598
1210.33,1.321605,519078,24753
1213.84,1.319890,527163,25238
1217.35,1.321187,534208,25499
1220.85,1.322756,540472,25705
1225.51,1.323733,549929,26096
1229.01,1.326142,556888,26280
1232.5,1.315610,562180,27181
1235.98,1.316563,567975,27401
1239.46,1.315921,574815,27772
1242.94,1.316012,582782,28151
1246.41,1.316894,591476,28513
1251.03,1.326768,604016,28463
1254.5,1.326630,612289,28862
1257.96,1.321824,619125,29509
1261.41,1.324423,624551,29590
1264.86,1.323092,629900,29935
1268.31,1.326814,634345,29889
1271.75,1.324730,638574,30233
1276.33,1.320805,642499,30695
1279.76,1.325926,645905,30496
1283.19,1.324614,648307,30702
1286.61,1.328513,650446,30528
1290.03,1.325306,652132,30834
1293.44,1.326557,653907,30829
1296.85,1.327005,655963,30894
1301.39,1.326238,657349,31014
1304.8,1.329651,657558,30781
1308.19,1.325219,658515,31142
1311.58,1.330572,658804,30774
1314.97,1.332590,659011,30641
1318.36,1.332173,658272,30636
1321.73,1.322322,658022,31327
1326.23,1.329857,657870,30781
1329.6,1.335737,656482,30303
1332.97,1.323781,654926,31075
1336.33,1.321075,653727,31212
1339.69,1.327667,652497,30684
1343.04,1.325476,649913,30717
1346.39,1.330084,647671,30288
1349.73,1.324733,645338,30553
1354.18,1.328670,641175,30082
1357.52,1.324423,638376,30245
1360.85,1.325032,635805,30081
1364.17,1.320560,633413,30278
1367.49,1.326327,631026,29766
1370.81,1.330875,628050,29317
1374.12,1.324817,625034,29586
1378.54,1.323099,620272,29477
1381.84,1.325749,616892,29138
1385.14,1.328321,613613,28812
1388.43,1.326284,611526,28849
1391.72,1.326892,610663,28768
1395.01,1.328944,610634,28631
1398.29,1.322377,611700,29118
1402.66,1.327126,614051,28912
1405.93,1.326683,616268,29046
1409.2,1.328731,617795,28981
1412.46,1.323327,618872,29395
1415.72,1.331771,619795,28872
1418.98,1.330176,620495,29011
1422.23,1.326166,621087,29308
1426.56,1.330597,621375,29024
1429.8,1.327738,621616,29227
1433.04,1.334518,622129,28798
1436.27,1.329283,621526,29119
1439.5,1.334623,621113,28744
1442.72,1.332770,620921,28858
1445.94,1.322361,620270,29527
1450.23,1.333438,618860,28718
1453.44,1.332379,617697,28734
1456.64,1.329741,616264,28842
1459.85,1.327442,614413,28908
1463.04,1.333162,612307,28432
1466.24,1.330919,610032,28473
1469.43,1.333094,607345,28206
1473.67,1.331885,603789,28119
1476.85,1.330094,601175,28113
1480.02,1.334972,597737,27640
1483.19,1.326963,594479,28001
1486.36,1.333817,591232,27412
1489.52,1.331249,587853,27417
1492.68,1.336891,583875,26880
1496.89,1.334342,578062,26769
1500.03,1.334347,574159,26588
1503.18,1.336880,570285,26255
1506.32,1.336082,565444,26080
1509.45,1.336405,560571,25836
1512.58,1.339059,555821,25461
1515.71,1.336416,550344,25364
1519.87,1.336830,543983,25047
1522.99,1.335880,538764,24861
1526.1,1.331056,533692,24902
1529.21,1.360278,527902,23029
1532.32,1.337908,521886,23970
1535.42,1.335012,515888,23853
1538.51,1.335126,509987,23574
1541.6,1.335336,503936,23283
1545.72,1.330631,494694,23105
1548.8,1.330003,488378,22843
1551.88,1.326143,481832,22738
1554.95,1.330859,474989,22173
1558.02,1.330685,467818,21847
1561.08,1.336722,460730,21219
1564.15,1.329084,454170,21288
1568.22,1.326915,444181,20924
1571.27,1.333254,436947,20285
1574.32,1.326723,429598,20246
1577.36,1.330732,422039,19707
1580.4,1.326714,414375,19529
1583.43,1.321506,406354,19382
1586.46,1.332151,398475,18546
1590.49,1.320417,388982,18600
1593.51,1.328030,380708,17888
1596.53,1.323148,372727,17711
1599.54,1.326104,365060,17229
1602.55,1.314831,357543,17318
1605.55,1.329419,349495,16369
1608.55,1.320869,341154,16296
1612.54,1.309295,330877,16232
1615.53,1.326088,322904,15240
1618.51,1.315657,315116,15234
1621.49,1.319537,307217,14720
1624.47,1.317494,299481,14417
1627.44,1.322253,292112,13909
1630.41,1.324486,284245,13465
1634.36,1.339232,274079,12550
1637.32,1.322502,266916,12702
1640.27,1.302156,259612,12947
1643.22,1.293141,251804,12821
1646.16,1.310714,244348,11948
1649.1,1.309970,236703,11594
1652.04,1.301966,228171,11384
1655.95,1.299959,215408,10797
1658.88,1.301787,204937,10229
1661.8,1.271295,193395,10355
1664.72,1.257273,179728,9939
1667.63,1.242619,163642,9360
1670.54,1.230075,146312,8614
1673.44,1.174290,128451,8599
1677.31,1.161602,105080,7243
1680.21,1.142005,88906,6411
1683.1,1.149504,75033,5318
1685.99,1.105856,63520,4978
1688.87,1.088812,53714,4378
1691.75,1.169370,45653,3091
1694.62,1.092900,39137,3160
1697.49,1.148397,33776,2400
1701.31,1.071648,28175,2389

File: Column 1_078916_20241121_172822.csv
Method:,Column 1,,
Host Date-Time:,21/11/24 @ 17:28:22,,
Header Version:,1,,
System Temp (C):,36.91,,
Detector Temp (C):,36.33,,
Humidity (%):,0.14,,
Lamp PD:,3796,,
Shift Vector Coefficients:,-10.5391,0.0761263,-0.000134223,,
Pixel to Wavelength Coefficients:,1775.68,-0.916766,-0.000235065,,
Serial Number:,5510004,,
Scan Config Name:,Column 1,,
Scan Config Type:,Slew,,
Section 1,,
Start wavelength (nm):,900,,
End wavelength (nm):,1700,,
Pattern Pixel Width (nm):,   7.03,,,,
Exposure (ms):,  0.635,,,,
Digital Resolution:,228,,
Num Repeats:,6,,
PGA Gain:,64,,
Total Measurement Time in sec:,  2.726,,
Wavelength (nm),Absorbance (AU),Reference Signal (unitless),Sample Signal (unitless)
901.51,1.313065,108485,5276
905.376,1.285301,121306,6289
909.237,1.312604,131909,6422
913.095,1.315698,143299,6927
916.948,1.321600,156982,7486
922.079,1.318758,179937,8637
925.923,1.335137,200504,9268
929.762,1.326784,222660,10492
933.597,1.336570,244426,11261
937.427,1.337053,263972,12148
941.254,1.318809,281845,13527
945.076,1.303419,297271,14782
950.165,1.316558,315605,15226
953.978,1.313124,328029,15951
957.786,1.306976,340470,16792
961.59,1.304367,352317,17481
965.389,1.308676,363056,17836
969.185,1.306891,373162,18408
972.976,1.312592,382632,18629
976.763,1.311118,391202,19111
981.806,1.313280,400190,19453
985.583,1.308046,406088,19979
989.355,1.302496,410162,20439
993.124,1.302746,412868,20562
996.888,1.311731,414263,20209
1000.65,1.307343,415476,20474
1004.4,1.305441,415479,20564
1009.41,1.303656,414358,20593
1013.15,1.309015,412923,20270
1016.89,1.302707,411526,20497
1020.63,1.316028,409066,19759
1024.36,1.312340,406777,19816
1028.09,1.300136,404427,20263
1031.82,1.309972,401911,19686
1036.78,1.312484,398410,19402
1040.49,1.303254,396204,19709
1044.2,1.307082,394236,19439
1047.91,1.305218,392042,19414
1051.61,1.304725,389823,19326
1055.31,1.314913,388234,18801
1059,1.306395,387599,19142
1063.92,1.300455,386688,19360
1067.61,1.308049,386598,19020
1071.29,1.311902,387377,18890
1074.96,1.310792,388536,18995
1078.63,1.303348,389855,19389
1082.3,1.308979,391215,19206
1085.96,1.317548,393215,18927
1090.84,1.311445,396270,19344
1094.49,1.316281,398760,19250
1098.14,1.316674,400987,19340
1101.79,1.318420,403477,19382
1105.43,1.311065,406116,19842
1109.06,1.315259,407701,19728
1112.7,1.314022,409859,19889
1117.53,1.313390,412494,20046
1121.15,1.319231,414909,19894
1124.77,1.315941,416559,20125
1128.38,1.314896,418532,20269
1131.99,1.313595,419956,20399
1135.6,1.311305,421946,20604
1139.2,1.318850,423881,20342
1143.99,1.319050,426786,20472
1147.58,1.318076,428617,20606
1151.17,1.312966,431169,20974
1154.75,1.320322,433579,20737
1158.33,1.319354,436264,20912
1161.91,1.311958,439132,21411
1165.48,1.313709,442389,21483
1169.04,1.313034,446101,21697
1173.79,1.317451,451929,21758
1177.34,1.319181,456026,21868
1180.9,1.314459,461306,22363
1184.44,1.311117,467657,22846
1187.99,1.317568,473969,22813
1191.52,1.314632,479856,23253
1195.06,1.317236,487372,23476
1199.76,1.313221,497347,24179
1203.29,1.319314,504311,24176
1206.81,1.323353,511507,24294
1210.33,1.311872,519078,25314
1213.84,1.317026,527163,25405
1217.35,1.312988,534208,25985
1220.85,1.319792,540472,25881
1225.51,1.321939,549929,26204
1229.01,1.321949,556888,26535
1232.5,1.323039,562180,26720
1235.98,1.317610,567975,27335
1239.46,1.315733,574815,27784
1242.94,1.319357,582782,27935
1246.41,1.317702,591476,28460
1251.03,1.320602,604016,28870
1254.5,1.320845,612289,29249
1257.96,1.320619,619125,29591
1261.41,1.327708,624551,29367
1264.86,1.322339,629900,29987
1268.31,1.328853,634345,29749
1271.75,1.321752,638574,30441
1276.33,1.320564,642499,30712
1279.76,1.318107,645905,31050
1283.19,1.322638,648307,30842
1286.61,1.327362,650446,30609
1290.03,1.326250,652132,30767
1293.44,1.325811,653907,30882
1296.85,1.326135,655963,30956
1301.39,1.330417,657349,30717
1304.8,1.330951,657558,30689
1308.19,1.326448,658515,31054
1311.58,1.329163,658804,30874
1314.97,1.331175,659011,30741
1318.36,1.334248,658272,30490
1321.73,1.332079,658022,30631
1326.23,1.330493,657870,30736
1329.6,1.330637,656482,30661
1332.97,1.333390,654926,30395
1336.33,1.333839,653727,30308
1339.69,1.331134,652497,30440
1343.04,1.330754,649913,30346
1346.39,1.326173,647671,30562
1349.73,1.322748,645338,30693
1354.18,1.329436,641175,30029
1357.52,1.328448,638376,29966
1360.85,1.328583,635805,29836
1364.17,1.320761,633413,30264
1367.49,1.315377,631026,30526
1370.81,1.324785,628050,29731
1374.12,1.325890,625034,29513
1378.54,1.329122,620272,29071
1381.84,1.322187,616892,29378
1385.14,1.329498,613613,28734
1388.43,1.321970,611526,29137
1391.72,1.322088,610663,29088
1395.01,1.327264,610634,28742
1398.29,1.328868,611700,28686
1402.66,1.326181,614051,28975
1405.93,1.325623,616268,29117
1409.2,1.328986,617795,28964
1412.46,1.328111,618872,29073
1415.72,1.330045,619795,28987
1418.98,1.331570,620495,28918
1422.23,1.327993,621087,29185
1426.56,1.328402,621375,29171
1429.8,1.323479,621616,29515
1433.04,1.327473,622129,29269
1436.27,1.331301,621526,28984
1439.5,1.326629,621113,29278
1442.72,1.330489,620921,29010
1445.94,1.329509,620270,29045
1450.23,1.325793,618860,29228
1453.44,1.340342,617697,28212
1456.64,1.328283,616264,28939
1459.85,1.329219,614413,28790
1463.04,1.336289,612307,28228
1466.24,1.332754,610032,28353
1469.43,1.337007,607345,27953
1473.67,1.333216,603789,28033
1476.85,1.329986,601175,28120
1480.02,1.335255,597737,27622
1483.19,1.333668,594479,27572
1486.36,1.329953,591232,27657
1489.52,1.336187,587853,27107
1492.68,1.332310,583875,27165
1496.89,1.338810,578062,26495
1500.03,1.338169,574159,26355
1503.18,1.334685,570285,26388
1506.32,1.335333,565444,26125
1509.45,1.338613,560571,25705
1512.58,1.338242,555821,25509
1515.71,1.329537,550344,25769
1519.87,1.360306,543983,23729
1522.99,1.337946,538764,24743
1526.1,1.326925,533692,25140
1529.21,1.328032,527902,24804
1532.32,1.341346,521886,23781
1535.42,1.329656,515888,24149
1538.51,1.330162,509987,23845
1541.6,1.327059,503936,23731
1545.72,1.328362,494694,23226
1548.8,1.331870,488378,22745
1551.88,1.327291,481832,22678
1554.95,1.334814,474989,21972
1558.02,1.328781,467818,21943
1561.08,1.326707,460730,21714
1564.15,1.337342,454170,20887
1568.22,1.323278,444181,21100
1571.27,1.330245,436947,20426
1574.32,1.331772,429598,20012
1577.36,1.332853,422039,19611
1580.4,1.327337,414375,19501
1583.43,1.330563,406354,18982
1586.46,1.341501,398475,18151
1590.49,1.332539,388982,18088
1593.51,1.319948,380708,18224
1596.53,1.317811,372727,17930
1599.54,1.328835,365060,17121
1602.55,1.329703,357543,16735
1605.55,1.323045,349495,16611
1608.55,1.320177,341154,16322
1612.54,1.317396,330877,15932
1615.53,1.316757,322904,15571
1618.51,1.322379,315116,15000
1621.49,1.311586,307217,14992
1624.47,1.301118,299481,14971
1627.44,1.304751,292112,14481
1630.41,1.322620,284245,13523
1634.36,1.321667,274079,13068
1637.32,1.309767,266916,13080
1640.27,1.318807,259612,12460
1643.22,1.311228,251804,12298
1646.16,1.304506,244348,12120
1649.1,1.304055,236703,11753
1652.04,1.316355,228171,11013
1655.95,1.287313,215408,11116
1658.88,1.280131,204937,10752
1661.8,1.294378,193395,9819
1664.72,1.267441,179728,9709
1667.63,1.245505,163642,9298
1670.54,1.225811,146312,8699
1673.44,1.202241,128451,8063
1677.31,1.177602,105080,6981
1680.21,1.134284,88906,6526
1683.1,1.124898,75033,5628
1685.99,1.085656,63520,5215
1688.87,1.139023,53714,3900
1691.75,1.171342,45653,3077
1694.62,1.115032,39137,3003
1697.49,1.101772,33776,2672
1701.31,1.121484,28175,2130