Folder: textile_sorting_NIRSCAN_/ML/samples/unknown (part 92)

File: Column 1_078652_20241121_171315.csv
Method:,Column 1,,
Host Date-Time:,21/11/24 @ 17:13:15,,
Header Version:,1,,
System Temp (C):,36.32,,
Detector Temp (C):,35.27,,
Humidity (%):,0.68,,
Lamp PD:,3797,,
Shift Vector Coefficients:,-10.5391,0.0761263,-0.000134223,,
Pixel to Wavelength Coefficients:,1775.68,-0.916766,-0.000235065,,
Serial Number:,5510004,,
Scan Config Name:,Column 1,,
Scan Config Type:,Slew,,
Section 1,,
Start wavelength (nm):,900,,
End wavelength (nm):,1700,,
Pattern Pixel Width (nm):,   7.03,,,,
Exposure (ms):,  0.635,,,,
Digital Resolution:,228,,
Num Repeats:,6,,
PGA Gain:,64,,
Total Measurement Time in sec:,  2.725,,
Wavelength (nm),Absorbance (AU),Reference Signal (unitless),Sample Signal (unitless)
901.51,1.322804,108485,5159
905.376,1.326107,121306,5725
909.237,1.329637,131909,6175
913.095,1.316954,143299,6907
916.948,1.314922,156982,7602
922.079,1.322850,179937,8556
925.923,1.326278,200504,9459
929.762,1.322746,222660,10590
933.597,1.298878,244426,12282
937.427,1.316798,263972,12728
941.254,1.325441,281845,13322
945.076,1.323226,297271,14123
950.165,1.309008,315605,15493
953.978,1.308817,328029,16110
957.786,1.299744,340470,17074
961.59,1.310144,352317,17250
965.389,1.310164,363056,17775
969.185,1.297716,373162,18801
972.976,1.294353,382632,19428
976.763,1.317182,391202,18846
981.806,1.304221,400190,19863
985.583,1.304776,406088,20130
989.355,1.308788,410162,20145
993.124,1.311666,412868,20144
996.888,1.307774,414263,20394
1000.65,1.298483,415476,20896
1004.4,1.304303,415479,20618
1009.41,1.299020,414358,20814
1013.15,1.311422,412923,20158
1016.89,1.314454,411526,19950
1020.63,1.297989,409066,20597
1024.36,1.314626,406777,19712
1028.09,1.299858,404427,20276
1031.82,1.307026,401911,19820
1036.78,1.304499,398410,19762
1040.49,1.305729,396204,19597
1044.2,1.305811,394236,19496
1047.91,1.301431,392042,19584
1051.61,1.308812,389823,19145
1055.31,1.313161,388234,18877
1059,1.304810,387599,19212
1063.92,1.305623,386688,19131
1067.61,1.312917,386598,18808
1071.29,1.322444,387377,18437
1074.96,1.315620,388536,18785
1078.63,1.316307,389855,18819
1082.3,1.315219,391215,18932
1085.96,1.312393,393215,19153
1090.84,1.322749,396270,18847
1094.49,1.310588,398760,19504
1098.14,1.301168,400987,20043
1101.79,1.303250,403477,20071
1105.43,1.317503,406116,19550
1109.06,1.319284,407701,19546
1112.7,1.305010,409859,20306
1117.53,1.305447,412494,20416
1121.15,1.312903,414909,20186
1124.77,1.316870,416559,20082
1128.38,1.305360,418532,20719
1131.99,1.313148,419956,20420
1135.6,1.311453,421946,20597
1139.2,1.317380,423881,20411
1143.99,1.314303,426786,20697
1147.58,1.312069,428617,20893
1151.17,1.316793,431169,20790
1154.75,1.322653,433579,20626
1158.33,1.312799,436264,21230
1161.91,1.318807,439132,21076
1165.48,1.312720,442389,21532
1169.04,1.317318,446101,21484
1173.79,1.314785,451929,21892
1177.34,1.312832,456026,22190
1180.9,1.307963,461306,22700
1184.44,1.314361,467657,22676
1187.99,1.315933,473969,22899
1191.52,1.318874,479856,23027
1195.06,1.323422,487372,23144
1199.76,1.318734,497347,23874
1203.29,1.322922,504311,23976
1206.81,1.315750,511507,24723
1210.33,1.316616,519078,25039
1213.84,1.320407,527163,25208
1217.35,1.312954,534208,25987
1220.85,1.319541,540472,25896
1225.51,1.317421,549929,26478
1229.01,1.320397,556888,26630
1232.5,1.329144,562180,26347
1235.98,1.313436,567975,27599
1239.46,1.321793,574815,27399
1242.94,1.316012,582782,28151
1246.41,1.316620,591476,28531
1251.03,1.313840,604016,29323
1254.5,1.320623,612289,29264
1257.96,1.318306,619125,29749
1261.41,1.317767,624551,30047
1264.86,1.317442,629900,30327
1268.31,1.325335,634345,29991
1271.75,1.328756,638574,29954
1276.33,1.318055,642499,30890
1279.76,1.320576,645905,30874
1283.19,1.321190,648307,30945
1286.61,1.322789,650446,30933
1290.03,1.327806,652132,30657
1293.44,1.324379,653907,30984
1296.85,1.322767,655963,31197
1301.39,1.322571,657349,31277
1304.8,1.329017,657558,30826
1308.19,1.319594,658515,31548
1311.58,1.325033,658804,31169
1314.97,1.330243,659011,30807
1318.36,1.326470,658272,31041
1321.73,1.324462,658022,31173
1326.23,1.325757,657870,31073
1329.6,1.329236,656482,30760
1332.97,1.322079,654926,31197
1336.33,1.328584,653727,30677
1339.69,1.334759,652497,30187
1343.04,1.330439,649913,30368
1346.39,1.325690,647671,30596
1349.73,1.322408,645338,30717
1354.18,1.320986,641175,30619
1357.52,1.326409,638376,30107
1360.85,1.328642,635805,29832
1364.17,1.322328,633413,30155
1367.49,1.317717,631026,30362
1370.81,1.319962,628050,30063
1374.12,1.324011,625034,29641
1378.54,1.326560,620272,29243
1381.84,1.322187,616892,29378
1385.14,1.321858,613613,29244
1388.43,1.324212,611526,28987
1391.72,1.328041,610663,28692
1395.01,1.321709,610634,29112
1398.29,1.330385,611700,28586
1402.66,1.329944,614051,28725
1405.93,1.321024,616268,29427
1409.2,1.327564,617795,29059
1412.46,1.330853,618872,28890
1415.72,1.327729,619795,29142
1418.98,1.327326,620495,29202
1422.23,1.328752,621087,29134
1426.56,1.332035,621375,28928
1429.8,1.328764,621616,29158
1433.04,1.327517,622129,29266
1436.27,1.325703,621526,29360
1439.5,1.327624,621113,29211
1442.72,1.329472,620921,29078
1445.94,1.332751,620270,28829
1450.23,1.323378,618860,29391
1453.44,1.330118,617697,28884
1456.64,1.328433,616264,28929
1459.85,1.332961,614413,28543
1463.04,1.330072,612307,28635
1466.24,1.331652,610032,28425
1469.43,1.332171,607345,28266
1473.67,1.324504,603789,28601
1476.85,1.326785,601175,28328
1480.02,1.329771,597737,27973
1483.19,1.326870,594479,28007
1486.36,1.321524,591232,28199
1489.52,1.338823,587853,26943
1492.68,1.332870,583875,27130
1496.89,1.338319,578062,26525
1500.03,1.335688,574159,26506
1503.18,1.333896,570285,26436
1506.32,1.334304,565444,26187
1509.45,1.342482,560571,25477
1512.58,1.331350,555821,25917
1515.71,1.333720,550344,25522
1519.87,1.334823,543983,25163
1522.99,1.339846,538764,24635
1526.1,1.335439,533692,24652
1529.21,1.328592,527902,24772
1532.32,1.333402,521886,24220
1535.42,1.333958,515888,23911
1538.51,1.331366,509987,23779
1541.6,1.328581,503936,23648
1545.72,1.327578,494694,23268
1548.8,1.331279,488378,22776
1551.88,1.327310,481832,22677
1554.95,1.337252,474989,21849
1558.02,1.333297,467818,21716
1561.08,1.334659,460730,21320
1564.15,1.326784,454170,21401
1568.22,1.340214,444181,20293
1571.27,1.328887,436947,20490
1574.32,1.329326,429598,20125
1577.36,1.341418,422039,19228
1580.4,1.336815,414375,19080
1583.43,1.325920,406354,19186
1586.46,1.327794,398475,18733
1590.49,1.329453,388982,18217
1593.51,1.324982,380708,18014
1596.53,1.314962,372727,18048
1599.54,1.327291,365060,17182
1602.55,1.321298,357543,17062
1605.55,1.320179,349495,16721
1608.55,1.317445,341154,16425
1612.54,1.322662,330877,15740
1615.53,1.322315,322904,15373
1618.51,1.320271,315116,15073
1621.49,1.309995,307217,15047
1624.47,1.319215,299481,14360
1627.44,1.316176,292112,14105
1630.41,1.312745,284245,13834
1634.36,1.312818,274079,13337
1637.32,1.310332,266916,13063
1640.27,1.316512,259612,12526
1643.22,1.307921,251804,12392
1646.16,1.298492,244348,12289
1649.1,1.300962,236703,11837
1652.04,1.293653,228171,11604
1655.95,1.293055,215408,10970
1658.88,1.282074,204937,10704
1661.8,1.274283,193395,10284
1664.72,1.260607,179728,9863
1667.63,1.244852,163642,9312
1670.54,1.243282,146312,8356
1673.44,1.212542,128451,7874
1677.31,1.185639,105080,6853
1680.21,1.165671,88906,6071
1683.1,1.173771,75033,5029
1685.99,1.127499,63520,4736
1688.87,1.170061,53714,3631
1691.75,1.162263,45653,3142
1694.62,1.112581,39137,3020
1697.49,1.162746,33776,2322
1701.31,1.094029,28175,2269

File: Column 1_078654_20241121_171544.csv
Method:,Column 1,,
Host Date-Time:,21/11/24 @ 17:15:44,,
Header Version:,1,,
System Temp (C):,34.44,,
Detector Temp (C):,35.36,,
Humidity (%):,1.47,,
Lamp PD:,3806,,
Shift Vector Coefficients:,-10.5391,0.0761263,-0.000134223,,
Pixel to Wavelength Coefficients:,1775.68,-0.916766,-0.000235065,,
Serial Number:,5510004,,
Scan Config Name:,Column 1,,
Scan Config Type:,Slew,,
Section 1,,
Start wavelength (nm):,900,,
End wavelength (nm):,1700,,
Pattern Pixel Width (nm):,   7.03,,,,
Exposure (ms):,  0.635,,,,
Digital Resolution:,228,,
Num Repeats:,6,,
PGA Gain:,64,,
Total Measurement Time in sec:,  2.686,,
Wavelength (nm),Absorbance (AU),Reference Signal (unitless),Sample Signal (unitless)
901.51,1.307585,108485,5343
905.376,1.327703,121306,5704
909.237,1.334233,131909,6110
913.095,1.323990,143299,6796
916.948,1.326618,156982,7400
922.079,1.324121,179937,8531
925.923,1.334435,200504,9283
929.762,1.333836,222660,10323
933.597,1.326883,244426,11515
937.427,1.323156,263972,12543
941.254,1.319516,281845,13505
945.076,1.324272,297271,14089
950.165,1.322850,315605,15007
953.978,1.314542,328029,15899
957.786,1.306873,340470,16796
961.59,1.316561,352317,16997
965.389,1.301720,363056,18124
969.185,1.296886,373162,18837
972.976,1.299865,382632,19183
976.763,1.302344,391202,19501
981.806,1.302803,400190,19928
985.583,1.306549,406088,20048
989.355,1.304199,410162,20359
993.124,1.295478,412868,20909
996.888,1.303409,414263,20600
1000.65,1.307534,415476,20465
1004.4,1.296516,415479,20991
1009.41,1.299584,414358,20787
1013.15,1.300193,412923,20686
1016.89,1.306068,411526,20339
1020.63,1.314997,409066,19806
1024.36,1.300365,406777,20370
1028.09,1.305506,404427,20014
1031.82,1.303991,401911,19959
1036.78,1.307034,398410,19647
1040.49,1.309826,396204,19413
1044.2,1.314609,394236,19105
1047.91,1.308338,392042,19275
1051.61,1.302999,389823,19403
1055.31,1.309381,388234,19042
1059,1.307054,387599,19113
1063.92,1.301893,386688,19296
1067.61,1.313934,386598,18764
1071.29,1.307010,387377,19104
1074.96,1.314742,388536,18823
1078.63,1.303258,389855,19393
1082.3,1.306071,391215,19335
1085.96,1.301997,393215,19617
1090.84,1.311647,396270,19335
1094.49,1.308744,398760,19587
1098.14,1.308863,400987,19691
1101.79,1.316141,403477,19484
1105.43,1.308511,406116,19959
1109.06,1.314841,407701,19747
1112.7,1.300394,409859,20523
1117.53,1.303156,412494,20524
1121.15,1.317227,414909,19986
1124.77,1.312908,416559,20266
1128.38,1.309424,418532,20526
1131.99,1.310984,419956,20522
1135.6,1.314585,421946,20449
1139.2,1.312072,423881,20662
1143.99,1.308343,426786,20983
1147.58,1.310844,428617,20952
1151.17,1.316709,431169,20794
1154.75,1.302836,433579,21589
1158.33,1.310067,436264,21364
1161.91,1.312323,439132,21393
1165.48,1.315147,442389,21412
1169.04,1.303746,446101,22166
1173.79,1.307311,451929,22272
1177.34,1.313557,456026,22153
1180.9,1.313896,461306,22392
1184.44,1.319214,467657,22424
1187.99,1.319380,473969,22718
1191.52,1.311450,479856,23424
1195.06,1.322298,487372,23204
1199.76,1.313042,497347,24189
1203.29,1.318166,504311,24240
1206.81,1.315101,511507,24760
1210.33,1.309750,519078,25438
1213.84,1.310948,527163,25763
1217.35,1.321835,534208,25461
1220.85,1.322992,540472,25691
1225.51,1.318752,549929,26397
1229.01,1.317990,556888,26778
1232.5,1.323315,562180,26703
1235.98,1.318947,567975,27251
1239.46,1.315499,574815,27799
1242.94,1.319218,582782,27944
1246.41,1.316285,591476,28553
1251.03,1.325153,604016,28569
1254.5,1.316870,612289,29518
1257.96,1.320501,619125,29599
1261.41,1.318562,624551,29992
1264.86,1.321167,629900,30068
1268.31,1.318496,634345,30467
1271.75,1.323511,638574,30318
1276.33,1.324813,642499,30413
1279.76,1.321576,645905,30803
1283.19,1.322582,648307,30846
1286.61,1.325861,650446,30715
1290.03,1.325263,652132,30837
1293.44,1.318448,653907,31410
1296.85,1.326921,655963,30900
1301.39,1.329669,657349,30770
1304.8,1.328046,657558,30895
1308.19,1.324063,658515,31225
1311.58,1.329051,658804,30882
1314.97,1.326775,659011,31054
1318.36,1.325645,658272,31100
1321.73,1.328408,658022,30891
1326.23,1.326975,657870,30986
1329.6,1.325385,656482,31034
1332.97,1.324145,654926,31049
1336.33,1.327396,653727,30761
1339.69,1.329923,652497,30525
1343.04,1.325165,649913,30739
1346.39,1.324343,647671,30691
1349.73,1.324066,645338,30600
1354.18,1.327617,641175,30155
1357.52,1.319937,638376,30559
1360.85,1.321294,635805,30341
1364.17,1.326554,633413,29863
1367.49,1.328198,631026,29638
1370.81,1.321800,628050,29936
1374.12,1.324113,625034,29634
1378.54,1.322613,620272,29510
1381.84,1.320461,616892,29495
1385.14,1.319414,613613,29409
1388.43,1.317271,611526,29454
1391.72,1.325460,610663,28863
1395.01,1.325665,610634,28848
1398.29,1.326694,611700,28830
1402.66,1.328089,614051,28848
1405.93,1.330664,616268,28781
1409.2,1.324852,617795,29241
1412.46,1.330162,618872,28936
1415.72,1.331140,619795,28914
1418.98,1.327311,620495,29203
1422.23,1.327205,621087,29238
1426.56,1.321212,621375,29658
1429.8,1.320430,621616,29723
1433.04,1.327295,622129,29281
1436.27,1.330882,621526,29012
1439.5,1.338814,621113,28468
1442.72,1.332349,620921,28886
1445.94,1.324189,620270,29403
1450.23,1.327744,618860,29097
1453.44,1.329217,617697,28944
1456.64,1.334054,616264,28557
1459.85,1.327022,614413,28936
1463.04,1.332155,612307,28498
1466.24,1.327940,610032,28669
1469.43,1.332602,607345,28238
1473.67,1.329191,603789,28294
1476.85,1.330991,601175,28055
1480.02,1.329306,597737,28003
1483.19,1.328859,594479,27879
1486.36,1.332330,591232,27506
1489.52,1.326946,587853,27690
1492.68,1.332614,583875,27146
1496.89,1.329069,578062,27096
1500.03,1.338367,574159,26343
1503.18,1.332846,570285,26500
1506.32,1.331214,565444,26374
1509.45,1.331857,560571,26108
1512.58,1.329594,555821,26022
1515.71,1.331682,550344,25642
1519.87,1.328637,543983,25524
1522.99,1.329912,538764,25205
1526.1,1.330203,533692,24951
1529.21,1.335858,527902,24361
1532.32,1.337328,521886,24002
1535.42,1.325807,515888,24364
1538.51,1.328471,509987,23938
1541.6,1.330735,503936,23531
1545.72,1.333100,494694,22974
1548.8,1.330231,488378,22831
1551.88,1.333968,481832,22332
1554.95,1.333649,474989,22031
1558.02,1.332797,467818,21741
1561.08,1.333622,460730,21371
1564.15,1.331272,454170,21181
1568.22,1.329810,444181,20785
1571.27,1.326393,436947,20608
1574.32,1.323901,429598,20378
1577.36,1.332366,422039,19633
1580.4,1.328630,414375,19443
1583.43,1.325129,406354,19221
1586.46,1.326636,398475,18783
1590.49,1.317833,388982,18711
1593.51,1.328856,380708,17854
1596.53,1.326570,372727,17572
1599.54,1.312530,365060,17776
1602.55,1.315207,357543,17303
1605.55,1.315863,349495,16888
1608.55,1.317657,341154,16417
1612.54,1.309375,330877,16229
1615.53,1.308032,322904,15887
1618.51,1.326569,315116,14856
1621.49,1.305230,307217,15213
1624.47,1.320002,299481,14334
1627.44,1.318368,292112,14034
1630.41,1.307503,284245,14002
1634.36,1.306995,274079,13517
1637.32,1.307878,266916,13137
1640.27,1.308236,259612,12767
1643.22,1.297841,251804,12683
1646.16,1.319823,244348,11700
1649.1,1.305165,236703,11723
1652.04,1.306375,228171,11269
1655.95,1.309968,215408,10551
1658.88,1.291466,204937,10475
1661.8,1.292700,193395,9857
1664.72,1.267799,179728,9701
1667.63,1.254997,163642,9097
1670.54,1.236884,146312,8480
1673.44,1.207715,128451,7962
1677.31,1.185069,105080,6862
1680.21,1.179554,88906,5880
1683.1,1.158415,75033,5210
1685.99,1.192463,63520,4078
1688.87,1.148479,53714,3816
1691.75,1.157726,45653,3175
1694.62,1.140648,39137,2831
1697.49,1.165937,33776,2305
1701.31,1.169286,28175,1908

File: Column 1_078661_20241121_171605.csv
Method:,Column 1,,
Host Date-Time:,21/11/24 @ 17:16:5,,
Header Version:,1,,
System Temp (C):,34.76,,
Detector Temp (C):,35.78,,
Humidity (%):,1.86,,
Lamp PD:,3804,,
Shift Vector Coefficients:,-10.5391,0.0761263,-0.000134223,,
Pixel to Wavelength Coefficients:,1775.68,-0.916766,-0.000235065,,
Serial Number:,5510004,,
Scan Config Name:,Column 1,,
Scan Config Type:,Slew,,
Section 1,,
Start wavelength (nm):,900,,
End wavelength (nm):,1700,,
Pattern Pixel Width (nm):,   7.03,,,,
Exposure (ms):,  0.635,,,,
Digital Resolution:,228,,
Num Repeats:,6,,
PGA Gain:,64,,
Total Measurement Time in sec:,  2.726,,
Wavelength (nm),Absorbance (AU),Reference Signal (unitless),Sample Signal (unitless)
901.51,1.300090,108485,5436
905.376,1.295360,121306,6145
909.237,1.310311,131909,6456
913.095,1.319350,143299,6869
916.948,1.313325,156982,7630
922.079,1.329963,179937,8417
925.923,1.330894,200504,9359
929.762,1.318624,222660,10691
933.597,1.317408,244426,11769
937.427,1.310564,263972,12912
941.254,1.318488,281845,13537
945.076,1.313014,297271,14459
950.165,1.320887,315605,15075
953.978,1.307390,328029,16163
957.786,1.296904,340470,17186
961.59,1.296270,352317,17810
965.389,1.305861,363056,17952
969.185,1.311301,373162,18222
972.976,1.301998,382632,19089
976.763,1.302322,391202,19502
981.806,1.298401,400190,20131
985.583,1.305554,406088,20094
989.355,1.301710,410162,20476
993.124,1.299904,412868,20697
996.888,1.300865,414263,20721
1000.65,1.310922,415476,20306
1004.4,1.301929,415479,20731
1009.41,1.310865,414358,20254
1013.15,1.309080,412923,20267
1016.89,1.312110,411526,20058
1020.63,1.309051,409066,20079
1024.36,1.299131,406777,20428
1028.09,1.305463,404427,20016
1031.82,1.308827,401911,19738
1036.78,1.312551,398410,19399
1040.49,1.307372,396204,19523
1044.2,1.300673,394236,19728
1047.91,1.305867,392042,19385
1051.61,1.322617,389823,18546
1055.31,1.311943,388234,18930
1059,1.301432,387599,19362
1063.92,1.310279,386688,18927
1067.61,1.301410,386598,19313
1071.29,1.314323,387377,18785
1074.96,1.314765,388536,18822
1078.63,1.313294,389855,18950
1082.3,1.307579,391215,19268
1085.96,1.312779,393215,19136
1090.84,1.315732,396270,19154
1094.49,1.323148,398760,18948
1098.14,1.311628,400987,19566
1101.79,1.317905,403477,19405
1105.43,1.306038,406116,20073
1109.06,1.311314,407701,19908
1112.7,1.315421,409859,19825
1117.53,1.312265,412494,20098
1121.15,1.306665,414909,20478
1124.77,1.313166,416559,20254
1128.38,1.320330,418532,20017
1131.99,1.311641,419956,20491
1135.6,1.319175,421946,20234
1139.2,1.314453,423881,20549
1143.99,1.314681,426786,20679
1147.58,1.315323,428617,20737
1151.17,1.311045,431169,21067
1154.75,1.313198,433579,21080
1158.33,1.314480,436264,21148
1161.91,1.304876,439132,21763
1165.48,1.310006,442389,21667
1169.04,1.314557,446101,21621
1173.79,1.321200,451929,21571
1177.34,1.319976,456026,21828
1180.9,1.317636,461306,22200
1184.44,1.317706,467657,22502
1187.99,1.310524,473969,23186
1191.52,1.319043,479856,23018
1195.06,1.311904,487372,23766
1199.76,1.316503,497347,23997
1203.29,1.318023,504311,24248
1206.81,1.315733,511507,24724
1210.33,1.312593,519078,25272
1213.84,1.313298,527163,25624
1217.35,1.314864,534208,25873
1220.85,1.321625,540472,25772
1225.51,1.315980,549929,26566
1229.01,1.320723,556888,26610
1232.5,1.320172,562180,26897
1235.98,1.318103,567975,27304
1239.46,1.315015,574815,27830
1242.94,1.311699,582782,28432
1246.41,1.318298,591476,28421
1251.03,1.317843,604016,29054
1254.5,1.317105,612289,29502
1257.96,1.314527,619125,30009
1261.41,1.320769,624551,29840
1264.86,1.320200,629900,30135
1268.31,1.320783,634345,30307
1271.75,1.321196,638574,30480
1276.33,1.325185,642499,30387
1279.76,1.322663,645905,30726
1283.19,1.320209,648307,31015
1286.61,1.326738,650446,30653
1290.03,1.321785,652132,31085
1293.44,1.322825,653907,31095
1296.85,1.324161,655963,31097
1301.39,1.326659,657349,30984
1304.8,1.320438,657558,31441
1308.19,1.328326,658515,30920
1311.58,1.326499,658804,31064
1314.97,1.327125,659011,31029
1318.36,1.324320,658272,31195
1321.73,1.327341,658022,30967
1326.23,1.323999,657870,31199
1329.6,1.329477,656482,30743
1332.97,1.327642,654926,30800
1336.33,1.321813,653727,31159
1339.69,1.329738,652497,30538
1343.04,1.321311,649913,31013
1346.39,1.324683,647671,30667
1349.73,1.324833,645338,30546
1354.18,1.331073,641175,29916
1357.52,1.328404,638376,29969
1360.85,1.325032,635805,30081
1364.17,1.323034,633413,30106
1367.49,1.327979,631026,29653
1370.81,1.326131,628050,29639
1374.12,1.320625,625034,29873
1378.54,1.321276,620272,29601
1381.84,1.320947,616892,29462
1385.14,1.322244,613613,29218
1388.43,1.320809,611526,29215
1391.72,1.322730,610663,29045
1395.01,1.317360,610634,29405
1398.29,1.322198,611700,29130
1402.66,1.325208,614051,29040
1405.93,1.327117,616268,29017
1409.2,1.318966,617795,29640
1412.46,1.328634,618872,29038
1415.72,1.321162,619795,29586
1418.98,1.331210,620495,28942
1422.23,1.323345,621087,29499
1426.56,1.325169,621375,29389
1429.8,1.328854,621616,29152
1433.04,1.324677,622129,29458
1436.27,1.330478,621526,29039
1439.5,1.328085,621113,29180
1442.72,1.330294,620921,29023
1445.94,1.325580,620270,29309
1450.23,1.335576,618860,28577
1453.44,1.327585,617697,29053
1456.64,1.332566,616264,28655
1459.85,1.329913,614413,28744
1463.04,1.328845,612307,28716
1466.24,1.329412,610032,28572
1469.43,1.325781,607345,28685
1473.67,1.335312,603789,27898
1476.85,1.329692,601175,28139
1480.02,1.325845,597737,28227
1483.19,1.330482,594479,27775
1486.36,1.329608,591232,27679
1489.52,1.335387,587853,27157
1492.68,1.331208,583875,27234
1496.89,1.332658,578062,26873
1500.03,1.332228,574159,26718
1503.18,1.330672,570285,26633
1506.32,1.330227,565444,26434
1509.45,1.333925,560571,25984
1512.58,1.335053,555821,25697
1515.71,1.332937,550344,25568
1519.87,1.331350,543983,25365
1522.99,1.334171,538764,24959
1526.1,1.334207,533692,24722
1529.21,1.329066,527902,24745
1532.32,1.332846,521886,24251
1535.42,1.326663,515888,24316
1538.51,1.334298,509987,23619
1541.6,1.328893,503936,23631
1545.72,1.333251,494694,22966
1548.8,1.329718,488378,22858
1551.88,1.334182,481832,22321
1554.95,1.326358,474989,22404
1558.02,1.335503,467818,21606
1561.08,1.333906,460730,21357
1564.15,1.333616,454170,21067
1568.22,1.337696,444181,20411
1571.27,1.335185,436947,20195
1574.32,1.331772,429598,20012
1577.36,1.334784,422039,19524
1580.4,1.332940,414375,19251
1583.43,1.324293,406354,19258
1586.46,1.324192,398475,18889
1590.49,1.322406,388982,18515
1593.51,1.319353,380708,18249
1596.53,1.316577,372727,17981
1599.54,1.322190,365060,17385
1602.55,1.322930,357543,16998
1605.55,1.324092,349495,16571
1608.55,1.319300,341154,16355
1612.54,1.324681,330877,15667
1615.53,1.311876,322904,15747
1618.51,1.318660,315116,15129
1621.49,1.321400,307217,14657
1624.47,1.316952,299481,14435
1627.44,1.314732,292112,14152
1630.41,1.319484,284245,13621
1634.36,1.317598,274079,13191
1637.32,1.318453,266916,12821
1640.27,1.329677,259612,12152
1643.22,1.304153,251804,12500
1646.16,1.307310,244348,12042
1649.1,1.313468,236703,11501
1652.04,1.304606,228171,11315
1655.95,1.287470,215408,11112
1658.88,1.296428,204937,10356
1661.8,1.274748,193395,10273
1664.72,1.266280,179728,9735
1667.63,1.247894,163642,9247
1670.54,1.236987,146312,8478
1673.44,1.214200,128451,7844
1677.31,1.200859,105080,6617
1680.21,1.137758,88906,6474
1683.1,1.157249,75033,5224
1685.99,1.160248,63520,4392
1688.87,1.145756,53714,3840
1691.75,1.113050,45653,3519
1694.62,1.150892,39137,2765
1697.49,1.136263,33776,2468
1701.31,1.127438,28175,2101