Folder: textile_sorting_NIRSCAN_/ML/samples/unknown (part 82)

File: Column 1_078577_20241121_170932.csv
Method:,Column 1,,
Host Date-Time:,21/11/24 @ 17:9:32,,
Header Version:,1,,
System Temp (C):,36.36,,
Detector Temp (C):,34.63,,
Humidity (%):,1.27,,
Lamp PD:,3798,,
Shift Vector Coefficients:,-10.5391,0.0761263,-0.000134223,,
Pixel to Wavelength Coefficients:,1775.68,-0.916766,-0.000235065,,
Serial Number:,5510004,,
Scan Config Name:,Column 1,,
Scan Config Type:,Slew,,
Section 1,,
Start wavelength (nm):,900,,
End wavelength (nm):,1700,,
Pattern Pixel Width (nm):,   7.03,,,,
Exposure (ms):,  0.635,,,,
Digital Resolution:,228,,
Num Repeats:,6,,
PGA Gain:,64,,
Total Measurement Time in sec:,  2.727,,
Wavelength (nm),Absorbance (AU),Reference Signal (unitless),Sample Signal (unitless)
901.51,1.284938,108485,5629
905.376,1.310242,121306,5938
909.237,1.282749,131909,6879
913.095,1.305474,143299,7092
916.948,1.307502,156982,7733
922.079,1.332966,179937,8359
925.923,1.311119,200504,9795
929.762,1.322009,222660,10608
933.597,1.326733,244426,11519
937.427,1.326075,263972,12459
941.254,1.318680,281845,13531
945.076,1.311904,297271,14496
950.165,1.311482,315605,15405
953.978,1.304151,328029,16284
957.786,1.307857,340470,16758
961.59,1.312669,352317,17150
965.389,1.323714,363056,17229
969.185,1.300916,373162,18663
972.976,1.296864,382632,19316
976.763,1.309938,391202,19163
981.806,1.309567,400190,19620
985.583,1.303376,406088,20195
989.355,1.309025,410162,20134
993.124,1.302239,412868,20586
996.888,1.294933,414263,21006
1000.65,1.301947,415476,20730
1004.4,1.300736,415479,20788
1009.41,1.305961,414358,20484
1013.15,1.305643,412923,20428
1016.89,1.297295,411526,20754
1020.63,1.300294,409066,20488
1024.36,1.303704,406777,20214
1028.09,1.307529,404427,19921
1031.82,1.311852,401911,19601
1036.78,1.298519,398410,20036
1040.49,1.308508,396204,19472
1044.2,1.310694,394236,19278
1047.91,1.297985,392042,19740
1051.61,1.304142,389823,19352
1055.31,1.305724,388234,19203
1059,1.299887,387599,19431
1063.92,1.309981,386688,18940
1067.61,1.310545,386598,18911
1071.29,1.302824,387377,19289
1074.96,1.314235,388536,18845
1078.63,1.320830,389855,18624
1082.3,1.308979,391215,19206
1085.96,1.302906,393215,19576
1090.84,1.306800,396270,19552
1094.49,1.311770,398760,19451
1098.14,1.313073,400987,19501
1101.79,1.311595,403477,19689
1105.43,1.317592,406116,19546
1109.06,1.313764,407701,19796
1112.7,1.312409,409859,19963
1117.53,1.310862,412494,20163
1121.15,1.318489,414909,19928
1124.77,1.307817,416559,20505
1128.38,1.313207,418532,20348
1131.99,1.316479,419956,20264
1135.6,1.318253,421946,20277
1139.2,1.308409,423881,20837
1143.99,1.311312,426786,20840
1147.58,1.313860,428617,20807
1151.17,1.314107,431169,20919
1154.75,1.307081,433579,21379
1158.33,1.311329,436264,21302
1161.91,1.309995,439132,21508
1165.48,1.305281,442389,21904
1169.04,1.317318,446101,21484
1173.79,1.313201,451929,21972
1177.34,1.311464,456026,22260
1180.9,1.305883,461306,22809
1184.44,1.316223,467657,22579
1187.99,1.308786,473969,23279
1191.52,1.309175,479856,23547
1195.06,1.306637,487372,24056
1199.76,1.315581,497347,24048
1203.29,1.319242,504311,24180
1206.81,1.313525,511507,24850
1210.33,1.312937,519078,25252
1213.84,1.320217,527163,25219
1217.35,1.320643,534208,25531
1220.85,1.321019,540472,25808
1225.51,1.321492,549929,26231
1229.01,1.315903,556888,26907
1232.5,1.318608,562180,26994
1235.98,1.319537,567975,27214
1239.46,1.317315,574815,27683
1242.94,1.321055,582782,27826
1246.41,1.314782,591476,28652
1251.03,1.316708,604016,29130
1254.5,1.325413,612289,28943
1257.96,1.321574,619125,29526
1261.41,1.325040,624551,29548
1264.86,1.322744,629900,29959
1268.31,1.324886,634345,30022
1271.75,1.323210,638574,30339
1276.33,1.318983,642499,30824
1279.76,1.321097,645905,30837
1283.19,1.322300,648307,30866
1286.61,1.324139,650446,30837
1290.03,1.327013,652132,30713
1293.44,1.328208,653907,30712
1296.85,1.326064,655963,30961
1301.39,1.328288,657349,30868
1304.8,1.328454,657558,30866
1308.19,1.321290,658515,31425
1311.58,1.327254,658804,31010
1314.97,1.323404,659011,31296
1318.36,1.327338,658272,30979
1321.73,1.329394,658022,30821
1326.23,1.326344,657870,31031
1329.6,1.324714,656482,31082
1332.97,1.322943,654926,31135
1336.33,1.324567,653727,30962
1339.69,1.324423,652497,30914
1343.04,1.332417,649913,30230
1346.39,1.324768,647671,30661
1349.73,1.327314,645338,30372
1354.18,1.322791,641175,30492
1357.52,1.321047,638376,30481
1360.85,1.319580,635805,30461
1364.17,1.325783,633413,29916
1367.49,1.318963,631026,30275
1370.81,1.320670,628050,30014
1374.12,1.318450,625034,30023
1378.54,1.321672,620272,29574
1381.84,1.321404,616892,29431
1385.14,1.319001,613613,29437
1388.43,1.324511,611526,28967
1391.72,1.314525,610663,29599
1395.01,1.323668,610634,28981
1398.29,1.320591,611700,29238
1402.66,1.322034,614051,29253
1405.93,1.324417,616268,29198
1409.2,1.327549,617795,29060
1412.46,1.318947,618872,29693
1415.72,1.326806,619795,29204
1418.98,1.325293,620495,29339
1422.23,1.321626,621087,29616
1426.56,1.325997,621375,29333
1429.8,1.329525,621616,29107
1433.04,1.329555,622129,29129
1436.27,1.332036,621526,28935
1439.5,1.327832,621113,29197
1442.72,1.332394,620921,28883
1445.94,1.324248,620270,29399
1450.23,1.327207,618860,29133
1453.44,1.321057,617697,29493
1456.64,1.330782,616264,28773
1459.85,1.332839,614413,28551
1463.04,1.329375,612307,28681
1466.24,1.333720,610032,28290
1469.43,1.324586,607345,28764
1473.67,1.326345,603789,28480
1476.85,1.326080,601175,28374
1480.02,1.331607,597737,27855
1483.19,1.329748,594479,27822
1486.36,1.324879,591232,27982
1489.52,1.330631,587853,27456
1492.68,1.329267,583875,27356
1496.89,1.329887,578062,27045
1500.03,1.326416,574159,27078
1503.18,1.326954,570285,26862
1506.32,1.335317,565444,26126
1509.45,1.331924,560571,26104
1512.58,1.326766,555821,26192
1515.71,1.333737,550344,25521
1519.87,1.332379,543983,25305
1522.99,1.336002,538764,24854
1526.1,1.330464,533692,24936
1529.21,1.337430,527902,24273
1532.32,1.327471,521886,24553
1535.42,1.330394,515888,24108
1538.51,1.335605,509987,23548
1541.6,1.327169,503936,23725
1545.72,1.328849,494694,23200
1548.8,1.330726,488378,22805
1551.88,1.326755,481832,22706
1554.95,1.332350,474989,22097
1558.02,1.332039,467818,21779
1561.08,1.331635,460730,21469
1564.15,1.330555,454170,21216
1568.22,1.330898,444181,20733
1571.27,1.327300,436947,20565
1574.32,1.333729,429598,19922
1577.36,1.330292,422039,19727
1580.4,1.331274,414375,19325
1583.43,1.318358,406354,19523
1586.46,1.320734,398475,19040
1590.49,1.323627,388982,18463
1593.51,1.322410,380708,18121
1596.53,1.313712,372727,18100
1599.54,1.323942,365060,17315
1602.55,1.320535,357543,17092
1605.55,1.329101,349495,16381
1608.55,1.318557,341154,16383
1612.54,1.328048,330877,15546
1615.53,1.315782,322904,15606
1618.51,1.317743,315116,15161
1621.49,1.324821,307217,14542
1624.47,1.310354,299481,14656
1627.44,1.322097,292112,13914
1630.41,1.310897,284245,13893
1634.36,1.317993,274079,13179
1637.32,1.316054,266916,12892
1640.27,1.314334,259612,12589
1643.22,1.307361,251804,12408
1646.16,1.301827,244348,12195
1649.1,1.299278,236703,11883
1652.04,1.307185,228171,11248
1655.95,1.297312,215408,10863
1658.88,1.278961,204937,10781
1661.8,1.294113,193395,9825
1664.72,1.274158,179728,9560
1667.63,1.265580,163642,8878
1670.54,1.238989,146312,8439
1673.44,1.210341,128451,7914
1677.31,1.189970,105080,6785
1680.21,1.143974,88906,6382
1683.1,1.155921,75033,5240
1685.99,1.177804,63520,4218
1688.87,1.121561,53714,4060
1691.75,1.145852,45653,3263
1694.62,1.144345,39137,2807
1697.49,1.161066,33776,2331
1701.31,1.097874,28175,2249

File: Column 1_078581_20241121_170944.csv
Method:,Column 1,,
Host Date-Time:,21/11/24 @ 17:9:44,,
Header Version:,1,,
System Temp (C):,36.51,,
Detector Temp (C):,34.6,,
Humidity (%):,1.27,,
Lamp PD:,3798,,
Shift Vector Coefficients:,-10.5391,0.0761263,-0.000134223,,
Pixel to Wavelength Coefficients:,1775.68,-0.916766,-0.000235065,,
Serial Number:,5510004,,
Scan Config Name:,Column 1,,
Scan Config Type:,Slew,,
Section 1,,
Start wavelength (nm):,900,,
End wavelength (nm):,1700,,
Pattern Pixel Width (nm):,   7.03,,,,
Exposure (ms):,  0.635,,,,
Digital Resolution:,228,,
Num Repeats:,6,,
PGA Gain:,64,,
Total Measurement Time in sec:,  2.725,,
Wavelength (nm),Absorbance (AU),Reference Signal (unitless),Sample Signal (unitless)
901.51,1.303378,108485,5395
905.376,1.320305,121306,5802
909.237,1.342196,131909,5999
913.095,1.318528,143299,6882
916.948,1.337975,156982,7209
922.079,1.319261,179937,8627
925.923,1.332940,200504,9315
929.762,1.320089,222660,10655
933.597,1.309908,244426,11974
937.427,1.327541,263972,12417
941.254,1.304503,281845,13980
945.076,1.319948,297271,14230
950.165,1.306883,315605,15569
953.978,1.313642,328029,15932
957.786,1.316362,340470,16433
961.59,1.308210,352317,17327
965.389,1.313918,363056,17622
969.185,1.305125,373162,18483
972.976,1.307401,382632,18853
976.763,1.309575,391202,19179
981.806,1.306897,400190,19741
985.583,1.306766,406088,20038
989.355,1.301795,410162,20472
993.124,1.307610,412868,20333
996.888,1.305416,414263,20505
1000.65,1.300441,415476,20802
1004.4,1.306986,415479,20491
1009.41,1.305749,414358,20494
1013.15,1.300739,412923,20660
1016.89,1.310942,411526,20112
1020.63,1.302547,409066,20382
1024.36,1.310460,406777,19902
1028.09,1.310899,404427,19767
1031.82,1.304339,401911,19943
1036.78,1.297005,398410,20106
1040.49,1.302550,396204,19741
1044.2,1.304188,394236,19569
1047.91,1.304614,392042,19441
1051.61,1.307227,389823,19215
1055.31,1.308971,388234,19060
1059,1.305783,387599,19169
1063.92,1.299000,386688,19425
1067.61,1.307501,386598,19044
1071.29,1.315179,387377,18748
1074.96,1.311456,388536,18966
1078.63,1.310006,389855,19094
1082.3,1.303228,391215,19462
1085.96,1.309906,393215,19263
1090.84,1.310234,396270,19398
1094.49,1.308677,398760,19590
1098.14,1.308488,400987,19708
1101.79,1.309944,403477,19764
1105.43,1.319619,406116,19455
1109.06,1.317510,407701,19626
1112.7,1.310390,409859,20056
1117.53,1.317876,412494,19840
1121.15,1.321639,414909,19784
1124.77,1.314454,416559,20194
1128.38,1.315604,418532,20236
1131.99,1.319511,419956,20123
1135.6,1.314266,421946,20464
1139.2,1.316317,423881,20461
1143.99,1.314366,426786,20694
1147.58,1.324295,428617,20313
1151.17,1.312490,431169,20997
1154.75,1.310999,433579,21187
1158.33,1.315117,436264,21117
1161.91,1.316608,439132,21183
1165.48,1.310086,442389,21663
1169.04,1.314497,446101,21624
1173.79,1.317052,451929,21778
1177.34,1.314185,456026,22121
1180.9,1.313857,461306,22394
1184.44,1.313634,467657,22714
1187.99,1.311556,473969,23131
1191.52,1.320839,479856,22923
1195.06,1.320244,487372,23314
1199.76,1.315238,497347,24067
1203.29,1.324282,504311,23901
1206.81,1.318641,511507,24559
1210.33,1.314850,519078,25141
1213.84,1.323814,527163,25011
1217.35,1.313238,534208,25970
1220.85,1.321305,540472,25791
1225.51,1.318999,549929,26382
1229.01,1.325449,556888,26322
1232.5,1.317772,562180,27046
1235.98,1.319984,567975,27186
1239.46,1.317064,574815,27699
1242.94,1.323011,582782,27701
1246.41,1.317626,591476,28465
1251.03,1.320873,604016,28852
1254.5,1.318993,612289,29374
1257.96,1.322693,619125,29450
1261.41,1.327767,624551,29363
1264.86,1.326033,629900,29733
1268.31,1.323687,634345,30105
1271.75,1.323468,638574,30321
1276.33,1.327233,642499,30244
1279.76,1.321717,645905,30793
1283.19,1.324119,648307,30737
1286.61,1.319419,650446,31174
1290.03,1.322610,652132,31026
1293.44,1.325543,653907,30901
1296.85,1.326149,655963,30955
1301.39,1.328288,657349,30868
1304.8,1.326460,657558,31008
1308.19,1.324272,658515,31210
1311.58,1.330643,658804,30769
1314.97,1.328892,659011,30903
1318.36,1.321780,658272,31378
1321.73,1.334183,658022,30483
1326.23,1.324027,657870,31197
1329.6,1.322150,656482,31266
1332.97,1.335481,654926,30249
1336.33,1.325283,653727,30911
1339.69,1.327002,652497,30731
1343.04,1.325095,649913,30744
1346.39,1.330801,647671,30238
1349.73,1.322649,645338,30700
1354.18,1.323803,641175,30421
1357.52,1.321775,638376,30430
1360.85,1.323001,635805,30222
1364.17,1.327005,633413,29832
1367.49,1.323447,631026,29964
1370.81,1.324624,628050,29742
1374.12,1.331474,625034,29136
1378.54,1.322304,620272,29531
1381.84,1.322527,616892,29355
1385.14,1.324270,613613,29082
1388.43,1.325863,611526,28877
1391.72,1.321819,610663,29106
1395.01,1.326358,610634,28802
1398.29,1.331404,611700,28519
1402.66,1.323134,614051,29179
1405.93,1.319962,616268,29499
1409.2,1.329481,617795,28931
1412.46,1.328365,618872,29056
1415.72,1.327520,619795,29156
1418.98,1.333768,620495,28772
1422.23,1.333338,621087,28828
1426.56,1.325953,621375,29336
1429.8,1.329644,621616,29099
1433.04,1.329823,622129,29111
1436.27,1.327720,621526,29224
1439.5,1.332513,621113,28884
1442.72,1.330309,620921,29022
1445.94,1.332706,620270,28832
1450.23,1.333514,618860,28713
1453.44,1.333105,617697,28686
1456.64,1.330299,616264,28805
1459.85,1.335203,614413,28396
1463.04,1.337614,612307,28142
1466.24,1.331851,610032,28412
1469.43,1.327814,607345,28551
1473.67,1.331114,603789,28169
1476.85,1.330573,601175,28082
1480.02,1.330113,597737,27951
1483.19,1.331422,594479,27715
1486.36,1.329200,591232,27705
1489.52,1.330378,587853,27472
1492.68,1.334892,583875,27004
1496.89,1.333516,578062,26820
1500.03,1.335786,574159,26500
1503.18,1.331145,570285,26604
1506.32,1.332302,565444,26308
1509.45,1.335599,560571,25884
1512.58,1.338020,555821,25522
1515.71,1.337188,550344,25319
1519.87,1.330666,543983,25405
1522.99,1.337543,538764,24766
1526.1,1.334348,533692,24714
1529.21,1.328014,527902,24805
1532.32,1.325882,521886,24643
1535.42,1.329387,515888,24164
1538.51,1.327873,509987,23971
1541.6,1.331714,503936,23478
1545.72,1.327839,494694,23254
1548.8,1.334283,488378,22619
1551.88,1.335468,481832,22255
1554.95,1.326397,474989,22402
1558.02,1.337699,467818,21497
1561.08,1.326067,460730,21746
1564.15,1.335144,454170,20993
1568.22,1.330061,444181,20773
1571.27,1.327385,436947,20561
1574.32,1.327990,429598,20187
1577.36,1.328578,422039,19805
1580.4,1.332106,414375,19288
1583.43,1.325807,406354,19191
1586.46,1.332268,398475,18541
1590.49,1.324852,388982,18411
1593.51,1.329148,380708,17842
1596.53,1.313568,372727,18106
1599.54,1.315890,365060,17639
1602.55,1.306510,357543,17653
1605.55,1.313606,349495,16976
1608.55,1.322124,341154,16249
1612.54,1.317860,330877,15915
1615.53,1.312787,322904,15714
1618.51,1.305095,315116,15609
1621.49,1.319862,307217,14709
1624.47,1.328322,299481,14062
1627.44,1.325765,292112,13797
1630.41,1.319006,284245,13636
1634.36,1.307253,274079,13509
1637.32,1.309767,266916,13080
1640.27,1.321709,259612,12377
1643.22,1.318062,251804,12106
1646.16,1.301934,244348,12192
1649.1,1.315778,236703,11440
1652.04,1.309741,228171,11182
1655.95,1.308776,215408,10580
1658.88,1.307815,204937,10088
1661.8,1.286358,193395,10002
1664.72,1.259200,179728,9895
1667.63,1.237041,163642,9481
1670.54,1.222974,146312,8756
1673.44,1.219044,128451,7757
1677.31,1.199090,105080,6644
1680.21,1.186328,88906,5789
1683.1,1.178634,75033,4973
1685.99,1.186015,63520,4139
1688.87,1.173182,53714,3605
1691.75,1.130810,45653,3378
1694.62,1.222074,39137,2347
1697.49,1.164245,33776,2314
1701.31,1.290297,28175,1444

File: Column 1_078583_20241121_170950.csv
Method:,Column 1,,
Host Date-Time:,21/11/24 @ 17:9:50,,
Header Version:,1,,
System Temp (C):,36.59,,
Detector Temp (C):,34.64,,
Humidity (%):,1.27,,
Lamp PD:,3799,,
Shift Vector Coefficients:,-10.5391,0.0761263,-0.000134223,,
Pixel to Wavelength Coefficients:,1775.68,-0.916766,-0.000235065,,
Serial Number:,5510004,,
Scan Config Name:,Column 1,,
Scan Config Type:,Slew,,
Section 1,,
Start wavelength (nm):,900,,
End wavelength (nm):,1700,,
Pattern Pixel Width (nm):,   7.03,,,,
Exposure (ms):,  0.635,,,,
Digital Resolution:,228,,
Num Repeats:,6,,
PGA Gain:,64,,
Total Measurement Time in sec:,  2.734,,
Wavelength (nm),Absorbance (AU),Reference Signal (unitless),Sample Signal (unitless)
901.51,1.311012,108485,5301
905.376,1.344626,121306,5486
909.237,1.318322,131909,6338
913.095,1.326425,143299,6758
916.948,1.325739,156982,7415
922.079,1.337038,179937,8281
925.923,1.322302,200504,9546
929.762,1.328027,222660,10462
933.597,1.330824,244426,11411
937.427,1.329083,263972,12373
941.254,1.319291,281845,13512
945.076,1.313525,297271,14442
950.165,1.314623,315605,15294
953.978,1.314788,328029,15890
957.786,1.307649,340470,16766
961.59,1.306484,352317,17396
965.389,1.308384,363056,17848
969.185,1.306184,373162,18438
972.976,1.303959,382632,19003
976.763,1.291197,391202,20008
981.806,1.305667,400190,19797
985.583,1.303699,406088,20180
989.355,1.301053,410162,20507
993.124,1.307183,412868,20353
996.888,1.301957,414263,20669
1000.65,1.294840,415476,21072
1004.4,1.300987,415479,20776
1009.41,1.303382,414358,20606
1013.15,1.305792,412923,20421
1016.89,1.313085,411526,20013
1020.63,1.299426,409066,20529
1024.36,1.312297,406777,19818
1028.09,1.312374,404427,19700
1031.82,1.301691,401911,20065
1036.78,1.303950,398410,19787
1040.49,1.304711,396204,19643
1044.2,1.305699,394236,19501
1047.91,1.303253,392042,19502
1051.61,1.308064,389823,19178
1055.31,1.311324,388234,18957
1059,1.308123,387599,19066
1063.92,1.299783,386688,19390
1067.61,1.304071,386598,19195
1071.29,1.306601,387377,19122
1074.96,1.308557,388536,19093
1078.63,1.309393,389855,19121
1082.3,1.309997,391215,19161
1085.96,1.318306,393215,18894
1090.84,1.312772,396270,19285
1094.49,1.303257,398760,19836
1098.14,1.325017,400987,18972
1101.79,1.308452,403477,19832
1105.43,1.303944,406116,20170
1109.06,1.306045,407701,20151
1112.7,1.306961,409859,20215
1117.53,1.315344,412494,19956
1121.15,1.310157,414909,20314
1124.77,1.318234,416559,20019
1128.38,1.312205,418532,20395
1131.99,1.307905,419956,20668
1135.6,1.319282,421946,20229
1139.2,1.307701,423881,20871
1143.99,1.319135,426786,20468
1147.58,1.311259,428617,20932
1151.17,1.319980,431169,20638
1154.75,1.310036,433579,21234
1158.33,1.315549,436264,21096
1161.91,1.309208,439132,21547
1165.48,1.313608,442389,21488
1169.04,1.309843,446101,21857
1173.79,1.315798,451929,21841
1177.34,1.313204,456026,22171
1180.9,1.313257,461306,22425
1184.44,1.313271,467657,22733
1187.99,1.305570,473969,23452
1191.52,1.314595,479856,23255
1195.06,1.319183,487372,23371
1199.76,1.320210,497347,23793
1203.29,1.322162,504311,24018
1206.81,1.317458,511507,24626
1210.33,1.320904,519078,24793
1213.84,1.312993,527163,25642
1217.35,1.321409,534208,25486
1220.85,1.320447,540472,25842
1225.51,1.317061,549929,26500
1229.01,1.317131,556888,26831
1232.5,1.318544,562180,26998
1235.98,1.313499,567975,27595
1239.46,1.317660,574815,27661
1242.94,1.316985,582782,28088
1246.41,1.317473,591476,28475
1251.03,1.316484,604016,29145
1254.5,1.324124,612289,29029
1257.96,1.320413,619125,29605
1261.41,1.322768,624551,29703
1264.86,1.322657,629900,29965
1268.31,1.320382,634345,30335
1271.75,1.324917,638574,30220
1276.33,1.322819,642499,30553
1279.76,1.323582,645905,30661
1283.19,1.327168,648307,30522
1286.61,1.324210,650446,30832
1290.03,1.322120,652132,31061
1293.44,1.322770,653907,31099
1296.85,1.322127,655963,31243
1301.39,1.327992,657349,30889
1304.8,1.326194,657558,31027
1308.19,1.324328,658515,31206
1311.58,1.324393,658804,31215
1314.97,1.329975,659011,30826
1318.36,1.330560,658272,30750
1321.73,1.327229,658022,30975
1326.23,1.327017,657870,30983
1329.6,1.325273,656482,31042
1332.97,1.332405,654926,30464
1336.33,1.323895,653727,31010
1339.69,1.324437,652497,30913
1343.04,1.326566,649913,30640
1346.39,1.326073,647671,30569
1349.73,1.320997,645338,30817
1354.18,1.326941,641175,30202
1357.52,1.322503,638376,30379
1360.85,1.325638,635805,30039
1364.17,1.321349,633413,30223
1367.49,1.324144,631026,29916
1370.81,1.331008,628050,29308
1374.12,1.328769,625034,29318
1378.54,1.320807,620272,29633
1381.84,1.321301,616892,29438
1385.14,1.319547,613613,29400
1388.43,1.321374,611526,29177
1391.72,1.321446,610663,29131
1395.01,1.318439,610634,29332
1398.29,1.325701,611700,28896
1402.66,1.323998,614051,29121
1405.93,1.320404,616268,29469
1409.2,1.327295,617795,29077
1412.46,1.329637,618872,28971
1415.72,1.328997,619795,29057
1418.98,1.334993,620495,28691
1422.23,1.330081,621087,29045
1426.56,1.332862,621375,28873
1429.8,1.326373,621616,29319
1433.04,1.330749,622129,29049
1436.27,1.331736,621526,28955
1439.5,1.336622,621113,28612
1442.72,1.327996,620921,29177
1445.94,1.332992,620270,28813
1450.23,1.327431,618860,29118
1453.44,1.325155,617697,29216
1456.64,1.334602,616264,28521
1459.85,1.331230,614413,28657
1463.04,1.330846,612307,28584
1466.24,1.329686,610032,28554
1469.43,1.325085,607345,28731
1473.67,1.329237,603789,28291
1476.85,1.336004,601175,27733
1480.02,1.328005,597737,28087
1483.19,1.331625,594479,27702
1486.36,1.331794,591232,27540
1489.52,1.331883,587853,27377
1492.68,1.330555,583875,27275
1496.89,1.332125,578062,26906
1500.03,1.338664,574159,26325
1503.18,1.333141,570285,26482
1506.32,1.328391,565444,26546
1509.45,1.329899,560571,26226
1512.58,1.320217,555821,26590
1515.71,1.331124,550344,25675
1519.87,1.328381,543983,25539
1522.99,1.323362,538764,25588
1526.1,1.334102,533692,24728
1529.21,1.336358,527902,24333
1532.32,1.331630,521886,24319
1535.42,1.338504,515888,23662
1538.51,1.331110,509987,23793
1541.6,1.327957,503936,23682
1545.72,1.331873,494694,23039
1548.8,1.328257,488378,22935
1551.88,1.332086,481832,22429
1554.95,1.324192,474989,22516
1558.02,1.331800,467818,21791
1561.08,1.321202,460730,21991
1564.15,1.328941,454170,21295
1568.22,1.332913,444181,20637
1571.27,1.331736,436947,20356
1574.32,1.326723,429598,20246
1577.36,1.328687,422039,19800
1580.4,1.330017,414375,19381
1583.43,1.327848,406354,19101
1586.46,1.324975,398475,18855
1590.49,1.331125,388982,18147
1593.51,1.327496,380708,17910
1596.53,1.320483,372727,17820
1599.54,1.315669,365060,17648
1602.55,1.328226,357543,16792
1605.55,1.323385,349495,16598
1608.55,1.319911,341154,16332
1612.54,1.316470,330877,15966
1615.53,1.319190,322904,15484
1618.51,1.310133,315116,15429
1621.49,1.325120,307217,14532
1624.47,1.292559,299481,15269
1627.44,1.312436,292112,14227
1630.41,1.326523,284245,13402
1634.36,1.309703,274079,13433
1637.32,1.308077,266916,13131
1640.27,1.310248,259612,12708
1643.22,1.317094,251804,12133
1646.16,1.307022,244348,12050
1649.1,1.313355,236703,11504
1652.04,1.312507,228171,11111
1655.95,1.279492,215408,11318
1658.88,1.297310,204937,10335
1661.8,1.282812,193395,10084
1664.72,1.263789,179728,9791
1667.63,1.249965,163642,9203
1670.54,1.240897,146312,8402
1673.44,1.216086,128451,7810
1677.31,1.157246,105080,7316
1680.21,1.198114,88906,5634
1683.1,1.169474,75033,5079
1685.99,1.172584,63520,4269
1688.87,1.156056,53714,3750
1691.75,1.097057,45653,3651
1694.62,1.213282,39137,2395
1697.49,1.178360,33776,2240
1701.31,1.143439,28175,2025