Folder: textile_sorting_NIRSCAN_/ML/samples/unknown (part 62)

File: Column 1_078418_20241121_170142.csv
Method:,Column 1,,
Host Date-Time:,21/11/24 @ 17:1:42,,
Header Version:,1,,
System Temp (C):,34.75,,
Detector Temp (C):,33.73,,
Humidity (%):,2.16,,
Lamp PD:,3801,,
Shift Vector Coefficients:,-10.5391,0.0761263,-0.000134223,,
Pixel to Wavelength Coefficients:,1775.68,-0.916766,-0.000235065,,
Serial Number:,5510004,,
Scan Config Name:,Column 1,,
Scan Config Type:,Slew,,
Section 1,,
Start wavelength (nm):,900,,
End wavelength (nm):,1700,,
Pattern Pixel Width (nm):,   7.03,,,,
Exposure (ms):,  0.635,,,,
Digital Resolution:,228,,
Num Repeats:,6,,
PGA Gain:,64,,
Total Measurement Time in sec:,  2.724,,
Wavelength (nm),Absorbance (AU),Reference Signal (unitless),Sample Signal (unitless)
901.51,1.296748,108485,5478
905.376,1.315170,121306,5871
909.237,1.299942,131909,6612
913.095,1.311518,143299,6994
916.948,1.327029,156982,7393
922.079,1.331203,179937,8393
925.923,1.338760,200504,9191
929.762,1.313817,222660,10810
933.597,1.326544,244426,11524
937.427,1.325587,263972,12473
941.254,1.307590,281845,13881
945.076,1.316059,297271,14358
950.165,1.313602,315605,15330
953.978,1.303964,328029,16291
957.786,1.308869,340470,16719
961.59,1.313176,352317,17130
965.389,1.306466,363056,17927
969.185,1.312184,373162,18185
972.976,1.300250,382632,19166
976.763,1.308399,391202,19231
981.806,1.299394,400190,20085
985.583,1.302281,406088,20246
989.355,1.302262,410162,20450
993.124,1.301502,412868,20621
996.888,1.303683,414263,20587
1000.65,1.303332,415476,20664
1004.4,1.309707,415479,20363
1009.41,1.308939,414358,20344
1013.15,1.304264,412923,20493
1016.89,1.311936,411526,20066
1020.63,1.314493,409066,19829
1024.36,1.306679,406777,20076
1028.09,1.307725,404427,19912
1031.82,1.302319,401911,20036
1036.78,1.294227,398410,20235
1040.49,1.307795,396204,19504
1044.2,1.301312,394236,19699
1047.91,1.303432,392042,19494
1051.61,1.312205,389823,18996
1055.31,1.313000,388234,18884
1059,1.303862,387599,19254
1063.92,1.303856,386688,19209
1067.61,1.315952,386598,18677
1071.29,1.316199,387377,18704
1074.96,1.311822,388536,18950
1078.63,1.317531,389855,18766
1082.3,1.313068,391215,19026
1085.96,1.317732,393215,18919
1090.84,1.317527,396270,19075
1094.49,1.309520,398760,19552
1098.14,1.315418,400987,19396
1101.79,1.315228,403477,19525
1105.43,1.325552,406116,19191
1109.06,1.311554,407701,19897
1112.7,1.316079,409859,19795
1117.53,1.316652,412494,19896
1121.15,1.321397,414909,19795
1124.77,1.318647,416559,20000
1128.38,1.326118,418532,19752
1131.99,1.313574,419956,20400
1135.6,1.322061,421946,20100
1139.2,1.316869,423881,20435
1143.99,1.317652,426786,20538
1147.58,1.314257,428617,20788
1151.17,1.315666,431169,20844
1154.75,1.322843,433579,20617
1158.33,1.320477,436264,20858
1161.91,1.317860,439132,21122
1165.48,1.316508,442389,21345
1169.04,1.315281,446101,21585
1173.79,1.315738,451929,21844
1177.34,1.319538,456026,21850
1180.9,1.317910,461306,22186
1184.44,1.315992,467657,22591
1187.99,1.327952,473969,22274
1191.52,1.302531,479856,23910
1195.06,1.317403,487372,23467
1199.76,1.324097,497347,23581
1203.29,1.318991,504311,24194
1206.81,1.327430,511507,24067
1210.33,1.318929,519078,24906
1213.84,1.325014,527163,24942
1217.35,1.325054,534208,25273
1220.85,1.328282,540472,25380
1225.51,1.322470,549929,26172
1229.01,1.326357,556888,26267
1232.5,1.320026,562180,26906
1235.98,1.325919,567975,26817
1239.46,1.326383,574815,27111
1242.94,1.318162,582782,28012
1246.41,1.324020,591476,28049
1251.03,1.320842,604016,28854
1254.5,1.330302,612289,28619
1257.96,1.323461,619125,29398
1261.41,1.322928,624551,29692
1264.86,1.327144,629900,29657
1268.31,1.321141,634345,30282
1271.75,1.328177,638574,29994
1276.33,1.330462,642499,30020
1279.76,1.327424,645905,30391
1283.19,1.327495,648307,30499
1286.61,1.328385,650446,30537
1290.03,1.326053,652132,30781
1293.44,1.328491,653907,30692
1296.85,1.332281,655963,30521
1301.39,1.330884,657349,30684
1304.8,1.329299,657558,30806
1308.19,1.328270,658515,30924
1311.58,1.330713,658804,30764
1314.97,1.329173,659011,30883
1318.36,1.333992,658272,30508
1321.73,1.333998,658022,30496
1326.23,1.327213,657870,30969
1329.6,1.330750,656482,30653
1332.97,1.341466,654926,29835
1336.33,1.327184,653727,30776
1339.69,1.328786,652497,30605
1343.04,1.334693,649913,30072
1346.39,1.330557,647671,30255
1349.73,1.333869,645338,29917
1354.18,1.334001,641175,29715
1357.52,1.327970,638376,29999
1360.85,1.334770,635805,29414
1364.17,1.320904,633413,30254
1367.49,1.326327,631026,29766
1370.81,1.327525,628050,29544
1374.12,1.327217,625034,29423
1378.54,1.330034,620272,29010
1381.84,1.327706,616892,29007
1385.14,1.328427,613613,28805
1388.43,1.329230,611526,28654
1391.72,1.323688,610663,28981
1395.01,1.329536,610634,28592
1398.29,1.326875,611700,28818
1402.66,1.334504,614051,28425
1405.93,1.328061,616268,28954
1409.2,1.330729,617795,28848
1412.46,1.337656,618872,28441
1415.72,1.334790,619795,28672
1418.98,1.330041,620495,29020
1422.23,1.334560,621087,28747
1426.56,1.334837,621375,28742
1429.8,1.334869,621616,28751
1433.04,1.335757,622129,28716
1436.27,1.339331,621526,28453
1439.5,1.332258,621113,28901
1442.72,1.334142,620921,28767
1445.94,1.336078,620270,28609
1450.23,1.335075,618860,28610
1453.44,1.339342,617697,28277
1456.64,1.342097,616264,28033
1459.85,1.337673,614413,28235
1463.04,1.339501,612307,28020
1466.24,1.336600,610032,28103
1469.43,1.333926,607345,28152
1473.67,1.336044,603789,27851
1476.85,1.338155,601175,27596
1480.02,1.345195,597737,26997
1483.19,1.339376,594479,27212
1486.36,1.336774,591232,27226
1489.52,1.340422,587853,26844
1492.68,1.345177,583875,26372
1496.89,1.345767,578062,26074
1500.03,1.339638,574159,26266
1503.18,1.339086,570285,26122
1506.32,1.344031,565444,25607
1509.45,1.341733,560571,25521
1512.58,1.334951,555821,25703
1515.71,1.339751,550344,25170
1519.87,1.339648,543983,24885
1522.99,1.340534,538764,24596
1526.1,1.335174,533692,24667
1529.21,1.345940,527902,23802
1532.32,1.341145,521886,23792
1535.42,1.337532,515888,23715
1538.51,1.332024,509987,23743
1541.6,1.342483,503936,22903
1545.72,1.340094,494694,22607
1548.8,1.335340,488378,22564
1551.88,1.340137,481832,22017
1554.95,1.332095,474989,22110
1558.02,1.338791,467818,21443
1561.08,1.335352,460730,21286
1564.15,1.333265,454170,21084
1568.22,1.343436,444181,20143
1571.27,1.331886,436947,20349
1574.32,1.341471,429598,19570
1577.36,1.333163,422039,19597
1580.4,1.340014,414375,18940
1583.43,1.333409,406354,18858
1586.46,1.333958,398475,18469
1590.49,1.335502,388982,17965
1593.51,1.337455,380708,17504
1596.53,1.335862,372727,17200
1599.54,1.334452,365060,16901
1602.55,1.331054,357543,16683
1605.55,1.337831,349495,16055
1608.55,1.329211,341154,15986
1612.54,1.330064,330877,15474
1615.53,1.320089,322904,15452
1618.51,1.328767,315116,14781
1621.49,1.315719,307217,14850
1624.47,1.324754,299481,14178
1627.44,1.319080,292112,14011
1630.41,1.321017,284245,13573
1634.36,1.326176,274079,12933
1637.32,1.315045,266916,12922
1640.27,1.323996,259612,12312
1643.22,1.324131,251804,11938
1646.16,1.311878,244348,11916
1649.1,1.312563,236703,11525
1652.04,1.315449,228171,11036
1655.95,1.310298,215408,10543
1658.88,1.285414,204937,10622
1661.8,1.284885,193395,10036
1664.72,1.266369,179728,9733
1667.63,1.274675,163642,8694
1670.54,1.240174,146312,8416
1673.44,1.225815,128451,7637
1677.31,1.216495,105080,6383
1680.21,1.196806,88906,5651
1683.1,1.198376,75033,4752
1685.99,1.208297,63520,3932
1688.87,1.159311,53714,3722
1691.75,1.193641,45653,2923
1694.62,1.210390,39137,2411
1697.49,1.185397,33776,2204
1701.31,1.243848,28175,1607

File: Column 1_078419_20241121_170145.csv
Method:,Column 1,,
Host Date-Time:,21/11/24 @ 17:1:45,,
Header Version:,1,,
System Temp (C):,34.77,,
Detector Temp (C):,33.73,,
Humidity (%):,2.4,,
Lamp PD:,3802,,
Shift Vector Coefficients:,-10.5391,0.0761263,-0.000134223,,
Pixel to Wavelength Coefficients:,1775.68,-0.916766,-0.000235065,,
Serial Number:,5510004,,
Scan Config Name:,Column 1,,
Scan Config Type:,Slew,,
Section 1,,
Start wavelength (nm):,900,,
End wavelength (nm):,1700,,
Pattern Pixel Width (nm):,   7.03,,,,
Exposure (ms):,  0.635,,,,
Digital Resolution:,228,,
Num Repeats:,6,,
PGA Gain:,64,,
Total Measurement Time in sec:,  2.707,,
Wavelength (nm),Absorbance (AU),Reference Signal (unitless),Sample Signal (unitless)
901.51,1.338489,108485,4976
905.376,1.314431,121306,5881
909.237,1.335372,131909,6094
913.095,1.325590,143299,6771
916.948,1.321310,156982,7491
922.079,1.319261,179937,8627
925.923,1.319264,200504,9613
929.762,1.322132,222660,10605
933.597,1.325942,244426,11540
937.427,1.321705,263972,12585
941.254,1.323360,281845,13386
945.076,1.324766,297271,14073
950.165,1.307609,315605,15543
953.978,1.321426,328029,15649
957.786,1.301834,340470,16992
961.59,1.316076,352317,17016
965.389,1.311681,363056,17713
969.185,1.300567,373162,18678
972.976,1.313479,382632,18591
976.763,1.312757,391202,19039
981.806,1.308594,400190,19664
985.583,1.306744,406088,20039
989.355,1.305673,410162,20290
993.124,1.319717,412868,19774
996.888,1.309780,414263,20300
1000.65,1.301026,415476,20774
1004.4,1.305737,415479,20550
1009.41,1.317128,414358,19964
1013.15,1.313343,412923,20069
1016.89,1.305577,411526,20362
1020.63,1.314646,409066,19822
1024.36,1.316193,406777,19641
1028.09,1.320047,404427,19355
1031.82,1.313428,401911,19530
1036.78,1.314436,398410,19315
1040.49,1.309312,396204,19436
1044.2,1.307328,394236,19428
1047.91,1.318136,392042,18845
1051.61,1.325319,389823,18431
1055.31,1.312012,388234,18927
1059,1.311737,387599,18908
1063.92,1.317078,386688,18633
1067.61,1.308186,386598,19014
1071.29,1.314138,387377,18793
1074.96,1.305949,388536,19208
1078.63,1.317393,389855,18772
1082.3,1.316644,391215,18870
1085.96,1.322649,393215,18706
1090.84,1.321231,396270,18913
1094.49,1.312395,398760,19423
1098.14,1.314188,400987,19451
1101.79,1.322314,403477,19209
1105.43,1.312885,406116,19759
1109.06,1.325753,407701,19257
1112.7,1.321066,409859,19569
1117.53,1.322342,412494,19637
1121.15,1.319799,414909,19868
1124.77,1.322310,416559,19832
1128.38,1.324231,418532,19838
1131.99,1.316564,419956,20260
1135.6,1.320250,421946,20184
1139.2,1.318786,423881,20345
1143.99,1.323656,426786,20256
1147.58,1.319384,428617,20544
1151.17,1.324741,431169,20413
1154.75,1.322632,433579,20627
1158.33,1.318503,436264,20953
1161.91,1.320252,439132,21006
1165.48,1.321337,442389,21109
1169.04,1.319710,446101,21366
1173.79,1.316953,451929,21783
1177.34,1.318843,456026,21885
1180.9,1.317793,461306,22192
1184.44,1.320553,467657,22355
1187.99,1.321065,473969,22630
1191.52,1.316129,479856,23173
1195.06,1.321158,487372,23265
1199.76,1.320576,497347,23773
1203.29,1.324519,504311,23888
1206.81,1.323764,511507,24271
1210.33,1.320658,519078,24807
1213.84,1.330110,527163,24651
1217.35,1.327846,534208,25111
1220.85,1.329018,540472,25337
1225.51,1.322868,549929,26148
1229.01,1.322670,556888,26491
1232.5,1.320349,562180,26886
1235.98,1.326648,567975,26772
1239.46,1.321429,574815,27422
1242.94,1.320837,582782,27840
1246.41,1.319583,591476,28337
1251.03,1.325534,604016,28544
1254.5,1.327654,612289,28794
1257.96,1.332627,619125,28784
1261.41,1.329353,624551,29256
1264.86,1.327467,629900,29635
1268.31,1.328168,634345,29796
1271.75,1.325866,638574,30154
1276.33,1.328470,642499,30158
1279.76,1.331559,645905,30103
1283.19,1.335935,648307,29912
1286.61,1.325705,650446,30726
1290.03,1.334544,652132,30185
1293.44,1.330164,653907,30574
1296.85,1.327680,655963,30846
1301.39,1.334023,657349,30463
1304.8,1.337884,657558,30203
1308.19,1.331526,658515,30693
1311.58,1.329149,658804,30875
1314.97,1.333782,659011,30557
1318.36,1.334832,658272,30449
1321.73,1.333898,658022,30503
1326.23,1.334510,657870,30453
1329.6,1.338209,656482,30131
1332.97,1.331835,654926,30504
1336.33,1.337422,653727,30059
1339.69,1.331534,652497,30412
1343.04,1.333453,649913,30158
1346.39,1.330313,647671,30272
1349.73,1.332680,645338,29999
1354.18,1.330986,641175,29922
1357.52,1.331955,638376,29725
1360.85,1.331504,635805,29636
1364.17,1.331585,633413,29519
1367.49,1.333773,631026,29260
1370.81,1.324916,628050,29722
1374.12,1.327793,625034,29384
1378.54,1.330334,620272,28990
1381.84,1.326973,616892,29056
1385.14,1.326681,613613,28921
1388.43,1.326887,611526,28809
1391.72,1.328889,610663,28636
1395.01,1.328172,610634,28682
1398.29,1.332578,611700,28442
1402.66,1.332461,614051,28559
1405.93,1.335519,616268,28461
1409.2,1.331950,617795,28767
1412.46,1.330192,618872,28934
1415.72,1.333127,619795,28782
1418.98,1.332156,620495,28879
1422.23,1.338673,621087,28476
1426.56,1.327882,621375,29206
1429.8,1.334100,621616,28802
1433.04,1.338031,622129,28566
1436.27,1.332862,621526,28880
1439.5,1.336349,621113,28630
1442.72,1.333553,620921,28806
1445.94,1.337416,620270,28521
1450.23,1.336991,618860,28484
1453.44,1.338192,617697,28352
1456.64,1.337076,616264,28359
1459.85,1.337934,614413,28218
1463.04,1.331394,612307,28548
1466.24,1.341355,610032,27797
1469.43,1.338330,607345,27868
1473.67,1.332890,603789,28054
1476.85,1.331378,601175,28030
1480.02,1.337383,597737,27487
1483.19,1.337147,594479,27352
1486.36,1.336678,591232,27232
1489.52,1.338936,587853,26936
1492.68,1.338526,583875,26779
1496.89,1.333402,578062,26827
1500.03,1.337050,574159,26423
1503.18,1.336549,570285,26275
1506.32,1.340938,565444,25790
1509.45,1.333791,560571,25992
1512.58,1.335746,555821,25656
1515.71,1.336331,550344,25369
1519.87,1.330478,543983,25416
1522.99,1.337087,538764,24792
1526.1,1.343583,533692,24194
1529.21,1.346177,527902,23789
1532.32,1.336370,521886,24055
1535.42,1.335213,515888,23842
1538.51,1.342577,509987,23173
1541.6,1.342654,503936,22894
1545.72,1.328456,494694,23221
1548.8,1.338198,488378,22416
1551.88,1.337189,481832,22167
1554.95,1.338646,474989,21779
1558.02,1.336791,467818,21542
1561.08,1.334496,460730,21328
1564.15,1.336491,454170,20928
1568.22,1.336124,444181,20485
1571.27,1.337427,436947,20091
1574.32,1.338706,429598,19695
1577.36,1.332123,422039,19644
1580.4,1.334885,414375,19165
1583.43,1.326260,406354,19171
1586.46,1.329047,398475,18679
1590.49,1.326838,388982,18327
1593.51,1.325971,380708,17973
1596.53,1.333571,372727,17291
1599.54,1.329190,365060,17107
1602.55,1.332776,357543,16617
1605.55,1.324381,349495,16560
1608.55,1.330217,341154,15949
1612.54,1.328467,330877,15531
1615.53,1.325775,322904,15251
1618.51,1.331124,315116,14701
1621.49,1.330593,307217,14350
1624.47,1.330365,299481,13996
1627.44,1.338477,292112,13399
1630.41,1.300671,284245,14224
1634.36,1.310641,274079,13404
1637.32,1.327281,266916,12563
1640.27,1.311411,259612,12674
1643.22,1.304744,251804,12483
1646.16,1.332401,244348,11366
1649.1,1.314716,236703,11468
1652.04,1.306722,228171,11260
1655.95,1.317483,215408,10370
1658.88,1.293503,204937,10426
1661.8,1.300077,193395,9691
1664.72,1.292152,179728,9172
1667.63,1.270005,163642,8788
1670.54,1.247355,146312,8278
1673.44,1.237632,128451,7432
1677.31,1.209075,105080,6493
1680.21,1.191459,88906,5721
1683.1,1.209765,75033,4629
1685.99,1.164921,63520,4345
1688.87,1.160480,53714,3712
1691.75,1.221402,45653,2742
1694.62,1.226165,39137,2325
1697.49,1.254681,33776,1879
1701.31,1.164307,28175,1930

File: Column 1_078425_20241121_170202.csv
Method:,Column 1,,
Host Date-Time:,21/11/24 @ 17:2:2,,
Header Version:,1,,
System Temp (C):,34.83,,
Detector Temp (C):,33.72,,
Humidity (%):,2.74,,
Lamp PD:,3802,,
Shift Vector Coefficients:,-10.5391,0.0761263,-0.000134223,,
Pixel to Wavelength Coefficients:,1775.68,-0.916766,-0.000235065,,
Serial Number:,5510004,,
Scan Config Name:,Column 1,,
Scan Config Type:,Slew,,
Section 1,,
Start wavelength (nm):,900,,
End wavelength (nm):,1700,,
Pattern Pixel Width (nm):,   7.03,,,,
Exposure (ms):,  0.635,,,,
Digital Resolution:,228,,
Num Repeats:,6,,
PGA Gain:,64,,
Total Measurement Time in sec:,  2.726,,
Wavelength (nm),Absorbance (AU),Reference Signal (unitless),Sample Signal (unitless)
901.51,1.296272,108485,5484
905.376,1.325652,121306,5731
909.237,1.296214,131909,6669
913.095,1.316451,143299,6915
916.948,1.313781,156982,7622
922.079,1.319210,179937,8628
925.923,1.330754,200504,9362
929.762,1.320211,222660,10652
933.597,1.313880,244426,11865
937.427,1.307882,263972,12992
941.254,1.307809,281845,13874
945.076,1.308354,297271,14615
950.165,1.315390,315605,15267
953.978,1.306210,328029,16207
957.786,1.306511,340470,16810
961.59,1.313328,352317,17124
965.389,1.310408,363056,17765
969.185,1.296056,373162,18873
972.976,1.312825,382632,18619
976.763,1.305294,391202,19369
981.806,1.301453,400190,19990
985.583,1.300654,406088,20322
989.355,1.297489,410162,20676
993.124,1.307332,412868,20346
996.888,1.304993,414263,20525
1000.65,1.309534,415476,20371
1004.4,1.299797,415479,20833
1009.41,1.307363,414358,20418
1013.15,1.306154,412923,20404
1016.89,1.304214,411526,20426
1020.63,1.310590,409066,20008
1024.36,1.301176,406777,20332
1028.09,1.312639,404427,19688
1031.82,1.308365,401911,19759
1036.78,1.301630,398410,19893
1040.49,1.294961,396204,20089
1044.2,1.301334,394236,19698
1047.91,1.307325,392042,19320
1051.61,1.299921,389823,19541
1055.31,1.302794,388234,19333
1059,1.302780,387599,19302
1063.92,1.312234,386688,18842
1067.61,1.310476,386598,18914
1071.29,1.308148,387377,19054
1074.96,1.316824,388536,18733
1078.63,1.317300,389855,18776
1082.3,1.312521,391215,19050
1085.96,1.310877,393215,19220
1090.84,1.311220,396270,19354
1094.49,1.313672,398760,19366
1098.14,1.312650,400987,19520
1101.79,1.309988,403477,19762
1105.43,1.305800,406116,20084
1109.06,1.313370,407701,19814
1112.7,1.318124,409859,19702
1117.53,1.315018,412494,19971
1121.15,1.309175,414909,20360
1124.77,1.317605,416559,20048
1128.38,1.313122,418532,20352
1131.99,1.317938,419956,20196
1135.6,1.310631,421946,20636
1139.2,1.314369,423881,20553
1143.99,1.316596,426786,20588
1147.58,1.319511,428617,20538
1151.17,1.311416,431169,21049
1154.75,1.305459,433579,21459
1158.33,1.316188,436264,21065
1161.91,1.313625,439132,21329
1165.48,1.314256,442389,21456
1169.04,1.316369,446101,21531
1173.79,1.314864,451929,21888
1177.34,1.313675,456026,22147
1180.9,1.317969,461306,22183
1184.44,1.314189,467657,22685
1187.99,1.318139,473969,22783
1191.52,1.310450,479856,23478
1195.06,1.311247,487372,23802
1199.76,1.320996,497347,23750
1203.29,1.318148,504311,24241
1206.81,1.321462,511507,24400
1210.33,1.319749,519078,24859
1213.84,1.325937,527163,24889
1217.35,1.321426,534208,25485
1220.85,1.318469,540472,25960
1225.51,1.320318,549929,26302
1229.01,1.320935,556888,26597
1232.5,1.327318,562180,26458
1235.98,1.326600,567975,26775
1239.46,1.317299,574815,27684
1242.94,1.325180,582782,27563
1246.41,1.316970,591476,28508
1251.03,1.326615,604016,28473
1254.5,1.322750,612289,29121
1257.96,1.324466,619125,29330
1261.41,1.319186,624551,29949
1264.86,1.329052,629900,29527
1268.31,1.322319,634345,30200
1271.75,1.324773,638574,30230
1276.33,1.323018,642499,30539
1279.76,1.327438,645905,30390
1283.19,1.324883,648307,30683
1286.61,1.323197,650446,30904
1290.03,1.323998,652132,30927
1293.44,1.325642,653907,30894
1296.85,1.331484,655963,30577
1301.39,1.327234,657349,30943
1304.8,1.333136,657558,30535
1308.19,1.329395,658515,30844
1311.58,1.329797,658804,30829
1314.97,1.329004,659011,30895
1318.36,1.329235,658272,30844
1321.73,1.329366,658022,30823
1326.23,1.325198,657870,31113
1329.6,1.331814,656482,30578
1332.97,1.327557,654926,30806
1336.33,1.330513,653727,30541
1339.69,1.327157,652497,30720
1343.04,1.324954,649913,30754
1346.39,1.330055,647671,30290
1349.73,1.324108,645338,30597
1354.18,1.323932,641175,30412
1357.52,1.323763,638376,30291
1360.85,1.326637,635805,29970
1364.17,1.325218,633413,29955
1367.49,1.327920,631026,29657
1370.81,1.324084,628050,29779
1374.12,1.329066,625034,29298
1378.54,1.324043,620272,29413
1381.84,1.323801,616892,29269
1385.14,1.327764,613613,28849
1388.43,1.318304,611526,29384
1391.72,1.325641,610663,28851
1395.01,1.323054,610634,29022
1398.29,1.326965,611700,28812
1402.66,1.328721,614051,28806
1405.93,1.329925,616268,28830
1409.2,1.329556,617795,28926
1412.46,1.333568,618872,28710
1415.72,1.326627,619795,29216
1418.98,1.326375,620495,29266
1422.23,1.328052,621087,29181
1426.56,1.336548,621375,28629
1429.8,1.329838,621616,29086
1433.04,1.326954,622129,29304
1436.27,1.328791,621526,29152
1439.5,1.326155,621113,29310
1442.72,1.331853,620921,28919
1445.94,1.330048,620270,29009
1450.23,1.334089,618860,28675
1453.44,1.332682,617697,28714
1456.64,1.330495,616264,28792
1459.85,1.335295,614413,28390
1463.04,1.330118,612307,28632
1466.24,1.330081,610032,28528
1469.43,1.334204,607345,28134
1473.67,1.338374,603789,27702
1476.85,1.337055,601175,27666
1480.02,1.332434,597737,27802
1483.19,1.328377,594479,27910
1486.36,1.329796,591232,27667
1489.52,1.331265,587853,27416
1492.68,1.332294,583875,27166
1496.89,1.329470,578062,27071
1500.03,1.330800,574159,26806
1503.18,1.335427,570285,26343
1506.32,1.333608,565444,26229
1509.45,1.333440,560571,26013
1512.58,1.333551,555821,25786
1515.71,1.341272,550344,25082
1519.87,1.338793,543983,24934
1522.99,1.332227,538764,25071
1526.1,1.332209,533692,24836
1529.21,1.330754,527902,24649
1532.32,1.334676,521886,24149
1535.42,1.339147,515888,23627
1538.51,1.349110,509987,22827
1541.6,1.338012,503936,23140
1545.72,1.330631,494694,23105
1548.8,1.330555,488378,22814
1551.88,1.326449,481832,22722
1554.95,1.331741,474989,22128
1558.02,1.331780,467818,21792
1561.08,1.332080,460730,21447
1564.15,1.337987,454170,20856
1568.22,1.325031,444181,21015
1571.27,1.321364,436947,20848
1574.32,1.334843,429598,19871
1577.36,1.332764,422039,19615
1580.4,1.324296,414375,19638
1583.43,1.325332,406354,19212
1586.46,1.326497,398475,18789
1590.49,1.313468,388982,18900
1593.51,1.322410,380708,18121
1596.53,1.324376,372727,17661
1599.54,1.326912,365060,17197
1602.55,1.325364,357543,16903
1605.55,1.325562,349495,16515
1608.55,1.320710,341154,16302
1612.54,1.315438,330877,16004
1615.53,1.316506,322904,15580
1618.51,1.330179,315116,14733
1621.49,1.320690,307217,14681
1624.47,1.316682,299481,14444
1627.44,1.307670,292112,14384
1630.41,1.320346,284245,13594
1634.36,1.302298,274079,13664
1637.32,1.308938,266916,13105
1640.27,1.306877,259612,12807
1643.22,1.304118,251804,12501
1646.16,1.313558,244348,11870
1649.1,1.308699,236703,11628
1652.04,1.306683,228171,11261
1655.95,1.297192,215408,10866
1658.88,1.295339,204937,10382
1661.8,1.277717,193395,10203
1664.72,1.263168,179728,9805
1667.63,1.249824,163642,9206
1670.54,1.239298,146312,8433
1673.44,1.212873,128451,7868
1677.31,1.206208,105080,6536
1680.21,1.182741,88906,5837
1683.1,1.184613,75033,4905
1685.99,1.184758,63520,4151
1688.87,1.110056,53714,4169
1691.75,1.080143,45653,3796
1694.62,1.117207,39137,2988
1697.49,1.184413,33776,2209
1701.31,1.182692,28175,1850