Folder: textile_sorting_NIRSCAN_/ML/samples/unknown (part 127)

File: Column 1_078941_20241121_172934.csv
Method:,Column 1,,
Host Date-Time:,21/11/24 @ 17:29:34,,
Header Version:,1,,
System Temp (C):,37.68,,
Detector Temp (C):,36.54,,
Humidity (%):,0.54,,
Lamp PD:,3796,,
Shift Vector Coefficients:,-10.5391,0.0761263,-0.000134223,,
Pixel to Wavelength Coefficients:,1775.68,-0.916766,-0.000235065,,
Serial Number:,5510004,,
Scan Config Name:,Column 1,,
Scan Config Type:,Slew,,
Section 1,,
Start wavelength (nm):,900,,
End wavelength (nm):,1700,,
Pattern Pixel Width (nm):,   7.03,,,,
Exposure (ms):,  0.635,,,,
Digital Resolution:,228,,
Num Repeats:,6,,
PGA Gain:,64,,
Total Measurement Time in sec:,  2.726,,
Wavelength (nm),Absorbance (AU),Reference Signal (unitless),Sample Signal (unitless)
901.51,1.327714,108485,5101
905.376,1.337092,121306,5582
909.237,1.311523,131909,6438
913.095,1.307254,143299,7063
916.948,1.337493,156982,7217
922.079,1.321684,179937,8579
925.923,1.326232,200504,9460
929.762,1.316517,222660,10743
933.597,1.316597,244426,11791
937.427,1.311709,263972,12878
941.254,1.330062,281845,13181
945.076,1.314398,297271,14413
950.165,1.308252,315605,15520
953.978,1.307175,328029,16171
957.786,1.318694,340470,16345
961.59,1.314522,352317,17077
965.389,1.317556,363056,17475
969.185,1.306372,373162,18430
972.976,1.304051,382632,18999
976.763,1.295977,391202,19789
981.806,1.305864,400190,19788
985.583,1.306419,406088,20054
989.355,1.309997,410162,20089
993.124,1.303528,412868,20525
996.888,1.298962,414263,20812
1000.65,1.308129,415476,20437
1004.4,1.310070,415479,20346
1009.41,1.304141,414358,20570
1013.15,1.303925,412923,20509
1016.89,1.308058,411526,20246
1020.63,1.310698,409066,20003
1024.36,1.304070,406777,20197
1028.09,1.304617,404427,20055
1031.82,1.309575,401911,19704
1036.78,1.307122,398410,19643
1040.49,1.308754,396204,19461
1044.2,1.309322,394236,19339
1047.91,1.305800,392042,19388
1051.61,1.304321,389823,19344
1055.31,1.308310,388234,19089
1059,1.308830,387599,19035
1063.92,1.315124,386688,18717
1067.61,1.311902,386598,18852
1071.29,1.312247,387377,18875
1074.96,1.311960,388536,18944
1078.63,1.319573,389855,18678
1082.3,1.311359,391215,19101
1085.96,1.308263,393215,19336
1090.84,1.313606,396270,19248
1094.49,1.312149,398760,19434
1098.14,1.308157,400987,19723
1101.79,1.307949,403477,19855
1105.43,1.306774,406116,20039
1109.06,1.320352,407701,19498
1112.7,1.327505,409859,19281
1117.53,1.314105,412494,20013
1121.15,1.313807,414909,20144
1124.77,1.317216,416559,20066
1128.38,1.320612,418532,20004
1131.99,1.325050,419956,19868
1135.6,1.308762,421946,20725
1139.2,1.318616,423881,20353
1143.99,1.307164,426786,21040
1147.58,1.314717,428617,20766
1151.17,1.314751,431169,20888
1154.75,1.311347,433579,21170
1158.33,1.317551,436264,20999
1161.91,1.324929,439132,20781
1165.48,1.312962,442389,21520
1169.04,1.315684,446101,21565
1173.79,1.317112,451929,21775
1177.34,1.320354,456026,21809
1180.9,1.317226,461306,22221
1184.44,1.313959,467657,22697
1187.99,1.315157,473969,22940
1191.52,1.321978,479856,22863
1195.06,1.318756,487372,23394
1199.76,1.319317,497347,23842
1203.29,1.317396,504311,24283
1206.81,1.322531,511507,24340
1210.33,1.318580,519078,24926
1213.84,1.319374,527163,25268
1217.35,1.325157,534208,25267
1220.85,1.315052,540472,26165
1225.51,1.315213,549929,26613
1229.01,1.319175,556888,26705
1232.5,1.318496,562180,27001
1235.98,1.321424,567975,27096
1239.46,1.321746,574815,27402
1242.94,1.317589,582782,28049
1246.41,1.321750,591476,28196
1251.03,1.318321,604016,29022
1254.5,1.327368,612289,28813
1257.96,1.322560,619125,29459
1261.41,1.319781,624551,29908
1264.86,1.328406,629900,29571
1268.31,1.322045,634345,30219
1271.75,1.322423,638574,30394
1276.33,1.321768,642499,30627
1279.76,1.328970,645905,30283
1283.19,1.324147,648307,30735
1286.61,1.322663,650446,30942
1290.03,1.327296,652132,30693
1293.44,1.324561,653907,30971
1296.85,1.327033,655963,30892
1301.39,1.325846,657349,31042
1304.8,1.322584,657558,31286
1308.19,1.332731,658515,30608
1311.58,1.331109,658804,30736
1314.97,1.325993,659011,31110
1318.36,1.326470,658272,31041
1321.73,1.331428,658022,30677
1326.23,1.340267,657870,30052
1329.6,1.328912,656482,30783
1332.97,1.323250,654926,31113
1336.33,1.331282,653727,30487
1339.69,1.332034,652497,30377
1343.04,1.328883,649913,30477
1346.39,1.328395,647671,30406
1349.73,1.324549,645338,30566
1354.18,1.328367,641175,30103
1357.52,1.323147,638376,30334
1360.85,1.324238,635805,30136
1364.17,1.323193,633413,30095
1367.49,1.330240,631026,29499
1370.81,1.322439,628050,29892
1374.12,1.320044,625034,29913
1378.54,1.323718,620272,29435
1381.84,1.326734,616892,29072
1385.14,1.323360,613613,29143
1388.43,1.317979,611526,29406
1391.72,1.323658,610663,28983
1395.01,1.320592,610634,29187
1398.29,1.329702,611700,28631
1402.66,1.328556,614051,28817
1405.93,1.331041,616268,28756
1409.2,1.326251,617795,29147
1412.46,1.328769,618872,29029
1415.72,1.332886,619795,28798
1418.98,1.326954,620495,29227
1422.23,1.330305,621087,29030
1426.56,1.327555,621375,29228
1429.8,1.330765,621616,29024
1433.04,1.331632,622129,28990
1436.27,1.335396,621526,28712
1439.5,1.330024,621113,29050
1442.72,1.336898,620921,28585
1445.94,1.328061,620270,29142
1450.23,1.333529,618860,28712
1453.44,1.336297,617697,28476
1456.64,1.329019,616264,28890
1459.85,1.325778,614413,29019
1463.04,1.332170,612307,28497
1466.24,1.327652,610032,28688
1469.43,1.328911,607345,28479
1473.67,1.327124,603789,28429
1476.85,1.332992,601175,27926
1480.02,1.335318,597737,27618
1483.19,1.328953,594479,27873
1486.36,1.333532,591232,27430
1489.52,1.330157,587853,27486
1492.68,1.330906,583875,27253
1496.89,1.331803,578062,26926
1500.03,1.335295,574159,26530
1503.18,1.331521,570285,26581
1506.32,1.332500,565444,26296
1509.45,1.336809,560571,25812
1512.58,1.338054,555821,25520
1515.71,1.329840,550344,25751
1519.87,1.334064,543983,25207
1522.99,1.336247,538764,24840
1526.1,1.334822,533692,24687
1529.21,1.336983,527902,24298
1532.32,1.332846,521886,24251
1535.42,1.329261,515888,24171
1538.51,1.328580,509987,23932
1541.6,1.339818,503936,23044
1545.72,1.333592,494694,22948
1548.8,1.331813,488378,22748
1551.88,1.330134,481832,22530
1554.95,1.335744,474989,21925
1558.02,1.330248,467818,21869
1561.08,1.338465,460730,21134
1564.15,1.329553,454170,21265
1568.22,1.327414,444181,20900
1571.27,1.326330,436947,20611
1574.32,1.334668,429598,19879
1577.36,1.331438,422039,19675
1580.4,1.332918,414375,19252
1583.43,1.324835,406354,19234
1586.46,1.321739,398475,18996
1590.49,1.328334,388982,18264
1593.51,1.324861,380708,18019
1596.53,1.327559,372727,17532
1599.54,1.322165,365060,17386
1602.55,1.308977,357543,17553
1605.55,1.323490,349495,16594
1608.55,1.322017,341154,16253
1612.54,1.324431,330877,15676
1615.53,1.327230,322904,15200
1618.51,1.314575,315116,15272
1621.49,1.325120,307217,14532
1624.47,1.319124,299481,14363
1627.44,1.309334,292112,14329
1630.41,1.313940,284245,13796
1634.36,1.315496,274079,13255
1637.32,1.302654,266916,13296
1640.27,1.313782,259612,12605
1643.22,1.317596,251804,12119
1646.16,1.320715,244348,11676
1649.1,1.306464,236703,11688
1652.04,1.319402,228171,10936
1655.95,1.303432,215408,10711
1658.88,1.296722,204937,10349
1661.8,1.282942,193395,10081
1664.72,1.272978,179728,9586
1667.63,1.250107,163642,9200
1670.54,1.216671,146312,8884
1673.44,1.190865,128451,8277
1677.31,1.162742,105080,7224
1680.21,1.144587,88906,6373
1683.1,1.135522,75033,5492
1685.99,1.112892,63520,4898
1688.87,1.141816,53714,3875
1691.75,1.104254,45653,3591
1694.62,1.126016,39137,2928
1697.49,1.156249,33776,2357
1701.31,1.149703,28175,1996

File: Column 1_078942_20241121_172937.csv
Method:,Column 1,,
Host Date-Time:,21/11/24 @ 17:29:37,,
Header Version:,1,,
System Temp (C):,37.65,,
Detector Temp (C):,36.6,,
Humidity (%):,0.48,,
Lamp PD:,3795,,
Shift Vector Coefficients:,-10.5391,0.0761263,-0.000134223,,
Pixel to Wavelength Coefficients:,1775.68,-0.916766,-0.000235065,,
Serial Number:,5510004,,
Scan Config Name:,Column 1,,
Scan Config Type:,Slew,,
Section 1,,
Start wavelength (nm):,900,,
End wavelength (nm):,1700,,
Pattern Pixel Width (nm):,   7.03,,,,
Exposure (ms):,  0.635,,,,
Digital Resolution:,228,,
Num Repeats:,6,,
PGA Gain:,64,,
Total Measurement Time in sec:,  2.717,,
Wavelength (nm),Absorbance (AU),Reference Signal (unitless),Sample Signal (unitless)
901.51,1.313889,108485,5266
905.376,1.346054,121306,5468
909.237,1.316954,131909,6358
913.095,1.323798,143299,6799
916.948,1.354803,156982,6935
922.079,1.312914,179937,8754
925.923,1.331823,200504,9339
929.762,1.321068,222660,10631
933.597,1.326921,244426,11514
937.427,1.325169,263972,12485
941.254,1.313829,281845,13683
945.076,1.318120,297271,14290
950.165,1.316701,315605,15221
953.978,1.313451,328029,15939
957.786,1.305556,340470,16847
961.59,1.308687,352317,17308
965.389,1.317631,363056,17472
969.185,1.310873,373162,18240
972.976,1.310383,382632,18724
976.763,1.309960,391202,19162
981.806,1.304090,400190,19869
985.583,1.317385,406088,19554
989.355,1.314015,410162,19904
993.124,1.301438,412868,20624
996.888,1.311796,414263,20206
1000.65,1.301235,415476,20764
1004.4,1.303608,415479,20651
1009.41,1.304775,414358,20540
1013.15,1.309744,412923,20236
1016.89,1.312825,411526,20025
1020.63,1.309051,409066,20079
1024.36,1.302203,406777,20284
1028.09,1.312572,404427,19691
1031.82,1.314385,401911,19487
1036.78,1.303950,398410,19787
1040.49,1.300728,396204,19824
1044.2,1.304854,394236,19539
1047.91,1.302053,392042,19556
1051.61,1.312342,389823,18990
1055.31,1.312402,388234,18910
1059,1.298214,387599,19506
1063.92,1.315705,386688,18692
1067.61,1.306317,386598,19096
1071.29,1.320118,387377,18536
1074.96,1.314189,388536,18847
1078.63,1.316330,389855,18818
1082.3,1.319484,391215,18747
1085.96,1.315762,393215,19005
1090.84,1.314486,396270,19209
1094.49,1.318452,398760,19154
1098.14,1.316786,400987,19335
1101.79,1.314361,403477,19564
1105.43,1.319753,406116,19449
1109.06,1.317399,407701,19631
1112.7,1.310260,409859,20062
1117.53,1.302669,412494,20547
1121.15,1.310115,414909,20316
1124.77,1.321675,416559,19861
1128.38,1.313677,418532,20326
1131.99,1.318627,419956,20164
1135.6,1.328219,421946,19817
1139.2,1.316891,423881,20434
1143.99,1.323335,426786,20271
1147.58,1.319998,428617,20515
1151.17,1.318048,431169,20730
1154.75,1.315656,433579,20961
1158.33,1.324619,436264,20660
1161.91,1.319735,439132,21031
1165.48,1.317649,442389,21289
1169.04,1.317864,446101,21457
1173.79,1.316574,451929,21802
1177.34,1.315995,456026,22029
1180.9,1.312695,461306,22454
1184.44,1.313519,467657,22720
1187.99,1.328049,473969,22269
1191.52,1.321105,479856,22909
1195.06,1.314967,487372,23599
1199.76,1.322443,497347,23671
1203.29,1.327968,504311,23699
1206.81,1.318853,511507,24547
1210.33,1.330772,519078,24236
1213.84,1.313179,527163,25631
1217.35,1.318335,534208,25667
1220.85,1.318569,540472,25954
1225.51,1.321690,549929,26219
1229.01,1.321687,556888,26551
1232.5,1.322682,562180,26742
1235.98,1.324674,567975,26894
1239.46,1.325183,574815,27186
1242.94,1.321133,582782,27821
1246.41,1.320166,591476,28299
1251.03,1.320166,604016,28899
1254.5,1.324918,612289,28976
1257.96,1.324807,619125,29307
1261.41,1.328493,624551,29314
1264.86,1.326983,629900,29668
1268.31,1.327439,634345,29846
1271.75,1.325104,638574,30207
1276.33,1.328513,642499,30155
1279.76,1.320829,645905,30856
1283.19,1.328879,648307,30402
1286.61,1.327178,650446,30622
1290.03,1.327098,652132,30707
1293.44,1.327388,653907,30770
1296.85,1.327286,655963,30874
1301.39,1.328456,657349,30856
1304.8,1.327919,657558,30904
1308.19,1.329156,658515,30861
1311.58,1.330318,658804,30792
1314.97,1.330935,659011,30758
1318.36,1.325882,658272,31083
1321.73,1.328127,658022,30911
1326.23,1.327844,657870,30924
1329.6,1.328729,656482,30796
1332.97,1.331878,654926,30501
1336.33,1.332152,653727,30426
1339.69,1.330065,652497,30515
1343.04,1.332044,649913,30256
1346.39,1.328852,647671,30374
1349.73,1.324222,645338,30589
1354.18,1.331102,641175,29914
1357.52,1.331283,638376,29771
1360.85,1.327537,635805,29908
1364.17,1.322587,633413,30137
1367.49,1.325321,631026,29835
1370.81,1.325267,628050,29698
1374.12,1.322314,625034,29757
1378.54,1.330904,620272,28952
1381.84,1.327257,616892,29037
1385.14,1.329015,613613,28766
1388.43,1.324886,611526,28942
1391.72,1.325611,610663,28853
1395.01,1.324958,610634,28895
1398.29,1.325250,611700,28926
1402.66,1.322673,614051,29210
1405.93,1.336054,616268,28426
1409.2,1.323695,617795,29319
1412.46,1.328993,618872,29014
1415.72,1.330165,619795,28979
1418.98,1.331525,620495,28921
1422.23,1.327844,621087,29195
1426.56,1.331735,621375,28948
1429.8,1.334311,621616,28788
1433.04,1.331108,622129,29025
1436.27,1.327764,621526,29221
1439.5,1.331177,621113,28973
1442.72,1.327683,620921,29198
1445.94,1.333852,620270,28756
1450.23,1.335393,618860,28589
1453.44,1.337274,617697,28412
1456.64,1.330013,616264,28824
1459.85,1.333402,614413,28514
1463.04,1.333880,612307,28385
1466.24,1.338769,610032,27963
1469.43,1.331450,607345,28313
1473.67,1.338061,603789,27722
1476.85,1.330295,601175,28100
1480.02,1.332465,597737,27800
1483.19,1.339999,594479,27173
1486.36,1.335452,591232,27309
1489.52,1.332391,587853,27345
1492.68,1.335584,583875,26961
1496.89,1.334342,578062,26769
1500.03,1.338120,574159,26358
1503.18,1.339518,570285,26096
1506.32,1.333691,565444,26224
1509.45,1.332256,560571,26084
1512.58,1.326054,555821,26235
1515.71,1.340390,550344,25133
1519.87,1.339334,543983,24903
1522.99,1.337280,538764,24781
1526.1,1.336285,533692,24604
1529.21,1.333671,527902,24484
1532.32,1.339123,521886,23903
1535.42,1.335231,515888,23841
1538.51,1.335826,509987,23536
1541.6,1.337843,503936,23149
1545.72,1.331741,494694,23046
1548.8,1.335821,488378,22539
1551.88,1.333657,481832,22348
1554.95,1.333886,474989,22019
1558.02,1.327891,467818,21988
1561.08,1.338814,460730,21117
1564.15,1.339719,454170,20773
1568.22,1.333040,444181,20631
1571.27,1.325509,436947,20650
1574.32,1.334253,429598,19898
1577.36,1.329060,422039,19783
1580.4,1.332895,414375,19253
1583.43,1.332029,406354,18918
1586.46,1.334664,398475,18439
1590.49,1.334295,388982,18015
1593.51,1.328006,380708,17889
1596.53,1.324130,372727,17671
1599.54,1.331252,365060,17026
1602.55,1.329858,357543,16729
1605.55,1.319919,349495,16731
1608.55,1.320523,341154,16309
1612.54,1.321477,330877,15783
1615.53,1.327287,322904,15198
1618.51,1.315144,315116,15252
1621.49,1.327337,307217,14458
1624.47,1.327458,299481,14090
1627.44,1.314946,292112,14145
1630.41,1.324616,284245,13461
1634.36,1.312557,274079,13345
1637.32,1.321239,266916,12739
1640.27,1.323326,259612,12331
1643.22,1.327308,251804,11851
1646.16,1.318933,244348,11724
1649.1,1.318214,236703,11376
1652.04,1.296506,228171,11528
1655.95,1.313398,215408,10468
1658.88,1.298235,204937,10313
1661.8,1.281007,193395,10126
1664.72,1.277304,179728,9491
1667.63,1.257294,163642,9049
1670.54,1.233670,146312,8543
1673.44,1.203050,128451,8048
1677.31,1.180912,105080,6928
1680.21,1.144996,88906,6367
1683.1,1.148688,75033,5328
1685.99,1.132665,63520,4680
1688.87,1.125753,53714,4021
1691.75,1.148121,45653,3246
1694.62,1.219308,39137,2362
1697.49,1.109976,33776,2622
1701.31,1.179185,28175,1865

File: Column 1_078943_20241121_172940.csv
Method:,Column 1,,
Host Date-Time:,21/11/24 @ 17:29:40,,
Header Version:,1,,
System Temp (C):,37.67,,
Detector Temp (C):,36.62,,
Humidity (%):,0.59,,
Lamp PD:,3796,,
Shift Vector Coefficients:,-10.5391,0.0761263,-0.000134223,,
Pixel to Wavelength Coefficients:,1775.68,-0.916766,-0.000235065,,
Serial Number:,5510004,,
Scan Config Name:,Column 1,,
Scan Config Type:,Slew,,
Section 1,,
Start wavelength (nm):,900,,
End wavelength (nm):,1700,,
Pattern Pixel Width (nm):,   7.03,,,,
Exposure (ms):,  0.635,,,,
Digital Resolution:,228,,
Num Repeats:,6,,
PGA Gain:,64,,
Total Measurement Time in sec:,  2.714,,
Wavelength (nm),Absorbance (AU),Reference Signal (unitless),Sample Signal (unitless)
901.51,1.335012,108485,5016
905.376,1.347486,121306,5450
909.237,1.316067,131909,6371
913.095,1.363012,143299,6212
916.948,1.303811,156982,7799
922.079,1.315901,179937,8694
925.923,1.335840,200504,9253
929.762,1.325420,222660,10525
933.597,1.327450,244426,11500
937.427,1.323711,263972,12527
941.254,1.321385,281845,13447
945.076,1.325167,297271,14060
950.165,1.308868,315605,15498
953.978,1.318632,328029,15750
957.786,1.318189,340470,16364
961.59,1.309013,352317,17295
965.389,1.310751,363056,17751
969.185,1.303764,373162,18541
972.976,1.313712,382632,18581
976.763,1.309620,391202,19177
981.806,1.304528,400190,19849
985.583,1.309527,406088,19911
989.355,1.304711,410162,20335
993.124,1.299589,412868,20712
996.888,1.304760,414263,20536
1000.65,1.308193,415476,20434
1004.4,1.306922,415479,20494
1009.41,1.299877,414358,20773
1013.15,1.306899,412923,20369
1016.89,1.302813,411526,20492
1020.63,1.304704,409066,20281
1024.36,1.311771,406777,19842
1028.09,1.305940,404427,19994
1031.82,1.312850,401911,19556
1036.78,1.304895,398410,19744
1040.49,1.319806,396204,18972
1044.2,1.306145,394236,19481
1047.91,1.300899,392042,19608
1051.61,1.307317,389823,19211
1055.31,1.305340,388234,19220
1059,1.311898,387599,18901
1063.92,1.312095,386688,18848
1067.61,1.312087,386598,18844
1071.29,1.305081,387377,19189
1074.96,1.312809,388536,18907
1078.63,1.306292,389855,19258
1082.3,1.314669,391215,18956
1085.96,1.311193,393215,19206
1090.84,1.309966,396270,19410
1094.49,1.319201,398760,19121
1098.14,1.317371,400987,19309
1101.79,1.317145,403477,19439
1105.43,1.321677,406116,19363
1109.06,1.319662,407701,19529
1112.7,1.318631,409859,19679
1117.53,1.322807,412494,19616
1121.15,1.323619,414909,19694
1124.77,1.321348,416559,19876
1128.38,1.317109,418532,20166
1131.99,1.316714,419956,20253
1135.6,1.314542,421946,20451
1139.2,1.318082,423881,20378
1143.99,1.317652,426786,20538
1147.58,1.320273,428617,20502
1151.17,1.316563,431169,20801
1154.75,1.313610,433579,21060
1158.33,1.313024,436264,21219
1161.91,1.312060,439132,21406
1165.48,1.308405,442389,21747
1169.04,1.310320,446101,21833
1173.79,1.318030,451929,21729
1177.34,1.320912,456026,21781
1180.9,1.314110,461306,22381
1184.44,1.313175,467657,22738
1187.99,1.318501,473969,22764
1191.52,1.316879,479856,23133
1195.06,1.312673,487372,23724
1199.76,1.318807,497347,23870
1203.29,1.324810,504311,23872
1206.81,1.319685,511507,24500
1210.33,1.320081,519078,24840
1213.84,1.315490,527163,25495
1217.35,1.322791,534208,25405
1220.85,1.320548,540472,25836
1225.51,1.320648,549929,26282
1229.01,1.327201,556888,26216
1232.5,1.318270,562180,27015
1235.98,1.321088,567975,27117
1239.46,1.321651,574815,27408
1242.94,1.328866,582782,27330
1246.41,1.323664,591476,28072
1251.03,1.322169,604016,28766
1254.5,1.326570,612289,28866
1257.96,1.327348,619125,29136
1261.41,1.325216,624551,29536
1264.86,1.323441,629900,29911
1268.31,1.329628,634345,29696
1271.75,1.325737,638574,30163
1276.33,1.327952,642499,30194
1279.76,1.324873,645905,30570
1283.19,1.325010,648307,30674
1286.61,1.326214,650446,30690
1290.03,1.329609,652132,30530
1293.44,1.324827,653907,30952
1296.85,1.321710,655963,31273
1301.39,1.322710,657349,31267
1304.8,1.330810,657558,30699
1308.19,1.326966,658515,31017
1311.58,1.331505,658804,30708
1314.97,1.330935,659011,30758
1318.36,1.329700,658272,30811
1321.73,1.330692,658022,30729
1326.23,1.329068,657870,30837
1329.6,1.325735,656482,31009
1332.97,1.326206,654926,30902
1336.33,1.333281,653727,30347
1339.69,1.329709,652497,30540
1343.04,1.332633,649913,30215
1346.39,1.336730,647671,29828
1349.73,1.322423,645338,30716
1354.18,1.325892,641175,30275
1357.52,1.324638,638376,30230
1360.85,1.321523,635805,30325
1364.17,1.321421,633413,30218
1367.49,1.323404,631026,29967
1370.81,1.325252,628050,29699
1374.12,1.327512,625034,29403
1378.54,1.326887,620272,29221
1381.84,1.328351,616892,28964
1385.14,1.324002,613613,29100
1388.43,1.324586,611526,28962
1391.72,1.322401,610663,29067
1395.01,1.322485,610634,29060
1398.29,1.322750,611700,29093
1402.66,1.327713,614051,28873
1405.93,1.331389,616268,28733
1409.2,1.321435,617795,29472
1412.46,1.328829,618872,29025
1415.72,1.328161,619795,29113
1418.98,1.330475,620495,28991
1422.23,1.327041,621087,29249
1426.56,1.328224,621375,29183
1429.8,1.331484,621616,28976
1433.04,1.331273,622129,29014
1436.27,1.333931,621526,28809
1439.5,1.331162,621113,28974
1442.72,1.331193,620921,28963
1445.94,1.340595,620270,28313
1450.23,1.332834,618860,28758
1453.44,1.332243,617697,28743
1456.64,1.332127,616264,28684
1459.85,1.334959,614413,28412
1463.04,1.332399,612307,28482
1466.24,1.335242,610032,28191
1469.43,1.327540,607345,28569
1473.67,1.334177,603789,27971
1476.85,1.332852,601175,27935
1480.02,1.338760,597737,27400
1483.19,1.333968,594479,27553
1486.36,1.339029,591232,27085
1489.52,1.329904,587853,27502
1492.68,1.336971,583875,26875
1496.89,1.331190,578062,26964
1500.03,1.334575,574159,26574
1503.18,1.331635,570285,26574
1506.32,1.332682,565444,26285
1509.45,1.331824,560571,26110
1512.58,1.336661,555821,25602
1515.71,1.334998,550344,25447
1519.87,1.336708,543983,25054
1522.99,1.335129,538764,24904
1526.1,1.331388,533692,24883
1529.21,1.336983,527902,24298
1532.32,1.340743,521886,23814
1535.42,1.333123,515888,23957
1538.51,1.335716,509987,23542
1541.6,1.332103,503936,23457
1545.72,1.328194,494694,23235
1548.8,1.328485,488378,22923
1551.88,1.327559,481832,22664
1554.95,1.344306,474989,21497
1558.02,1.330506,467818,21856
1561.08,1.328390,460730,21630
1564.15,1.330391,454170,21224
1568.22,1.334220,444181,20575
1571.27,1.335486,436947,20181
1574.32,1.334078,429598,19906
1577.36,1.321617,422039,20125
1580.4,1.328720,414375,19439
1583.43,1.331387,406354,18946
1586.46,1.333229,398475,18500
1590.49,1.326933,388982,18323
1593.51,1.328103,380708,17885
1596.53,1.321117,372727,17794
1599.54,1.335455,365060,16862
1602.55,1.324107,357543,16952
1605.55,1.325352,349495,16523
1608.55,1.327421,341154,16052
1612.54,1.322551,330877,15744
1615.53,1.316450,322904,15582
1618.51,1.322611,315116,14992
1621.49,1.330624,307217,14349
1624.47,1.314822,299481,14506
1627.44,1.317873,292112,14050
1630.41,1.318751,284245,13644
1634.36,1.318290,274079,13170
1637.32,1.318046,266916,12833
1640.27,1.311034,259612,12685
1643.22,1.317059,251804,12134
1646.16,1.308683,244348,12004
1649.1,1.309596,236703,11604
1652.04,1.303073,228171,11355
1655.95,1.298473,215408,10834
1658.88,1.296722,204937,10349
1661.8,1.282985,193395,10080
1664.72,1.254833,179728,9995
1667.63,1.251005,163642,9181
1670.54,1.214477,146312,8929
1673.44,1.175909,128451,8567
1677.31,1.176360,105080,7001
1680.21,1.133287,88906,6541
1683.1,1.123973,75033,5640
1685.99,1.099275,63520,5054
1688.87,1.100168,53714,4265
1691.75,1.095395,45653,3665
1694.62,1.147295,39137,2788
1697.49,1.140152,33776,2446
1701.31,1.139171,28175,2045