Folder: textile_sorting_NIRSCAN_/ML/samples/unknown (part 87)

File: Column 1_078611_20241121_171113.csv
Method:,Column 1,,
Host Date-Time:,21/11/24 @ 17:11:13,,
Header Version:,1,,
System Temp (C):,36.82,,
Detector Temp (C):,35.09,,
Humidity (%):,0.83,,
Lamp PD:,3798,,
Shift Vector Coefficients:,-10.5391,0.0761263,-0.000134223,,
Pixel to Wavelength Coefficients:,1775.68,-0.916766,-0.000235065,,
Serial Number:,5510004,,
Scan Config Name:,Column 1,,
Scan Config Type:,Slew,,
Section 1,,
Start wavelength (nm):,900,,
End wavelength (nm):,1700,,
Pattern Pixel Width (nm):,   7.03,,,,
Exposure (ms):,  0.635,,,,
Digital Resolution:,228,,
Num Repeats:,6,,
PGA Gain:,64,,
Total Measurement Time in sec:,  2.730,,
Wavelength (nm),Absorbance (AU),Reference Signal (unitless),Sample Signal (unitless)
901.51,1.325930,108485,5122
905.376,1.334842,121306,5611
909.237,1.326275,131909,6223
913.095,1.311145,143299,7000
916.948,1.350628,156982,7002
922.079,1.341784,179937,8191
925.923,1.327381,200504,9435
929.762,1.317772,222660,10712
933.597,1.322232,244426,11639
937.427,1.322914,263972,12550
941.254,1.317430,281845,13570
945.076,1.321967,297271,14164
950.165,1.308644,315605,15506
953.978,1.321953,328029,15630
957.786,1.313517,340470,16541
961.59,1.308938,352317,17298
965.389,1.297072,363056,18319
969.185,1.306655,373162,18418
972.976,1.302772,382632,19055
976.763,1.300877,391202,19567
981.806,1.306963,400190,19738
985.583,1.309091,406088,19931
989.355,1.301647,410162,20479
993.124,1.301544,412868,20619
996.888,1.303219,414263,20609
1000.65,1.306347,415476,20521
1004.4,1.305420,415479,20565
1009.41,1.311380,414358,20230
1013.15,1.303882,412923,20511
1016.89,1.306132,411526,20336
1020.63,1.308749,409066,20093
1024.36,1.313174,406777,19778
1028.09,1.305788,404427,20001
1031.82,1.306698,401911,19835
1036.78,1.309272,398410,19546
1040.49,1.309022,396204,19449
1044.2,1.307105,394236,19438
1047.91,1.310597,392042,19175
1051.61,1.298080,389823,19624
1055.31,1.302143,388234,19362
1059,1.305647,387599,19175
1063.92,1.308767,386688,18993
1067.61,1.308118,386598,19017
1071.29,1.310227,387377,18963
1074.96,1.302997,388536,19339
1078.63,1.313592,389855,18937
1082.3,1.328070,391215,18380
1085.96,1.311487,393215,19193
1090.84,1.315913,396270,19146
1094.49,1.309631,398760,19547
1098.14,1.310409,400987,19621
1101.79,1.311154,403477,19709
1105.43,1.307642,406116,19999
1109.06,1.319106,407701,19554
1112.7,1.317155,409859,19746
1117.53,1.314931,412494,19975
1121.15,1.314649,414909,20105
1124.77,1.318169,416559,20022
1128.38,1.312439,418532,20384
1131.99,1.315430,419956,20313
1135.6,1.313270,421946,20511
1139.2,1.327040,423881,19962
1143.99,1.328074,426786,20051
1147.58,1.317802,428617,20619
1151.17,1.315000,431169,20876
1154.75,1.322506,433579,20633
1158.33,1.322648,436264,20754
1161.91,1.319962,439132,21020
1165.48,1.313730,442389,21482
1169.04,1.317136,446101,21493
1173.79,1.317391,451929,21761
1177.34,1.314853,456026,22087
1180.9,1.318478,461306,22157
1184.44,1.315377,467657,22623
1187.99,1.313154,473969,23046
1191.52,1.322510,479856,22835
1195.06,1.324249,487372,23100
1199.76,1.322406,497347,23673
1203.29,1.319404,504311,24171
1206.81,1.319544,511507,24508
1210.33,1.318267,519078,24944
1213.84,1.322825,527163,25068
1217.35,1.330535,534208,24956
1220.85,1.326369,540472,25492
1225.51,1.317979,549929,26444
1229.01,1.316678,556888,26859
1232.5,1.319655,562180,26929
1235.98,1.322178,567975,27049
1239.46,1.322507,574815,27354
1242.94,1.324660,582782,27596
1246.41,1.314782,591476,28652
1251.03,1.342063,604016,27478
1254.5,1.322661,612289,29127
1257.96,1.325133,619125,29285
1261.41,1.325967,624551,29485
1264.86,1.333993,629900,29193
1268.31,1.324611,634345,30041
1271.75,1.327396,638574,30048
1276.33,1.323544,642499,30502
1279.76,1.322451,645905,30741
1283.19,1.323413,648307,30787
1286.61,1.321178,650446,31048
1290.03,1.323128,652132,30989
1293.44,1.323091,653907,31076
1296.85,1.328752,655963,30770
1301.39,1.324157,657349,31163
1304.8,1.329087,657558,30821
1308.19,1.325442,658515,31126
1311.58,1.327072,658804,31023
1314.97,1.330215,659011,30809
1318.36,1.330659,658272,30743
1321.73,1.330494,658022,30743
1326.23,1.329519,657870,30805
1329.6,1.327841,656482,30859
1332.97,1.332876,654926,30431
1336.33,1.330912,653727,30513
1339.69,1.333093,652497,30303
1343.04,1.326212,649913,30665
1346.39,1.330242,647671,30277
1349.73,1.326029,645338,30462
1354.18,1.326754,641175,30215
1357.52,1.323978,638376,30276
1360.85,1.330056,635805,29735
1364.17,1.326714,633413,29852
1367.49,1.322116,631026,30056
1370.81,1.320699,628050,30012
1374.12,1.317814,625034,30067
1378.54,1.321966,620272,29554
1381.84,1.318932,616892,29599
1385.14,1.320938,613613,29306
1388.43,1.326254,611526,28851
1391.72,1.325039,610663,28891
1395.01,1.326358,610634,28802
1398.29,1.327523,611700,28775
1402.66,1.327141,614051,28911
1405.93,1.318566,616268,29594
1409.2,1.327698,617795,29050
1412.46,1.327962,618872,29083
1415.72,1.354466,619795,27402
1418.98,1.331690,620495,28910
1422.23,1.329394,621087,29091
1426.56,1.333178,621375,28852
1429.8,1.332099,621616,28935
1433.04,1.333930,622129,28837
1436.27,1.332862,621526,28880
1439.5,1.327476,621113,29221
1442.72,1.329487,620921,29077
1445.94,1.333294,620270,28793
1450.23,1.328895,618860,29020
1453.44,1.330660,617697,28848
1456.64,1.328388,616264,28932
1459.85,1.337457,614413,28249
1463.04,1.336505,612307,28214
1466.24,1.330310,610032,28513
1469.43,1.330944,607345,28346
1473.67,1.332596,603789,28073
1476.85,1.339226,601175,27528
1480.02,1.333059,597737,27762
1483.19,1.329093,594479,27864
1486.36,1.333595,591232,27426
1489.52,1.331170,587853,27422
1492.68,1.336858,583875,26882
1496.89,1.333807,578062,26802
1500.03,1.335393,574159,26524
1503.18,1.331145,570285,26604
1506.32,1.339862,565444,25854
1509.45,1.336019,560571,25859
1512.58,1.337119,555821,25575
1515.71,1.334946,550344,25450
1519.87,1.334357,543983,25190
1522.99,1.330740,538764,25157
1526.1,1.335174,533692,24667
1529.21,1.328697,527902,24766
1532.32,1.338796,521886,23921
1535.42,1.329243,515888,24172
1538.51,1.338882,509987,23371
1541.6,1.331030,503936,23515
1545.72,1.333384,494694,22959
1548.8,1.331985,488378,22739
1551.88,1.333618,481832,22350
1554.95,1.334340,474989,21996
1558.02,1.327891,467818,21988
1561.08,1.328009,460730,21649
1564.15,1.331826,454170,21154
1568.22,1.331464,444181,20706
1571.27,1.332185,436947,20335
1574.32,1.336134,429598,19812
1577.36,1.329104,422039,19781
1580.4,1.326336,414375,19546
1583.43,1.332834,406354,18883
1586.46,1.338781,398475,18265
1590.49,1.330145,388982,18188
1593.51,1.327133,380708,17925
1596.53,1.324449,372727,17658
1599.54,1.336719,365060,16813
1602.55,1.318609,357543,17168
1605.55,1.319426,349495,16750
1608.55,1.327638,341154,16044
1612.54,1.312005,330877,16131
1615.53,1.316506,322904,15580
1618.51,1.318746,315116,15126
1621.49,1.322082,307217,14634
1624.47,1.315031,299481,14499
1627.44,1.322129,292112,13913
1630.41,1.327626,284245,13368
1634.36,1.302012,274079,13673
1637.32,1.331031,266916,12455
1640.27,1.303163,259612,12917
1643.22,1.298046,251804,12677
1646.16,1.305654,244348,12088
1649.1,1.311622,236703,11550
1652.04,1.320754,228171,10902
1655.95,1.303229,215408,10716
1658.88,1.283985,204937,10657
1661.8,1.284193,193395,10052
1664.72,1.267934,179728,9698
1667.63,1.237316,163642,9475
1670.54,1.241208,146312,8396
1673.44,1.194659,128451,8205
1677.31,1.182105,105080,6909
1680.21,1.171142,88906,5995
1683.1,1.172219,75033,5047
1685.99,1.153965,63520,4456
1688.87,1.157332,53714,3739
1691.75,1.190089,45653,2947
1694.62,1.172962,39137,2628
1697.49,1.137673,33776,2460
1701.31,1.113204,28175,2171

File: Column 1_078613_20241121_171119.csv
Method:,Column 1,,
Host Date-Time:,21/11/24 @ 17:11:19,,
Header Version:,1,,
System Temp (C):,36.92,,
Detector Temp (C):,35.1,,
Humidity (%):,0.73,,
Lamp PD:,3797,,
Shift Vector Coefficients:,-10.5391,0.0761263,-0.000134223,,
Pixel to Wavelength Coefficients:,1775.68,-0.916766,-0.000235065,,
Serial Number:,5510004,,
Scan Config Name:,Column 1,,
Scan Config Type:,Slew,,
Section 1,,
Start wavelength (nm):,900,,
End wavelength (nm):,1700,,
Pattern Pixel Width (nm):,   7.03,,,,
Exposure (ms):,  0.635,,,,
Digital Resolution:,228,,
Num Repeats:,6,,
PGA Gain:,64,,
Total Measurement Time in sec:,  2.724,,
Wavelength (nm),Absorbance (AU),Reference Signal (unitless),Sample Signal (unitless)
901.51,1.328396,108485,5093
905.376,1.337871,121306,5572
909.237,1.297649,131909,6647
913.095,1.301148,143299,7163
916.948,1.330154,156982,7340
922.079,1.300010,179937,9018
925.923,1.315172,200504,9704
929.762,1.323444,222660,10573
933.597,1.313660,244426,11871
937.427,1.304452,263972,13095
941.254,1.324074,281845,13364
945.076,1.312144,297271,14488
950.165,1.324299,315605,14957
953.978,1.310681,328029,16041
957.786,1.319545,340470,16313
961.59,1.311784,352317,17185
965.389,1.306830,363056,17912
969.185,1.309470,373162,18299
972.976,1.303662,382632,19016
976.763,1.293963,391202,19881
981.806,1.298638,400190,20120
985.583,1.302946,406088,20215
989.355,1.298225,410162,20641
993.124,1.307460,412868,20340
996.888,1.308840,414263,20344
1000.65,1.298961,415476,20873
1004.4,1.302915,415479,20684
1009.41,1.303551,414358,20598
1013.15,1.305006,412923,20458
1016.89,1.300193,411526,20616
1020.63,1.297442,409066,20623
1024.36,1.299067,406777,20431
1028.09,1.299944,404427,20272
1031.82,1.307289,401911,19808
1036.78,1.298346,398410,20044
1040.49,1.298630,396204,19920
1044.2,1.303545,394236,19598
1047.91,1.299352,392042,19678
1051.61,1.306820,389823,19233
1055.31,1.308720,388234,19071
1059,1.302016,387599,19336
1063.92,1.312418,386688,18834
1067.61,1.308346,386598,19007
1071.29,1.300668,387377,19385
1074.96,1.308944,388536,19076
1078.63,1.307760,389855,19193
1082.3,1.303005,391215,19472
1085.96,1.313642,393215,19098
1090.84,1.309116,396270,19448
1094.49,1.311413,398760,19467
1098.14,1.307805,400987,19739
1101.79,1.318936,403477,19359
1105.43,1.307034,406116,20027
1109.06,1.302867,407701,20299
1112.7,1.312191,409859,19973
1117.53,1.308585,412494,20269
1121.15,1.315124,414909,20083
1124.77,1.308135,416559,20490
1128.38,1.308853,418532,20553
1131.99,1.310794,419956,20531
1135.6,1.311116,421946,20613
1139.2,1.316020,423881,20475
1143.99,1.320559,426786,20401
1147.58,1.313359,428617,20831
1151.17,1.314564,431169,20897
1154.75,1.313177,433579,21081
1158.33,1.314583,436264,21143
1161.91,1.309067,439132,21554
1165.48,1.311270,442389,21604
1169.04,1.308830,446101,21908
1173.79,1.319813,451929,21640
1177.34,1.308257,456026,22425
1180.9,1.308289,461306,22683
1184.44,1.314668,467657,22660
1187.99,1.306553,473969,23399
1191.52,1.315417,479856,23211
1195.06,1.310026,487372,23869
1199.76,1.314066,497347,24132
1203.29,1.316967,504311,24307
1206.81,1.320626,511507,24447
1210.33,1.321026,519078,24786
1213.84,1.322548,527163,25084
1217.35,1.320353,534208,25548
1220.85,1.319775,540472,25882
1225.51,1.317635,549929,26465
1229.01,1.326291,556888,26271
1232.5,1.316234,562180,27142
1235.98,1.321632,567975,27083
1239.46,1.322698,574815,27342
1242.94,1.320011,582782,27893
1246.41,1.318084,591476,28435
1251.03,1.313366,604016,29355
1254.5,1.317901,612289,29448
1257.96,1.319139,619125,29692
1261.41,1.317955,624551,30034
1264.86,1.320085,629900,30143
1268.31,1.322736,634345,30171
1271.75,1.320840,638574,30505
1276.33,1.322748,642499,30558
1279.76,1.322267,645905,30754
1283.19,1.325180,648307,30662
1286.61,1.327916,650446,30570
1290.03,1.324251,652132,30909
1293.44,1.324350,653907,30986
1296.85,1.327526,655963,30857
1301.39,1.323029,657349,31244
1304.8,1.328172,657558,30886
1308.19,1.324717,658515,31178
1311.58,1.324365,658804,31217
1314.97,1.324933,659011,31186
1318.36,1.325743,658272,31093
1321.73,1.328057,658022,30916
1326.23,1.321155,657870,31404
1329.6,1.324728,656482,31081
1332.97,1.320412,654926,31317
1336.33,1.323923,653727,31008
1339.69,1.325675,652497,30825
1343.04,1.327318,649913,30587
1346.39,1.321733,647671,30876
1349.73,1.320631,645338,30843
1354.18,1.324503,641175,30372
1357.52,1.319057,638376,30621
1360.85,1.329866,635805,29748
1364.17,1.326641,633413,29857
1367.49,1.323970,631026,29928
1370.81,1.323166,628050,29842
1374.12,1.321731,625034,29797
1378.54,1.321966,620272,29554
1381.84,1.320387,616892,29500
1385.14,1.323033,613613,29165
1388.43,1.320631,611526,29227
1391.72,1.321223,610663,29146
1395.01,1.326343,610634,28803
1398.29,1.322899,611700,29083
1402.66,1.327592,614051,28881
1405.93,1.322858,616268,29303
1409.2,1.326236,617795,29148
1412.46,1.324867,618872,29291
1415.72,1.326761,619795,29207
1418.98,1.324997,620495,29359
1422.23,1.322360,621087,29566
1426.56,1.331645,621375,28954
1429.8,1.330765,621616,29024
1433.04,1.328899,622129,29173
1436.27,1.332637,621526,28895
1439.5,1.327178,621113,29241
1442.72,1.331178,620921,28964
1445.94,1.327793,620270,29160
1450.23,1.325110,618860,29274
1453.44,1.326853,617697,29102
1456.64,1.328689,616264,28912
1459.85,1.331912,614413,28612
1463.04,1.327200,612307,28825
1466.24,1.328820,610032,28611
1469.43,1.329430,607345,28445
1473.67,1.328271,603789,28354
1476.85,1.329847,601175,28129
1480.02,1.333263,597737,27749
1483.19,1.328454,594479,27905
1486.36,1.328933,591232,27722
1489.52,1.336412,587853,27093
1492.68,1.331863,583875,27193
1496.89,1.331464,578062,26947
1500.03,1.334363,574159,26587
1503.18,1.336582,570285,26273
1506.32,1.327459,565444,26603
1509.45,1.331358,560571,26138
1512.58,1.330179,555821,25987
1515.71,1.327586,550344,25885
1519.87,1.328892,543983,25509
1522.99,1.325387,538764,25469
1526.1,1.332489,533692,24820
1529.21,1.329259,527902,24734
1532.32,1.337654,521886,23984
1535.42,1.326146,515888,24345
1538.51,1.329652,509987,23873
1541.6,1.324614,503936,23865
1545.72,1.331590,494694,23054
1548.8,1.328409,488378,22927
1551.88,1.322473,481832,22931
1554.95,1.323075,474989,22574
1558.02,1.332558,467818,21753
1561.08,1.329033,460730,21598
1564.15,1.328696,454170,21307
1568.22,1.336930,444181,20447
1571.27,1.328908,436947,20489
1574.32,1.321075,429598,20511
1577.36,1.327636,422039,19848
1580.4,1.326469,414375,19540
1583.43,1.320901,406354,19409
1586.46,1.328745,398475,18692
1590.49,1.328048,388982,18276
1593.51,1.320783,380708,18189
1596.53,1.319266,372727,17870
1599.54,1.322040,365060,17391
1602.55,1.316338,357543,17258
1605.55,1.321245,349495,16680
1608.55,1.323972,341154,16180
1612.54,1.325986,330877,15620
1615.53,1.317148,322904,15557
1618.51,1.313467,315116,15311
1621.49,1.319833,307217,14710
1624.47,1.310710,299481,14644
1627.44,1.314302,292112,14166
1630.41,1.305460,284245,14068
1634.36,1.310350,274079,13413
1637.32,1.321307,266916,12737
1640.27,1.330786,259612,12121
1643.22,1.321520,251804,12010
1646.16,1.322653,244348,11624
1649.1,1.305424,236703,11716
1652.04,1.299569,228171,11447
1655.95,1.298954,215408,10822
1658.88,1.308591,204937,10070
1661.8,1.282038,193395,10102
1664.72,1.277350,179728,9490
1667.63,1.255857,163642,9079
1670.54,1.219516,146312,8826
1673.44,1.204671,128451,8018
1677.31,1.178537,105080,6966
1680.21,1.194965,88906,5675
1683.1,1.164966,75033,5132
1685.99,1.135177,63520,4653
1688.87,1.143050,53714,3864
1691.75,1.134036,45653,3353
1694.62,1.094967,39137,3145
1697.49,1.175462,33776,2255
1701.31,1.156722,28175,1964

File: Column 1_078617_20241121_171131.csv
Method:,Column 1,,
Host Date-Time:,21/11/24 @ 17:11:31,,
Header Version:,1,,
System Temp (C):,36.5,,
Detector Temp (C):,35.12,,
Humidity (%):,0.68,,
Lamp PD:,3798,,
Shift Vector Coefficients:,-10.5391,0.0761263,-0.000134223,,
Pixel to Wavelength Coefficients:,1775.68,-0.916766,-0.000235065,,
Serial Number:,5510004,,
Scan Config Name:,Column 1,,
Scan Config Type:,Slew,,
Section 1,,
Start wavelength (nm):,900,,
End wavelength (nm):,1700,,
Pattern Pixel Width (nm):,   7.03,,,,
Exposure (ms):,  0.635,,,,
Digital Resolution:,228,,
Num Repeats:,6,,
PGA Gain:,64,,
Total Measurement Time in sec:,  2.729,,
Wavelength (nm),Absorbance (AU),Reference Signal (unitless),Sample Signal (unitless)
901.51,1.334493,108485,5022
905.376,1.315762,121306,5863
909.237,1.346123,131909,5945
913.095,1.325462,143299,6773
916.948,1.335991,156982,7242
922.079,1.320067,179937,8611
925.923,1.321256,200504,9569
929.762,1.324102,222660,10557
933.597,1.319776,244426,11705
937.427,1.325517,263972,12475
941.254,1.322906,281845,13400
945.076,1.311904,297271,14496
950.165,1.317987,315605,15176
953.978,1.317805,328029,15780
957.786,1.311343,340470,16624
961.59,1.307059,352317,17373
965.389,1.302031,363056,18111
969.185,1.305172,373162,18481
972.976,1.299638,382632,19193
976.763,1.301432,391202,19542
981.806,1.309966,400190,19602
985.583,1.301531,406088,20281
989.355,1.307991,410162,20182
993.124,1.300828,412868,20653
996.888,1.306180,414263,20469
1000.65,1.300232,415476,20812
1004.4,1.305949,415479,20540
1009.41,1.306237,414358,20471
1013.15,1.311810,412923,20140
1016.89,1.305065,411526,20386
1020.63,1.310742,409066,20001
1024.36,1.303489,406777,20224
1028.09,1.309627,404427,19825
1031.82,1.307794,401911,19785
1036.78,1.316803,398410,19210
1040.49,1.308575,396204,19469
1044.2,1.313202,394236,19167
1047.91,1.310009,392042,19201
1051.61,1.309311,389823,19123
1055.31,1.305792,388234,19200
1059,1.303997,387599,19248
1063.92,1.315891,386688,18684
1067.61,1.308758,386598,18989
1071.29,1.305625,387377,19165
1074.96,1.310541,388536,19006
1078.63,1.303124,389855,19399
1082.3,1.308549,391215,19225
1085.96,1.316563,393215,18970
1090.84,1.310974,396270,19365
1094.49,1.315830,398760,19270
1098.14,1.320599,400987,19166
1101.79,1.318801,403477,19365
1105.43,1.319597,406116,19456
1109.06,1.314357,407701,19769
1112.7,1.314218,409859,19880
1117.53,1.317417,412494,19861
1121.15,1.313570,414909,20155
1124.77,1.320082,416559,19934
1128.38,1.318165,418532,20117
1131.99,1.315622,419956,20304
1135.6,1.323056,421946,20054
1139.2,1.315194,423881,20514
1143.99,1.322522,426786,20309
1147.58,1.316183,428617,20696
1151.17,1.318509,431169,20708
1154.75,1.313734,433579,21054
1158.33,1.325482,436264,20619
1161.91,1.318354,439132,21098
1165.48,1.311874,442389,21574
1169.04,1.314678,446101,21615
1173.79,1.311248,451929,22071
1177.34,1.319002,456026,21877
1180.9,1.317538,461306,22205
1184.44,1.314878,467657,22649
1187.99,1.321718,473969,22596
1191.52,1.313531,479856,23312
1195.06,1.314691,487372,23614
1199.76,1.322571,497347,23664
1203.29,1.317164,504311,24296
1206.81,1.314067,511507,24819
1210.33,1.311289,519078,25348
1213.84,1.318979,527163,25291
1217.35,1.325587,534208,25242
1220.85,1.317533,540472,26016
1225.51,1.315556,549929,26592
1229.01,1.323786,556888,26423
1232.5,1.323738,562180,26677
1235.98,1.318851,567975,27257
1239.46,1.319438,574815,27548
1242.94,1.322619,582782,27726
1246.41,1.318053,591476,28437
1251.03,1.319985,604016,28911
1254.5,1.320593,612289,29266
1257.96,1.322251,619125,29480
1261.41,1.320842,624551,29835
1264.86,1.321630,629900,30036
1268.31,1.326088,634345,29939
1271.75,1.324500,638574,30249
1276.33,1.317563,642499,30925
1279.76,1.322550,645905,30734
1283.19,1.324331,648307,30722
1286.61,1.322438,650446,30958
1290.03,1.324363,652132,30901
1293.44,1.329270,653907,30637
1296.85,1.319480,655963,31434
1301.39,1.328682,657349,30840
1304.8,1.324825,657558,31125
1308.19,1.331484,658515,30696
1311.58,1.327829,658804,30969
1314.97,1.321244,659011,31452
1318.36,1.326512,658272,31038
1321.73,1.329168,658022,30837
1326.23,1.329251,657870,30824
1329.6,1.326296,656482,30969
1332.97,1.322776,654926,31147
1336.33,1.325073,653727,30926
1339.69,1.329070,652497,30585
1343.04,1.324827,649913,30763
1346.39,1.326998,647671,30504
1349.73,1.328072,645338,30319
1354.18,1.326179,641175,30255
1357.52,1.327247,638376,30049
1360.85,1.325162,635805,30072
1364.17,1.326743,633413,29850
1367.49,1.327598,631026,29679
1370.81,1.322803,628050,29867
1374.12,1.325390,625034,29547
1378.54,1.316780,620272,29909
1381.84,1.321050,616892,29455
1385.14,1.325392,613613,29007
1388.43,1.326390,611526,28842
1391.72,1.327421,610663,28733
1395.01,1.320919,610634,29165
1398.29,1.329399,611700,28651
1402.66,1.321975,614051,29257
1405.93,1.322976,616268,29295
1409.2,1.324377,617795,29273
1412.46,1.328978,618872,29015
1415.72,1.330975,619795,28925
1418.98,1.328950,620495,29093
1422.23,1.329797,621087,29064
1426.56,1.335094,621375,28725
1429.8,1.332159,621616,28931
1433.04,1.330077,622129,29094
1436.27,1.324935,621526,29412
1439.5,1.329069,621113,29114
1442.72,1.329935,620921,29047
1445.94,1.325787,620270,29295
1450.23,1.332758,618860,28763
1453.44,1.325482,617697,29194
1456.64,1.332703,616264,28646
1459.85,1.335203,614413,28396
1463.04,1.330406,612307,28613
1466.24,1.334011,610032,28271
1469.43,1.326599,607345,28631
1473.67,1.333076,603789,28042
1476.85,1.335691,601175,27753
1480.02,1.328159,597737,28077
1483.19,1.334962,594479,27490
1486.36,1.341199,591232,26950
1489.52,1.339258,587853,26916
1492.68,1.335584,583875,26961
1496.89,1.334894,578062,26735
1500.03,1.335835,574159,26497
1503.18,1.332158,570285,26542
1506.32,1.333293,565444,26248
1509.45,1.335247,560571,25905
1512.58,1.332726,555821,25835
1515.71,1.333600,550344,25529
1519.87,1.333255,543983,25254
1522.99,1.337613,538764,24762
1526.1,1.332997,533692,24791
1529.21,1.335306,527902,24392
1532.32,1.326588,521886,24603
1535.42,1.341913,515888,23477
1538.51,1.329288,509987,23893
1541.6,1.339422,503936,23065
1545.72,1.324954,494694,23409
1548.8,1.325596,488378,23076
1551.88,1.330231,481832,22525
1554.95,1.333807,474989,22023
1558.02,1.334278,467818,21667
1561.08,1.329476,460730,21576
1564.15,1.327455,454170,21368
1568.22,1.328475,444181,20849
1571.27,1.325572,436947,20647
1574.32,1.343786,429598,19466
1577.36,1.324236,422039,20004
1580.4,1.335361,414375,19144
1583.43,1.326328,406354,19168
1586.46,1.322861,398475,18947
1590.49,1.320580,388982,18593
1593.51,1.325440,380708,17995
1596.53,1.326866,372727,17560
1599.54,1.325474,365060,17254
1602.55,1.323902,357543,16960
1605.55,1.328677,349495,16397
1608.55,1.322846,341154,16222
1612.54,1.332738,330877,15379
1615.53,1.320145,322904,15450
1618.51,1.318373,315116,15139
1621.49,1.318094,307217,14769
1624.47,1.317344,299481,14422
1627.44,1.313904,292112,14179
1630.41,1.311397,284245,13877
1634.36,1.326176,274079,12933
1637.32,1.321956,266916,12718
1640.27,1.319330,259612,12445
1643.22,1.319499,251804,12066
1646.16,1.303075,244348,12160
1649.1,1.310345,236703,11584
1652.04,1.310091,228171,11173
1655.95,1.295596,215408,10906
1658.88,1.293045,204937,10437
1661.8,1.280922,193395,10128
1664.72,1.308065,179728,8842
1667.63,1.244898,163642,9311
1670.54,1.219762,146312,8821
1673.44,1.198166,128451,8139
1677.31,1.164791,105080,7190
1680.21,1.151110,88906,6278
1683.1,1.143825,75033,5388
1685.99,1.150761,63520,4489
1688.87,1.162591,53714,3694
1691.75,1.168108,45653,3100
1694.62,1.157380,39137,2724
1697.49,1.151484,33776,2383
1701.31,1.171339,28175,1899