Folder: textile_sorting_NIRSCAN_/ML/samples/unknown (part 38)

File: Column 1_078241_20241121_165224.csv
Method:,Column 1,,
Host Date-Time:,21/11/24 @ 16:52:24,,
Header Version:,1,,
System Temp (C):,34.14,,
Detector Temp (C):,31.6,,
Humidity (%):,2.55,,
Lamp PD:,3803,,
Shift Vector Coefficients:,-10.5391,0.0761263,-0.000134223,,
Pixel to Wavelength Coefficients:,1775.68,-0.916766,-0.000235065,,
Serial Number:,5510004,,
Scan Config Name:,Column 1,,
Scan Config Type:,Slew,,
Section 1,,
Start wavelength (nm):,900,,
End wavelength (nm):,1700,,
Pattern Pixel Width (nm):,   7.03,,,,
Exposure (ms):,  0.635,,,,
Digital Resolution:,228,,
Num Repeats:,6,,
PGA Gain:,64,,
Total Measurement Time in sec:,  2.717,,
Wavelength (nm),Absorbance (AU),Reference Signal (unitless),Sample Signal (unitless)
901.51,1.333112,108485,5038
905.376,1.321129,121306,5791
909.237,1.314978,131909,6387
913.095,1.312637,143299,6976
916.948,1.310319,156982,7683
922.079,1.309307,179937,8827
925.923,1.307015,200504,9888
929.762,1.318746,222660,10688
933.597,1.317297,244426,11772
937.427,1.322914,263972,12550
941.254,1.331812,281845,13128
945.076,1.308146,297271,14622
950.165,1.320455,315605,15090
953.978,1.310140,328029,16061
957.786,1.320958,340470,16260
961.59,1.304715,352317,17467
965.389,1.314905,363056,17582
969.185,1.315108,373162,18063
972.976,1.307585,382632,18845
976.763,1.309915,391202,19164
981.806,1.300976,400190,20012
985.583,1.308960,406088,19937
989.355,1.308508,410162,20158
993.124,1.308936,412868,20271
996.888,1.309802,414263,20299
1000.65,1.306898,415476,20495
1004.4,1.308536,415479,20418
1009.41,1.306725,414358,20448
1013.15,1.297848,412923,20798
1016.89,1.312088,411526,20059
1020.63,1.303784,409066,20324
1024.36,1.304478,406777,20178
1028.09,1.319688,404427,19371
1031.82,1.308937,401911,19733
1036.78,1.310496,398410,19491
1040.49,1.302066,396204,19763
1044.2,1.311754,394236,19231
1047.91,1.313278,392042,19057
1051.61,1.310244,389823,19082
1055.31,1.316672,388234,18725
1059,1.318800,387599,18603
1063.92,1.301556,386688,19311
1067.61,1.302874,386598,19248
1071.29,1.312546,387377,18862
1074.96,1.309582,388536,19048
1078.63,1.319178,389855,18695
1082.3,1.312908,391215,19033
1085.96,1.311849,393215,19177
1090.84,1.309831,396270,19416
1094.49,1.326161,398760,18817
1098.14,1.323099,400987,19056
1101.79,1.314383,403477,19563
1105.43,1.322620,406116,19321
1109.06,1.318041,407701,19602
1112.7,1.320423,409859,19598
1117.53,1.332026,412494,19204
1121.15,1.326584,414909,19560
1124.77,1.313788,416559,20225
1128.38,1.317950,418532,20127
1131.99,1.323675,419956,19931
1135.6,1.313779,421946,20487
1139.2,1.323055,423881,20146
1143.99,1.319050,426786,20472
1147.58,1.318118,428617,20604
1151.17,1.324826,431169,20409
1154.75,1.320427,433579,20732
1158.33,1.310189,436264,21358
1161.91,1.315175,439132,21253
1165.48,1.307089,442389,21813
1169.04,1.313554,446101,21671
1173.79,1.326405,451929,21314
1177.34,1.322490,456026,21702
1180.9,1.323010,461306,21927
1184.44,1.324514,467657,22152
1187.99,1.323683,473969,22494
1191.52,1.320839,479856,22923
1195.06,1.326114,487372,23001
1199.76,1.326757,497347,23437
1203.29,1.320105,504311,24132
1206.81,1.321889,511507,24376
1210.33,1.320693,519078,24805
1213.84,1.320958,527163,25176
1217.35,1.319657,534208,25589
1220.85,1.321591,540472,25774
1225.51,1.327745,549929,25856
1229.01,1.321589,556888,26557
1232.5,1.325337,562180,26579
1235.98,1.324286,567975,26918
1239.46,1.322666,574815,27344
1242.94,1.328200,582782,27372
1246.41,1.325245,591476,27970
1251.03,1.323484,604016,28679
1254.5,1.325383,612289,28945
1257.96,1.326767,619125,29175
1261.41,1.327841,624551,29358
1264.86,1.329170,629900,29519
1268.31,1.324380,634345,30057
1271.75,1.325578,638574,30174
1276.33,1.333074,642499,29840
1279.76,1.333670,645905,29957
1283.19,1.330195,648307,30310
1286.61,1.331912,650446,30290
1290.03,1.331848,652132,30373
1293.44,1.334504,653907,30270
1296.85,1.331627,655963,30567
1301.39,1.330022,657349,30745
1304.8,1.329905,657558,30763
1308.19,1.330777,658515,30746
1311.58,1.336197,658804,30378
1314.97,1.335120,659011,30463
1318.36,1.336318,658272,30345
1321.73,1.332576,658022,30596
1326.23,1.334040,657870,30486
1329.6,1.331800,656482,30579
1332.97,1.327022,654926,30844
1336.33,1.333166,653727,30355
1339.69,1.330834,652497,30461
1343.04,1.331126,649913,30320
1346.39,1.336003,647671,29878
1349.73,1.331827,645338,30058
1354.18,1.329334,641175,30036
1357.52,1.330118,638376,29851
1360.85,1.329954,635805,29742
1364.17,1.326830,633413,29844
1367.49,1.331537,631026,29411
1370.81,1.328099,628050,29505
1374.12,1.323337,625034,29687
1378.54,1.326100,620272,29274
1381.84,1.332161,616892,28711
1385.14,1.329529,613613,28732
1388.43,1.331860,611526,28481
1391.72,1.325746,610663,28844
1395.01,1.327657,610634,28716
1398.29,1.324605,611700,28969
1402.66,1.331095,614051,28649
1405.93,1.328812,616268,28904
1409.2,1.330112,617795,28889
1412.46,1.337992,618872,28419
1415.72,1.335412,619795,28631
1418.98,1.332006,620495,28889
1422.23,1.329678,621087,29072
1426.56,1.335759,621375,28681
1429.8,1.335807,621616,28689
1433.04,1.330077,622129,29094
1436.27,1.331136,621526,28995
1439.5,1.333582,621113,28813
1442.72,1.329532,620921,29074
1445.94,1.333158,620270,28802
1450.23,1.339300,618860,28333
1453.44,1.341235,617697,28154
1456.64,1.339548,616264,28198
1459.85,1.337750,614413,28230
1463.04,1.338943,612307,28056
1466.24,1.332585,610032,28364
1469.43,1.339375,607345,27801
1473.67,1.332225,603789,28097
1476.85,1.334706,601175,27816
1480.02,1.334093,597737,27696
1483.19,1.340959,594479,27113
1486.36,1.331652,591232,27549
1489.52,1.335899,587853,27125
1492.68,1.339760,583875,26703
1496.89,1.338810,578062,26495
1500.03,1.338994,574159,26305
1503.18,1.340001,570285,26067
1506.32,1.340114,565444,25839
1509.45,1.342465,560571,25478
1512.58,1.336525,555821,25610
1515.71,1.340027,550344,25154
1519.87,1.360764,543983,23704
1522.99,1.335478,538764,24884
1526.1,1.332069,533692,24844
1529.21,1.344010,527902,23908
1532.32,1.344314,521886,23619
1535.42,1.336563,515888,23768
1538.51,1.339980,509987,23312
1541.6,1.339893,503936,23040
1545.72,1.339882,494694,22618
1548.8,1.342892,488378,22175
1551.88,1.341857,481832,21930
1554.95,1.334774,474989,21974
1558.02,1.334358,467818,21663
1561.08,1.337767,460730,21168
1564.15,1.333719,454170,21062
1568.22,1.333019,444181,20632
1571.27,1.337665,436947,20080
1574.32,1.330190,429598,20085
1577.36,1.327526,422039,19853
1580.4,1.333753,414375,19215
1583.43,1.350603,406354,18126
1586.46,1.331122,398475,18590
1590.49,1.330049,388982,18192
1593.51,1.342069,380708,17319
1596.53,1.329297,372727,17462
1599.54,1.335429,365060,16863
1602.55,1.326831,357543,16846
1605.55,1.332748,349495,16244
1608.55,1.333140,341154,15842
1612.54,1.317696,330877,15921
1615.53,1.328374,322904,15160
1618.51,1.333582,315116,14618
1621.49,1.325030,307217,14535
1624.47,1.314612,299481,14513
1627.44,1.323097,292112,13882
1630.41,1.318083,284245,13665
1634.36,1.317664,274079,13189
1637.32,1.329395,266916,12502
1640.27,1.312131,259612,12653
1643.22,1.320689,251804,12033
1646.16,1.320454,244348,11683
1649.1,1.321164,236703,11299
1652.04,1.300176,228171,11431
1655.95,1.319961,215408,10311
1658.88,1.304001,204937,10177
1661.8,1.294466,193395,9817
1664.72,1.290734,179728,9202
1667.63,1.262606,163642,8939
1670.54,1.276876,146312,7734
1673.44,1.214588,128451,7837
1677.31,1.236546,105080,6095
1680.21,1.204716,88906,5549
1683.1,1.201126,75033,4722
1685.99,1.187276,63520,4127
1688.87,1.227251,53714,3183
1691.75,1.225699,45653,2715
1694.62,1.172632,39137,2630
1697.49,1.135560,33776,2472
1701.31,1.200421,28175,1776

File: Column 1_078243_20241121_165230.csv
Method:,Column 1,,
Host Date-Time:,21/11/24 @ 16:52:30,,
Header Version:,1,,
System Temp (C):,34.14,,
Detector Temp (C):,31.63,,
Humidity (%):,2.49,,
Lamp PD:,3803,,
Shift Vector Coefficients:,-10.5391,0.0761263,-0.000134223,,
Pixel to Wavelength Coefficients:,1775.68,-0.916766,-0.000235065,,
Serial Number:,5510004,,
Scan Config Name:,Column 1,,
Scan Config Type:,Slew,,
Section 1,,
Start wavelength (nm):,900,,
End wavelength (nm):,1700,,
Pattern Pixel Width (nm):,   7.03,,,,
Exposure (ms):,  0.635,,,,
Digital Resolution:,228,,
Num Repeats:,6,,
PGA Gain:,64,,
Total Measurement Time in sec:,  2.725,,
Wavelength (nm),Absorbance (AU),Reference Signal (unitless),Sample Signal (unitless)
901.51,1.311586,108485,5294
905.376,1.304214,121306,6021
909.237,1.324394,131909,6250
913.095,1.284962,143299,7435
916.948,1.319401,156982,7524
922.079,1.316901,179937,8674
925.923,1.322575,200504,9540
929.762,1.315265,222660,10774
933.597,1.313477,244426,11876
937.427,1.318541,263972,12677
941.254,1.311108,281845,13769
945.076,1.314217,297271,14419
950.165,1.310412,315605,15443
953.978,1.314433,328029,15903
957.786,1.303756,340470,16917
961.59,1.309289,352317,17284
965.389,1.312319,363056,17687
969.185,1.306726,373162,18415
972.976,1.318909,382632,18360
976.763,1.310210,391202,19151
981.806,1.306787,400190,19746
985.583,1.311582,406088,19817
989.355,1.312838,410162,19958
993.124,1.312183,412868,20120
996.888,1.313929,414263,20107
1000.65,1.305967,415476,20539
1004.4,1.308493,415479,20420
1009.41,1.309773,414358,20305
1013.15,1.308116,412923,20312
1016.89,1.303004,411526,20483
1020.63,1.301695,409066,20422
1024.36,1.310678,406777,19892
1028.09,1.313257,404427,19660
1031.82,1.309708,401911,19698
1036.78,1.306018,398410,19693
1040.49,1.304999,396204,19630
1044.2,1.312840,394236,19183
1047.91,1.307910,392042,19294
1051.61,1.315395,389823,18857
1055.31,1.308675,388234,19073
1059,1.316564,387599,18699
1063.92,1.317894,386688,18598
1067.61,1.320910,386598,18465
1071.29,1.318294,387377,18614
1074.96,1.315204,388536,18803
1078.63,1.317971,389855,18747
1082.3,1.318928,391215,18771
1085.96,1.315442,393215,19019
1090.84,1.315211,396270,19177
1094.49,1.322141,398760,18992
1098.14,1.321892,400987,19109
1101.79,1.316319,403477,19476
1105.43,1.312204,406116,19790
1109.06,1.319528,407701,19535
1112.7,1.319449,409859,19642
1117.53,1.308800,412494,20259
1121.15,1.315341,414909,20073
1124.77,1.317670,416559,20045
1128.38,1.319701,418532,20046
1131.99,1.317960,419956,20195
1135.6,1.312255,421946,20559
1139.2,1.316211,423881,20466
1143.99,1.324751,426786,20205
1147.58,1.313610,428617,20819
1151.17,1.323572,431169,20468
1154.75,1.315470,433579,20970
1158.33,1.309620,436264,21386
1161.91,1.316997,439132,21164
1165.48,1.315086,442389,21415
1169.04,1.322504,446101,21229
1173.79,1.315897,451929,21836
1177.34,1.323051,456026,21674
1180.9,1.323505,461306,21902
1184.44,1.315089,467657,22638
1187.99,1.319648,473969,22704
1191.52,1.313662,479856,23305
1195.06,1.317718,487372,23450
1199.76,1.321838,497347,23704
1203.29,1.323792,504311,23928
1206.81,1.324104,511507,24252
1210.33,1.316044,519078,25072
1213.84,1.315711,527163,25482
1217.35,1.320660,534208,25530
1220.85,1.328059,540472,25393
1225.51,1.325016,549929,26019
1229.01,1.328147,556888,26159
1232.5,1.324374,562180,26638
1235.98,1.314318,567975,27543
1239.46,1.323540,574815,27289
1242.94,1.319124,582782,27950
1246.41,1.325897,591476,27928
1251.03,1.325199,604016,28566
1254.5,1.324603,612289,28997
1257.96,1.321236,619125,29549
1261.41,1.331436,624551,29116
1264.86,1.322788,629900,29956
1268.31,1.328912,634345,29745
1271.75,1.328047,638574,30003
1276.33,1.327736,642499,30209
1279.76,1.327724,645905,30370
1283.19,1.332782,648307,30130
1286.61,1.322831,650446,30930
1290.03,1.329851,652132,30513
1293.44,1.329185,653907,30643
1296.85,1.333535,655963,30433
1301.39,1.331196,657349,30662
1304.8,1.328397,657558,30870
1308.19,1.335864,658515,30388
1311.58,1.335454,658804,30430
1314.97,1.331217,659011,30738
1318.36,1.325603,658272,31103
1321.73,1.330904,658022,30714
1326.23,1.336210,657870,30334
1329.6,1.330835,656482,30647
1332.97,1.334563,654926,30313
1336.33,1.328881,653727,30656
1339.69,1.325309,652497,30851
1343.04,1.333510,649913,30154
1346.39,1.327183,647671,30491
1349.73,1.324833,645338,30546
1354.18,1.328093,641175,30122
1357.52,1.330307,638376,29838
1360.85,1.327261,635805,29927
1364.17,1.332307,633413,29470
1367.49,1.337230,631026,29028
1370.81,1.325486,628050,29683
1374.12,1.325126,625034,29565
1378.54,1.328644,620272,29103
1381.84,1.328411,616892,28960
1385.14,1.327012,613613,28899
1388.43,1.324946,611526,28938
1391.72,1.330515,610663,28529
1395.01,1.332218,610634,28416
1398.29,1.329656,611700,28634
1402.66,1.332811,614051,28536
1405.93,1.327791,616268,28972
1409.2,1.333129,617795,28689
1412.46,1.329832,618872,28958
1415.72,1.334684,619795,28679
1418.98,1.331195,620495,28943
1422.23,1.333790,621087,28798
1426.56,1.331195,621375,28984
1429.8,1.330256,621616,29058
1433.04,1.329734,622129,29117
1436.27,1.334263,621526,28787
1439.5,1.326525,621113,29285
1442.72,1.331523,620921,28941
1445.94,1.336625,620270,28573
1450.23,1.330169,618860,28935
1453.44,1.334577,617697,28589
1456.64,1.337183,616264,28352
1459.85,1.334393,614413,28449
1463.04,1.334171,612307,28366
1466.24,1.330294,610032,28514
1469.43,1.332878,607345,28220
1473.67,1.329621,603789,28266
1476.85,1.338328,601175,27585
1480.02,1.334015,597737,27701
1483.19,1.340511,594479,27141
1486.36,1.329796,591232,27667
1489.52,1.334955,587853,27184
1492.68,1.341945,583875,26569
1496.89,1.338729,578062,26500
1500.03,1.337395,574159,26402
1503.18,1.343648,570285,25849
1506.32,1.342811,565444,25679
1509.45,1.336944,560571,25804
1512.58,1.336339,555821,25621
1515.71,1.336365,550344,25367
1519.87,1.336795,543983,25049
1522.99,1.335845,538764,24863
1526.1,1.331388,533692,24883
1529.21,1.343647,527902,23928
1532.32,1.339905,521886,23860
1535.42,1.333631,515888,23929
1538.51,1.337731,509987,23433
1541.6,1.360703,503936,21962
1545.72,1.331835,494694,23041
1548.8,1.337250,488378,22465
1551.88,1.341224,481832,21962
1554.95,1.331820,474989,22124
1558.02,1.332059,467818,21778
1561.08,1.333723,460730,21366
1564.15,1.327048,454170,21388
1568.22,1.334812,444181,20547
1571.27,1.334562,436947,20224
1574.32,1.332293,429598,19988
1577.36,1.334784,422039,19524
1580.4,1.342589,414375,18828
1583.43,1.329146,406354,19044
1586.46,1.335064,398475,18422
1590.49,1.334971,388982,17987
1593.51,1.326842,380708,17937
1596.53,1.331966,372727,17355
1599.54,1.337391,365060,16787
1602.55,1.324415,357543,16940
1605.55,1.336399,349495,16108
1608.55,1.318557,341154,16383
1612.54,1.324708,330877,15666
1615.53,1.326003,322904,15243
1618.51,1.324614,315116,14923
1621.49,1.316832,307217,14812
1624.47,1.316231,299481,14459
1627.44,1.315622,292112,14123
1630.41,1.318624,284245,13648
1634.36,1.304784,274079,13586
1637.32,1.312498,266916,12998
1640.27,1.312750,259612,12635
1643.22,1.313956,251804,12221
1646.16,1.324638,244348,11571
1649.1,1.324637,236703,11209
1652.04,1.303609,228171,11341
1655.95,1.298874,215408,10824
1658.88,1.290472,204937,10499
1661.8,1.273229,193395,10309
1664.72,1.288850,179728,9242
1667.63,1.264115,163642,8908
1670.54,1.277494,146312,7723
1673.44,1.245831,128451,7293
1677.31,1.224253,105080,6270
1680.21,1.275265,88906,4717
1683.1,1.216097,75033,4562
1685.99,1.237417,63520,3677
1688.87,1.208949,53714,3320
1691.75,1.205692,45653,2843
1694.62,1.219124,39137,2363
1697.49,1.245081,33776,1921
1701.31,1.355742,28175,1242

File: Column 1_078244_20241121_165233.csv
Method:,Column 1,,
Host Date-Time:,21/11/24 @ 16:52:33,,
Header Version:,1,,
System Temp (C):,34.15,,
Detector Temp (C):,31.65,,
Humidity (%):,2.44,,
Lamp PD:,3803,,
Shift Vector Coefficients:,-10.5391,0.0761263,-0.000134223,,
Pixel to Wavelength Coefficients:,1775.68,-0.916766,-0.000235065,,
Serial Number:,5510004,,
Scan Config Name:,Column 1,,
Scan Config Type:,Slew,,
Section 1,,
Start wavelength (nm):,900,,
End wavelength (nm):,1700,,
Pattern Pixel Width (nm):,   7.03,,,,
Exposure (ms):,  0.635,,,,
Digital Resolution:,228,,
Num Repeats:,6,,
PGA Gain:,64,,
Total Measurement Time in sec:,  2.706,,
Wavelength (nm),Absorbance (AU),Reference Signal (unitless),Sample Signal (unitless)
901.51,1.335792,108485,5007
905.376,1.354394,121306,5364
909.237,1.326554,131909,6219
913.095,1.364062,143299,6197
916.948,1.318767,156982,7535
922.079,1.349055,179937,8055
925.923,1.337911,200504,9209
929.762,1.320293,222660,10650
933.597,1.323914,244426,11594
937.427,1.323988,263972,12519
941.254,1.320256,281845,13482
945.076,1.314157,297271,14421
950.165,1.324648,315605,14945
953.978,1.314187,328029,15912
957.786,1.314674,340470,16497
961.59,1.315591,352317,17035
965.389,1.313943,363056,17621
969.185,1.320576,373162,17837
972.976,1.327147,382632,18015
976.763,1.312962,391202,19030
981.806,1.317204,400190,19278
985.583,1.313735,406088,19719
989.355,1.316005,410162,19813
993.124,1.315629,412868,19961
996.888,1.317007,414263,19965
1000.65,1.312250,415476,20244
1004.4,1.311053,415479,20300
1009.41,1.317411,414358,19951
1013.15,1.309701,412923,20238
1016.89,1.321322,411526,19637
1020.63,1.313224,409066,19887
1024.36,1.317255,406777,19593
1028.09,1.318994,404427,19402
1031.82,1.311586,401911,19613
1036.78,1.316080,398410,19242
1040.49,1.316795,396204,19104
1044.2,1.312432,394236,19201
1047.91,1.306427,392042,19360
1051.61,1.315257,389823,18863
1055.31,1.318578,388234,18643
1059,1.312542,387599,18873
1063.92,1.317078,386688,18633
1067.61,1.312432,386598,18829
1071.29,1.314115,387377,18794
1074.96,1.324165,388536,18419
1078.63,1.315500,389855,18854
1082.3,1.310632,391215,19133
1085.96,1.321166,393215,18770
1090.84,1.323672,396270,18807
1094.49,1.322187,398760,18990
1098.14,1.329296,400987,18786
1101.79,1.317056,403477,19443
1105.43,1.316993,406116,19573
1109.06,1.315876,407701,19700
1112.7,1.322310,409859,19513
1117.53,1.319851,412494,19750
1121.15,1.326229,414909,19576
1124.77,1.324285,416559,19742
1128.38,1.326228,418532,19747
1131.99,1.316114,419956,20281
1135.6,1.327781,421946,19837
1139.2,1.326388,423881,19992
1143.99,1.318732,426786,20487
1147.58,1.320633,428617,20485
1151.17,1.321287,431169,20576
1154.75,1.322001,433579,20657
1158.33,1.323590,436264,20709
1161.91,1.323302,439132,20859
1165.48,1.324558,442389,20953
1169.04,1.322688,446101,21220
1173.79,1.324941,451929,21386
1177.34,1.320274,456026,21813
1180.9,1.330764,461306,21539
1184.44,1.318208,467657,22476
1187.99,1.320528,473969,22658
1191.52,1.320385,479856,22947
1195.06,1.321419,487372,23251
1199.76,1.323030,497347,23639
1203.29,1.318973,504311,24195
1206.81,1.330963,511507,23872
1210.33,1.332333,519078,24149
1213.84,1.332283,527163,24528
1217.35,1.333767,534208,24771
1220.85,1.329344,540472,25318
1225.51,1.332712,549929,25562
1229.01,1.332703,556888,25886
1232.5,1.321886,562180,26791
1235.98,1.324464,567975,26907
1239.46,1.328277,574815,26993
1242.94,1.325716,582782,27529
1246.41,1.328330,591476,27772
1251.03,1.328204,604016,28369
1254.5,1.327851,612289,28781
1257.96,1.324363,619125,29337
1261.41,1.330453,624551,29182
1264.86,1.333265,629900,29242
1268.31,1.328459,634345,29776
1271.75,1.327829,638574,30018
1276.33,1.331186,642499,29970
1279.76,1.327609,645905,30378
1283.19,1.330037,648307,30321
1286.61,1.333420,650446,30185
1290.03,1.337634,652132,29971
1293.44,1.330192,653907,30572
1296.85,1.336887,655963,30199
1301.39,1.333268,657349,30516
1304.8,1.330202,657558,30742
1308.19,1.338918,658515,30175
1311.58,1.339455,658804,30151
1314.97,1.335106,659011,30464
1318.36,1.338197,658272,30214
1321.73,1.335010,658022,30425
1326.23,1.338119,657870,30201
1329.6,1.336555,656482,30246
1332.97,1.339274,654926,29986
1336.33,1.336023,653727,30156
1339.69,1.337515,652497,29996
1343.04,1.332001,649913,30259
1346.39,1.328524,647671,30397
1349.73,1.329924,645338,30190
1354.18,1.331465,641175,29889
1357.52,1.332891,638376,29661
1360.85,1.334135,635805,29457
1364.17,1.332130,633413,29482
1367.49,1.332129,631026,29371
1370.81,1.335312,628050,29019
1374.12,1.334315,625034,28946
1378.54,1.329346,620272,29056
1381.84,1.331330,616892,28766
1385.14,1.329998,613613,28701
1388.43,1.334920,611526,28281
1391.72,1.323553,610663,28990
1395.01,1.330784,610634,28510
1398.29,1.330735,611700,28563
1402.66,1.332887,614051,28531
1405.93,1.334179,616268,28549
1409.2,1.337281,617795,28416
1412.46,1.332842,618872,28758
1415.72,1.340324,619795,28309
1418.98,1.336099,620495,28618
1422.23,1.337957,621087,28523
1426.56,1.333208,621375,28850
1429.8,1.333572,621616,28837
1433.04,1.335983,622129,28701
1436.27,1.335774,621526,28687
1439.5,1.333929,621113,28790
1442.72,1.333976,620921,28778
1445.94,1.332540,620270,28843
1450.23,1.333620,618860,28706
1453.44,1.338437,617697,28336
1456.64,1.335029,616264,28493
1459.85,1.333052,614413,28537
1463.04,1.336320,612307,28226
1466.24,1.336739,610032,28094
1469.43,1.336991,607345,27954
1473.67,1.338719,603789,27680
1476.85,1.341742,601175,27369
1480.02,1.344198,597737,27059
1483.19,1.339440,594479,27208
1486.36,1.339478,591232,27057
1489.52,1.341118,587853,26801
1492.68,1.341798,583875,26578
1496.89,1.342448,578062,26274
1500.03,1.340565,574159,26210
1503.18,1.339468,570285,26099
1506.32,1.343235,565444,25654
1509.45,1.343199,560571,25435
1512.58,1.344552,555821,25141
1515.71,1.341913,550344,25045
1519.87,1.340294,543983,24848
1522.99,1.340587,538764,24593
1526.1,1.346700,533692,24021
1529.21,1.346049,527902,23796
1532.32,1.342607,521886,23712
1535.42,1.337221,515888,23732
1538.51,1.337824,509987,23428
1541.6,1.341385,503936,22961
1545.72,1.342116,494694,22502
1548.8,1.345761,488378,22029
1551.88,1.337757,481832,22138
1554.95,1.330331,474989,22200
1558.02,1.339521,467818,21407
1561.08,1.336619,460730,21224
1564.15,1.343436,454170,20596
1568.22,1.335234,444181,20527
1571.27,1.341052,436947,19924
1574.32,1.333446,429598,19935
1577.36,1.340538,422039,19267
1580.4,1.349026,414375,18551
1583.43,1.337504,406354,18681
1586.46,1.340664,398475,18186
1590.49,1.340756,388982,17749
1593.51,1.332766,380708,17694
1596.53,1.339692,372727,17049
1599.54,1.339700,365060,16698
1602.55,1.331341,357543,16672
1605.55,1.324905,349495,16540
1608.55,1.321483,341154,16273
1612.54,1.349669,330877,14791
1615.53,1.320792,322904,15427
1618.51,1.335846,315116,14542
1621.49,1.338658,307217,14086
1624.47,1.324356,299481,14191
1627.44,1.327184,292112,13752
1630.41,1.315422,284245,13749
1634.36,1.328702,274079,12858
1637.32,1.317100,266916,12861
1640.27,1.313610,259612,12610
1643.22,1.309712,251804,12341
1646.16,1.315685,244348,11812
1649.1,1.310870,236703,11570
1652.04,1.300252,228171,11429
1655.95,1.320130,215408,10307
1658.88,1.322171,204937,9760
1661.8,1.293936,193395,9829
1664.72,1.308311,179728,8837
1667.63,1.275325,163642,8681
1670.54,1.263495,146312,7976
1673.44,1.261350,128451,7037
1677.31,1.240339,105080,6042
1680.21,1.247190,88906,5032
1683.1,1.189332,75033,4852
1685.99,1.198468,63520,4022
1688.87,1.207904,53714,3328
1691.75,1.171483,45653,3076
1694.62,1.263190,39137,2135
1697.49,1.271410,33776,1808
1701.31,1.237676,28175,1630