Folder: textile_sorting_NIRSCAN_/ML/samples/unknown (part 95)

File: Column 1_078679_20241121_171657.csv
Method:,Column 1,,
Host Date-Time:,21/11/24 @ 17:16:57,,
Header Version:,1,,
System Temp (C):,34.43,,
Detector Temp (C):,35.06,,
Humidity (%):,1.66,,
Lamp PD:,3802,,
Shift Vector Coefficients:,-10.5391,0.0761263,-0.000134223,,
Pixel to Wavelength Coefficients:,1775.68,-0.916766,-0.000235065,,
Serial Number:,5510004,,
Scan Config Name:,Column 1,,
Scan Config Type:,Slew,,
Section 1,,
Start wavelength (nm):,900,,
End wavelength (nm):,1700,,
Pattern Pixel Width (nm):,   7.03,,,,
Exposure (ms):,  0.635,,,,
Digital Resolution:,228,,
Num Repeats:,6,,
PGA Gain:,64,,
Total Measurement Time in sec:,  2.672,,
Wavelength (nm),Absorbance (AU),Reference Signal (unitless),Sample Signal (unitless)
901.51,1.278050,108485,5719
905.376,1.321429,121306,5787
909.237,1.302511,131909,6573
913.095,1.315385,143299,6932
916.948,1.310319,156982,7683
922.079,1.312616,179937,8760
925.923,1.332707,200504,9320
929.762,1.332996,222660,10343
933.597,1.340561,244426,11158
937.427,1.311440,263972,12886
941.254,1.320836,281845,13464
945.076,1.306841,297271,14666
950.165,1.310047,315605,15456
953.978,1.312526,328029,15973
957.786,1.307209,340470,16783
961.59,1.316153,352317,17013
965.389,1.305136,363056,17982
969.185,1.310825,373162,18242
972.976,1.305378,382632,18941
976.763,1.302433,391202,19497
981.806,1.308616,400190,19663
985.583,1.309985,406088,19890
989.355,1.305267,410162,20309
993.124,1.292002,412868,21077
996.888,1.306201,414263,20468
1000.65,1.308341,415476,20427
1004.4,1.295524,415479,21039
1009.41,1.298895,414358,20820
1013.15,1.309766,412923,20235
1016.89,1.293089,411526,20956
1020.63,1.305840,409066,20228
1024.36,1.305189,406777,20145
1028.09,1.307725,404427,19912
1031.82,1.295715,401911,20343
1036.78,1.301106,398410,19917
1040.49,1.302440,396204,19746
1044.2,1.300629,394236,19730
1047.91,1.306562,392042,19354
1051.61,1.305108,389823,19309
1055.31,1.312172,388234,18920
1059,1.307759,387599,19082
1063.92,1.303381,386688,19230
1067.61,1.310959,386598,18893
1071.29,1.316734,387377,18681
1074.96,1.301764,388536,19394
1078.63,1.306653,389855,19242
1082.3,1.299274,391215,19640
1085.96,1.307949,393215,19350
1090.84,1.307333,396270,19528
1094.49,1.313425,398760,19377
1098.14,1.297542,400987,20211
1101.79,1.312412,403477,19652
1105.43,1.309099,406116,19932
1109.06,1.308661,407701,20030
1112.7,1.308834,409859,20128
1117.53,1.308136,412494,20290
1121.15,1.318751,414909,19916
1124.77,1.314282,416559,20202
1128.38,1.311312,418532,20437
1131.99,1.308431,419956,20643
1135.6,1.313037,421946,20522
1139.2,1.315236,423881,20512
1143.99,1.316406,426786,20597
1147.58,1.313193,428617,20839
1151.17,1.308947,431169,21169
1154.75,1.314043,433579,21039
1158.33,1.313905,436264,21176
1161.91,1.319446,439132,21045
1165.48,1.309685,442389,21683
1169.04,1.313975,446101,21650
1173.79,1.315659,451929,21848
1177.34,1.311211,456026,22273
1180.9,1.313896,461306,22392
1184.44,1.314859,467657,22650
1187.99,1.315592,473969,22917
1191.52,1.322986,479856,22810
1195.06,1.312764,487372,23719
1199.76,1.319991,497347,23805
1203.29,1.317718,504311,24265
1206.81,1.324695,511507,24219
1210.33,1.312645,519078,25269
1213.84,1.317316,527163,25388
1217.35,1.314344,534208,25904
1220.85,1.321153,540472,25800
1225.51,1.320516,549929,26290
1229.01,1.322751,556888,26486
1232.5,1.317307,562180,27075
1235.98,1.314981,567975,27501
1239.46,1.316453,574815,27738
1242.94,1.322666,582782,27723
1246.41,1.319522,591476,28341
1251.03,1.325503,604016,28546
1254.5,1.321217,612289,29224
1257.96,1.317111,619125,29831
1261.41,1.317955,624551,30034
1264.86,1.322556,629900,29972
1268.31,1.321356,634345,30267
1271.75,1.319547,638574,30596
1276.33,1.319773,642499,30768
1279.76,1.320702,645905,30865
1283.19,1.328250,648307,30446
1286.61,1.321653,650446,31014
1290.03,1.324729,652132,30875
1293.44,1.327261,653907,30779
1296.85,1.325574,655963,30996
1301.39,1.325874,657349,31040
1304.8,1.326755,657558,30987
1308.19,1.323785,658515,31245
1311.58,1.328082,658804,30951
1314.97,1.328639,659011,30921
1318.36,1.333707,658272,30528
1321.73,1.326375,658022,31036
1326.23,1.326442,657870,31024
1329.6,1.325791,656482,31005
1332.97,1.324606,654926,31016
1336.33,1.330229,653727,30561
1339.69,1.324972,652497,30875
1343.04,1.323938,649913,30826
1346.39,1.322663,647671,30810
1349.73,1.326885,645338,30402
1354.18,1.328511,641175,30093
1357.52,1.324940,638376,30209
1360.85,1.325118,635805,30075
1364.17,1.323207,633413,30094
1367.49,1.317874,631026,30351
1370.81,1.321090,628050,29985
1374.12,1.324157,625034,29631
1378.54,1.326248,620272,29264
1381.84,1.323846,616892,29266
1385.14,1.317190,613613,29560
1388.43,1.321866,611526,29144
1391.72,1.321297,610663,29141
1395.01,1.324973,610634,28894
1398.29,1.325836,611700,28887
1402.66,1.323134,614051,29179
1405.93,1.326878,616268,29033
1409.2,1.328701,617795,28983
1412.46,1.325089,618872,29276
1415.72,1.326063,619795,29254
1418.98,1.328801,620495,29103
1422.23,1.326433,621087,29290
1426.56,1.334867,621375,28740
1429.8,1.325219,621616,29397
1433.04,1.325061,622129,29432
1436.27,1.332291,621526,28918
1439.5,1.328711,621113,29138
1442.72,1.326747,620921,29261
1445.94,1.329973,620270,29014
1450.23,1.330109,618860,28939
1453.44,1.329292,617697,28939
1456.64,1.330857,616264,28768
1459.85,1.331594,614413,28633
1463.04,1.332216,612307,28494
1466.24,1.326987,610032,28732
1469.43,1.332432,607345,28249
1473.67,1.334705,603789,27937
1476.85,1.330697,601175,28074
1480.02,1.336121,597737,27567
1483.19,1.322642,594479,28281
1486.36,1.329874,591232,27662
1489.52,1.328360,587853,27600
1492.68,1.329124,583875,27365
1496.89,1.336538,578062,26634
1500.03,1.331595,574159,26757
1503.18,1.331700,570285,26570
1506.32,1.337951,565444,25968
1509.45,1.342039,560571,25503
1512.58,1.336865,555821,25590
1515.71,1.331920,550344,25628
1519.87,1.341379,543983,24786
1522.99,1.329671,538764,25219
1526.1,1.330151,533692,24954
1529.21,1.338666,527902,24204
1532.32,1.333043,521886,24240
1535.42,1.328704,515888,24202
1538.51,1.336547,509987,23497
1541.6,1.322617,503936,23975
1545.72,1.326720,494694,23314
1548.8,1.336940,488378,22481
1551.88,1.332396,481832,22413
1554.95,1.333255,474989,22051
1558.02,1.329871,467818,21888
1561.08,1.317230,460730,22193
1564.15,1.340221,454170,20749
1568.22,1.329267,444181,20811
1571.27,1.331139,436947,20384
1574.32,1.323453,429598,20399
1577.36,1.331283,422039,19682
1580.4,1.326980,414375,19517
1583.43,1.318736,406354,19506
1586.46,1.331917,398475,18556
1590.49,1.321328,388982,18561
1593.51,1.330538,380708,17785
1596.53,1.319072,372727,17878
1599.54,1.326129,365060,17228
1602.55,1.314379,357543,17336
1605.55,1.317202,349495,16836
1608.55,1.319645,341154,16342
1612.54,1.316498,330877,15965
1615.53,1.312814,322904,15713
1618.51,1.306489,315116,15559
1621.49,1.311962,307217,14979
1624.47,1.327304,299481,14095
1627.44,1.319390,292112,14001
1630.41,1.318783,284245,13643
1634.36,1.315005,274079,13270
1637.32,1.309568,266916,13086
1640.27,1.309667,259612,12725
1643.22,1.314454,251804,12207
1646.16,1.311004,244348,11940
1649.1,1.311697,236703,11548
1652.04,1.299227,228171,11456
1655.95,1.298473,215408,10834
1658.88,1.293878,204937,10417
1661.8,1.287707,193395,9971
1664.72,1.275842,179728,9523
1667.63,1.246440,163642,9278
1670.54,1.238012,146312,8458
1673.44,1.223263,128451,7682
1677.31,1.180348,105080,6937
1680.21,1.180663,88906,5865
1683.1,1.181086,75033,4945
1685.99,1.134898,63520,4656
1688.87,1.178882,53714,3558
1691.75,1.112310,45653,3525
1694.62,1.218389,39137,2367
1697.49,1.136087,33776,2469
1701.31,1.186701,28175,1833

File: Column 1_078680_20241121_171659.csv
Method:,Column 1,,
Host Date-Time:,21/11/24 @ 17:16:59,,
Header Version:,1,,
System Temp (C):,34.51,,
Detector Temp (C):,35.06,,
Humidity (%):,1.76,,
Lamp PD:,3802,,
Shift Vector Coefficients:,-10.5391,0.0761263,-0.000134223,,
Pixel to Wavelength Coefficients:,1775.68,-0.916766,-0.000235065,,
Serial Number:,5510004,,
Scan Config Name:,Column 1,,
Scan Config Type:,Slew,,
Section 1,,
Start wavelength (nm):,900,,
End wavelength (nm):,1700,,
Pattern Pixel Width (nm):,   7.03,,,,
Exposure (ms):,  0.635,,,,
Digital Resolution:,228,,
Num Repeats:,6,,
PGA Gain:,64,,
Total Measurement Time in sec:,  2.722,,
Wavelength (nm),Absorbance (AU),Reference Signal (unitless),Sample Signal (unitless)
901.51,1.311504,108485,5295
905.376,1.315688,121306,5864
909.237,1.314027,131909,6401
913.095,1.295666,143299,7254
916.948,1.313041,156982,7635
922.079,1.316901,179937,8674
925.923,1.325040,200504,9486
929.762,1.323855,222660,10563
933.597,1.329949,244426,11434
937.427,1.315741,263972,12759
941.254,1.311581,281845,13754
945.076,1.312084,297271,14490
950.165,1.306939,315605,15567
953.978,1.306907,328029,16181
957.786,1.319332,340470,16321
961.59,1.304193,352317,17488
965.389,1.312344,363056,17686
969.185,1.297878,373162,18794
972.976,1.303776,382632,19011
976.763,1.307091,391202,19289
981.806,1.303631,400190,19890
985.583,1.310007,406088,19889
989.355,1.304327,410162,20353
993.124,1.296330,412868,20868
996.888,1.307157,414263,20423
1000.65,1.298420,415476,20899
1004.4,1.308259,415479,20431
1009.41,1.301762,414358,20683
1013.15,1.306665,412923,20380
1016.89,1.313563,411526,19991
1020.63,1.299595,409066,20521
1024.36,1.311837,406777,19839
1028.09,1.302070,404427,20173
1031.82,1.299596,401911,20162
1036.78,1.301259,398410,19910
1040.49,1.305796,396204,19594
1044.2,1.307708,394236,19411
1047.91,1.311345,392042,19142
1051.61,1.298412,389823,19609
1055.31,1.304866,388234,19241
1059,1.301051,387599,19379
1063.92,1.307785,386688,19036
1067.61,1.310936,386598,18894
1071.29,1.306010,387377,19148
1074.96,1.311089,388536,18982
1078.63,1.295974,389855,19721
1082.3,1.308075,391215,19246
1085.96,1.303661,393215,19542
1090.84,1.310100,396270,19404
1094.49,1.315334,398760,19292
1098.14,1.306005,400987,19821
1101.79,1.311176,403477,19708
1105.43,1.315730,406116,19630
1109.06,1.315589,407701,19713
1112.7,1.311062,409859,20025
1117.53,1.316805,412494,19889
1121.15,1.312946,414909,20184
1124.77,1.313981,416559,20216
1128.38,1.311673,418532,20420
1131.99,1.309632,419956,20586
1135.6,1.317782,421946,20299
1139.2,1.317976,423881,20383
1143.99,1.317758,426786,20533
1147.58,1.317844,428617,20617
1151.17,1.313609,431169,20943
1154.75,1.309362,433579,21267
1158.33,1.313803,436264,21181
1161.91,1.311208,439132,21448
1165.48,1.317608,442389,21291
1169.04,1.313174,446101,21690
1173.79,1.310226,451929,22123
1177.34,1.314381,456026,22111
1180.9,1.312908,461306,22443
1184.44,1.316454,467657,22567
1187.99,1.315213,473969,22937
1191.52,1.318459,479856,23049
1195.06,1.318014,487372,23434
1199.76,1.316937,497347,23973
1203.29,1.311410,504311,24620
1206.81,1.316014,511507,24708
1210.33,1.320326,519078,24826
1213.84,1.320889,527163,25180
1217.35,1.322501,534208,25422
1220.85,1.312504,540472,26319
1225.51,1.316488,549929,26535
1229.01,1.318720,556888,26733
1232.5,1.315306,562180,27200
1235.98,1.319553,567975,27213
1239.46,1.316829,574815,27714
1242.94,1.321258,582782,27813
1246.41,1.325074,591476,27981
1251.03,1.317111,604016,29103
1254.5,1.316825,612289,29521
1257.96,1.321515,619125,29530
1261.41,1.318360,624551,30006
1264.86,1.317041,629900,30355
1268.31,1.322103,634345,30215
1271.75,1.317748,638574,30723
1276.33,1.320225,642499,30736
1279.76,1.323412,645905,30673
1283.19,1.322160,648307,30876
1286.61,1.326101,650446,30698
1290.03,1.324222,652132,30911
1293.44,1.323370,653907,31056
1296.85,1.321391,655963,31296
1301.39,1.320908,657349,31397
1304.8,1.328271,657558,30879
1308.19,1.326630,658515,31041
1311.58,1.329994,658804,30815
1314.97,1.323709,659011,31274
1318.36,1.328995,658272,30861
1321.73,1.329577,658022,30808
1326.23,1.325743,657870,31074
1329.6,1.327349,656482,30894
1332.97,1.328997,654926,30704
1336.33,1.325986,653727,30861
1339.69,1.333394,652497,30282
1343.04,1.328015,649913,30538
1346.39,1.324273,647671,30696
1349.73,1.328603,645338,30282
1354.18,1.323118,641175,30469
1357.52,1.326423,638376,30106
1360.85,1.332429,635805,29573
1364.17,1.322991,633413,30109
1367.49,1.326064,631026,29784
1370.81,1.320612,628050,30018
1374.12,1.325155,625034,29563
1378.54,1.325626,620272,29306
1381.84,1.321065,616892,29454
1385.14,1.316529,613613,29605
1388.43,1.322283,611526,29116
1391.72,1.319958,610663,29231
1395.01,1.318854,610634,29304
1398.29,1.323497,611700,29043
1402.66,1.321337,614051,29300
1405.93,1.328316,616268,28937
1409.2,1.321700,617795,29454
1412.46,1.328171,618872,29069
1415.72,1.331786,619795,28871
1418.98,1.332472,620495,28858
1422.23,1.323831,621087,29466
1426.56,1.325051,621375,29397
1429.8,1.330197,621616,29062
1433.04,1.327695,622129,29254
1436.27,1.327126,621526,29264
1439.5,1.331777,621113,28933
1442.72,1.334096,620921,28770
1445.94,1.327272,620270,29195
1450.23,1.334862,618860,28624
1453.44,1.324768,617697,29242
1456.64,1.326396,616264,29065
1459.85,1.328029,614413,28869
1463.04,1.326643,612307,28862
1466.24,1.326005,610032,28797
1469.43,1.331082,607345,28337
1473.67,1.325873,603789,28511
1476.85,1.327061,601175,28310
1480.02,1.331654,597737,27852
1483.19,1.326328,594479,28042
1486.36,1.324786,591232,27988
1489.52,1.330806,587853,27445
1492.68,1.349463,583875,26113
1496.89,1.332335,578062,26893
1500.03,1.333775,574159,26623
1503.18,1.332240,570285,26537
1506.32,1.327573,565444,26596
1509.45,1.334393,560571,25956
1512.58,1.332021,555821,25877
1515.71,1.330380,550344,25719
1519.87,1.334323,543983,25192
1522.99,1.332834,538764,25036
1526.1,1.332716,533692,24807
1529.21,1.337537,527902,24267
1532.32,1.333186,521886,24232
1535.42,1.329746,515888,24144
1538.51,1.329925,509987,23858
1541.6,1.327957,503936,23682
1545.72,1.330086,494694,23134
1548.8,1.327898,488378,22954
1551.88,1.328115,481832,22635
1554.95,1.331271,474989,22152
1558.02,1.333277,467818,21717
1561.08,1.321281,460730,21987
1564.15,1.325447,454170,21467
1568.22,1.328142,444181,20865
1571.27,1.330373,436947,20420
1574.32,1.328981,429598,20141
1577.36,1.327636,422039,19848
1580.4,1.322266,414375,19730
1583.43,1.324790,406354,19236
1586.46,1.324353,398475,18882
1590.49,1.333212,388982,18060
1593.51,1.323706,380708,18067
1596.53,1.332893,372727,17318
1599.54,1.322489,365060,17373
1602.55,1.324312,357543,16944
1605.55,1.334409,349495,16182
1608.55,1.329618,341154,15971
1612.54,1.317505,330877,15928
1615.53,1.305687,322904,15973
1618.51,1.314233,315116,15284
1621.49,1.305973,307217,15187
1624.47,1.306636,299481,14782
1627.44,1.306946,292112,14408
1630.41,1.303735,284245,14124
1634.36,1.296928,274079,13834
1637.32,1.314776,266916,12930
1640.27,1.318319,259612,12474
1643.22,1.320978,251804,12025
1646.16,1.299766,244348,12253
1649.1,1.304092,236703,11752
1652.04,1.304452,228171,11319
1655.95,1.298633,215408,10830
1658.88,1.295925,204937,10368
1661.8,1.284106,193395,10054
1664.72,1.268740,179728,9680
1667.63,1.250721,163642,9187
1670.54,1.253271,146312,8166
1673.44,1.217646,128451,7782
1677.31,1.219773,105080,6335
1680.21,1.159139,88906,6163
1683.1,1.139813,75033,5438
1685.99,1.139210,63520,4610
1688.87,1.136137,53714,3926
1691.75,1.133518,45653,3357
1694.62,1.146983,39137,2790
1697.49,1.164245,33776,2314
1701.31,1.117628,28175,2149

File: Column 1_078681_20241121_171702.csv
Method:,Column 1,,
Host Date-Time:,21/11/24 @ 17:17:2,,
Header Version:,1,,
System Temp (C):,34.54,,
Detector Temp (C):,35.01,,
Humidity (%):,1.76,,
Lamp PD:,3802,,
Shift Vector Coefficients:,-10.5391,0.0761263,-0.000134223,,
Pixel to Wavelength Coefficients:,1775.68,-0.916766,-0.000235065,,
Serial Number:,5510004,,
Scan Config Name:,Column 1,,
Scan Config Type:,Slew,,
Section 1,,
Start wavelength (nm):,900,,
End wavelength (nm):,1700,,
Pattern Pixel Width (nm):,   7.03,,,,
Exposure (ms):,  0.635,,,,
Digital Resolution:,228,,
Num Repeats:,6,,
PGA Gain:,64,,
Total Measurement Time in sec:,  2.725,,
Wavelength (nm),Absorbance (AU),Reference Signal (unitless),Sample Signal (unitless)
901.51,1.324660,108485,5137
905.376,1.331911,121306,5649
909.237,1.326973,131909,6213
913.095,1.295187,143299,7262
916.948,1.315894,156982,7585
922.079,1.318758,179937,8637
925.923,1.330569,200504,9366
929.762,1.319722,222660,10664
933.597,1.316302,244426,11799
937.427,1.328662,263972,12385
941.254,1.310226,281845,13797
945.076,1.313977,297271,14427
950.165,1.316758,315605,15219
953.978,1.308871,328029,16108
957.786,1.305763,340470,16839
961.59,1.301347,352317,17603
965.389,1.314116,363056,17614
969.185,1.316601,373162,18001
972.976,1.310128,382632,18735
976.763,1.305204,391202,19373
981.806,1.305141,400190,19821
985.583,1.308851,406088,19942
989.355,1.307540,410162,20203
993.124,1.318182,412868,19844
996.888,1.304316,414263,20557
1000.65,1.310644,415476,20319
1004.4,1.307452,415479,20469
1009.41,1.306003,414358,20482
1013.15,1.310453,412923,20203
1016.89,1.314302,411526,19957
1020.63,1.301525,409066,20430
1024.36,1.300152,406777,20380
1028.09,1.305051,404427,20035
1031.82,1.302319,401911,20036
1036.78,1.308362,398410,19587
1040.49,1.315138,396204,19177
1044.2,1.308403,394236,19380
1047.91,1.309534,392042,19222
1051.61,1.306933,389823,19228
1055.31,1.303987,388234,19280
1059,1.299776,387599,19436
1063.92,1.314498,386688,18744
1067.61,1.312571,386598,18823
1071.29,1.311511,387377,18907
1074.96,1.318171,388536,18675
1078.63,1.309165,389855,19131
1082.3,1.312885,391215,19034
1085.96,1.309208,393215,19294
1090.84,1.321162,396270,18916
1094.49,1.313874,398760,19357
1098.14,1.308422,400987,19711
1101.79,1.310560,403477,19736
1105.43,1.320334,406116,19423
1109.06,1.316582,407701,19668
1112.7,1.315816,409859,19807
1117.53,1.316041,412494,19924
1121.15,1.316836,414909,20004
1124.77,1.315466,416559,20147
1128.38,1.320590,418532,20005
1131.99,1.322543,419956,19983
1135.6,1.322039,421946,20101
1139.2,1.311988,423881,20666
1143.99,1.318520,426786,20497
1147.58,1.316078,428617,20701
1151.17,1.320380,431169,20619
1154.75,1.313074,433579,21086
1158.33,1.318918,436264,20933
1161.91,1.312222,439132,21398
1165.48,1.315797,442389,21380
1169.04,1.308910,446101,21904
1173.79,1.312115,451929,22027
1177.34,1.307561,456026,22461
1180.9,1.313373,461306,22419
1184.44,1.304028,467657,23222
1187.99,1.313984,473969,23002
1191.52,1.319496,479856,22994
1195.06,1.311320,487372,23798
1199.76,1.319645,497347,23824
1203.29,1.326505,504311,23779
1206.81,1.318040,511507,24593
1210.33,1.324615,519078,24582
1213.84,1.321459,527163,25147
1217.35,1.319742,534208,25584
1220.85,1.316915,540472,26053
1225.51,1.314202,549929,26675
1229.01,1.318558,556888,26743
1232.5,1.317532,562180,27061
1235.98,1.318835,567975,27258
1239.46,1.318289,574815,27621
1242.94,1.326173,582782,27500
1246.41,1.325571,591476,27949
1251.03,1.320301,604016,28890
1254.5,1.318122,612289,29433
1257.96,1.326410,619125,29199
1261.41,1.319505,624551,29927
1264.86,1.326998,629900,29667
1268.31,1.323312,634345,30131
1271.75,1.325737,638574,30163
1276.33,1.323430,642499,30510
1279.76,1.324249,645905,30614
1283.19,1.326727,648307,30553
1286.61,1.327206,650446,30620
1290.03,1.329239,652132,30556
1293.44,1.327360,653907,30772
1296.85,1.325560,655963,30997
1301.39,1.324338,657349,31150
1304.8,1.326628,657558,30996
1308.19,1.328298,658515,30922
1311.58,1.331052,658804,30740
1314.97,1.325714,659011,31130
1318.36,1.329094,658272,30854
1321.73,1.328957,658022,30852
1326.23,1.332958,657870,30562
1329.6,1.328954,656482,30780
1332.97,1.329379,654926,30677
1336.33,1.326409,653727,30831
1339.69,1.324803,652497,30887
1343.04,1.322040,649913,30961
1346.39,1.323312,647671,30764
1349.73,1.327285,645338,30374
1354.18,1.328988,641175,30060
1357.52,1.323261,638376,30326
1360.85,1.325147,635805,30073
1364.17,1.323539,633413,30071
1367.49,1.325918,631026,29794
1370.81,1.330815,628050,29321
1374.12,1.329822,625034,29247
1378.54,1.325285,620272,29329
1381.84,1.322497,616892,29357
1385.14,1.324479,613613,29068
1388.43,1.323224,611526,29053
1391.72,1.325611,610663,28853
1395.01,1.322515,610634,29058
1398.29,1.323034,611700,29074
1402.66,1.328013,614051,28853
1405.93,1.328121,616268,28950
1409.2,1.328746,617795,28980
1412.46,1.324985,618872,29283
1415.72,1.329700,619795,29010
1418.98,1.329981,620495,29024
1422.23,1.325988,621087,29320
1426.56,1.327584,621375,29226
1429.8,1.330780,621616,29023
1433.04,1.328260,622129,29216
1436.27,1.327957,621526,29208
1439.5,1.332468,621113,28887
1442.72,1.328756,620921,29126
1445.94,1.327005,620270,29213
1450.23,1.333121,618860,28739
1453.44,1.329442,617697,28929
1456.64,1.330570,616264,28787
1459.85,1.330684,614413,28693
1463.04,1.337275,612307,28164
1466.24,1.333950,610032,28275
1469.43,1.336712,607345,27972
1473.67,1.333836,603789,27993
1476.85,1.331331,601175,28033
1480.02,1.330517,597737,27925
1483.19,1.335452,594479,27459
1486.36,1.328949,591232,27721
1489.52,1.326946,587853,27690
1492.68,1.334056,583875,27056
1496.89,1.333775,578062,26804
1500.03,1.336016,574159,26486
1503.18,1.334834,570285,26379
1506.32,1.331164,565444,26377
1509.45,1.339679,560571,25642
1512.58,1.330798,555821,25950
1515.71,1.337479,550344,25302
1519.87,1.337072,543983,25033
1522.99,1.325574,538764,25458
1526.1,1.331964,533692,24850
1529.21,1.330525,527902,24662
1532.32,1.340069,521886,23851
1535.42,1.332797,515888,23975
1538.51,1.322955,509987,24244
1541.6,1.340572,503936,23004
1545.72,1.334539,494694,22898
1548.8,1.335013,488378,22581
1551.88,1.331138,481832,22478
1554.95,1.334162,474989,22005
1558.02,1.332718,467818,21745
1561.08,1.334415,460730,21332
1564.15,1.330043,454170,21241
1568.22,1.323978,444181,21066
1571.27,1.333468,436947,20275
1574.32,1.332228,429598,19991
1577.36,1.335296,422039,19501
1580.4,1.328965,414375,19428
1583.43,1.328394,406354,19077
1586.46,1.331075,398475,18592
1590.49,1.323957,388982,18449
1593.51,1.323658,380708,18069
1596.53,1.321288,372727,17787
1599.54,1.328962,365060,17116
1602.55,1.326316,357543,16866
1605.55,1.320724,349495,16700
1608.55,1.330898,341154,15924
1612.54,1.324265,330877,15682
1615.53,1.323446,322904,15333
1618.51,1.324964,315116,14911
1621.49,1.323420,307217,14589
1624.47,1.330148,299481,14003
1627.44,1.314088,292112,14173
1630.41,1.324519,284245,13464
1634.36,1.329175,274079,12844
1637.32,1.317100,266916,12861
1640.27,1.324879,259612,12287
1643.22,1.315665,251804,12173
1646.16,1.315391,244348,11820
1649.1,1.300705,236703,11844
1652.04,1.303456,228171,11345
1655.95,1.286689,215408,11132
1658.88,1.301193,204937,10243
1661.8,1.315587,193395,9351
1664.72,1.267978,179728,9697
1667.63,1.257486,163642,9045
1670.54,1.245522,146312,8313
1673.44,1.221008,128451,7722
1677.31,1.187227,105080,6828
1680.21,1.160197,88906,6148
1683.1,1.153524,75033,5269
1685.99,1.200742,63520,4001
1688.87,1.148479,53714,3816
1691.75,1.161849,45653,3145
1694.62,1.162997,39137,2689
1697.49,1.102097,33776,2670
1701.31,1.168376,28175,1912