Folder: textile_sorting_NIRSCAN_/ML/samples/unknown (part 126)

File: Column 1_078932_20241121_172908.csv
Method:,Column 1,,
Host Date-Time:,21/11/24 @ 17:29:8,,
Header Version:,1,,
System Temp (C):,37.35,,
Detector Temp (C):,36.46,,
Humidity (%):,0.68,,
Lamp PD:,3796,,
Shift Vector Coefficients:,-10.5391,0.0761263,-0.000134223,,
Pixel to Wavelength Coefficients:,1775.68,-0.916766,-0.000235065,,
Serial Number:,5510004,,
Scan Config Name:,Column 1,,
Scan Config Type:,Slew,,
Section 1,,
Start wavelength (nm):,900,,
End wavelength (nm):,1700,,
Pattern Pixel Width (nm):,   7.03,,,,
Exposure (ms):,  0.635,,,,
Digital Resolution:,228,,
Num Repeats:,6,,
PGA Gain:,64,,
Total Measurement Time in sec:,  2.726,,
Wavelength (nm),Absorbance (AU),Reference Signal (unitless),Sample Signal (unitless)
901.51,1.313806,108485,5267
905.376,1.298909,121306,6095
909.237,1.301851,131909,6583
913.095,1.320046,143299,6858
916.948,1.337493,156982,7217
922.079,1.305633,179937,8902
925.923,1.322711,200504,9537
929.762,1.328401,222660,10453
933.597,1.321672,244426,11654
937.427,1.327926,263972,12406
941.254,1.310509,281845,13788
945.076,1.320100,297271,14225
950.165,1.309597,315605,15472
953.978,1.303245,328029,16318
957.786,1.304475,340470,16889
961.59,1.316153,352317,17013
965.389,1.315820,363056,17545
969.185,1.312017,373162,18192
972.976,1.306274,382632,18902
976.763,1.300988,391202,19562
981.806,1.307690,400190,19705
985.583,1.304841,406088,20127
989.355,1.302517,410162,20438
993.124,1.299736,412868,20705
996.888,1.306073,414263,20474
1000.65,1.302764,415476,20691
1004.4,1.309345,415479,20380
1009.41,1.304712,414358,20543
1013.15,1.305898,412923,20416
1016.89,1.300678,411526,20593
1020.63,1.300909,409066,20459
1024.36,1.308109,406777,20010
1028.09,1.306810,404427,19954
1031.82,1.303404,401911,19986
1036.78,1.310095,398410,19509
1040.49,1.300049,396204,19855
1044.2,1.309929,394236,19312
1047.91,1.298646,392042,19710
1051.61,1.311041,389823,19047
1055.31,1.311255,388234,18960
1059,1.311232,387599,18930
1063.92,1.305101,386688,19154
1067.61,1.298005,386598,19465
1071.29,1.311029,387377,18928
1074.96,1.307716,388536,19130
1078.63,1.313248,389855,18952
1082.3,1.307962,391215,19251
1085.96,1.307030,393215,19391
1090.84,1.307156,396270,19536
1094.49,1.311792,398760,19450
1098.14,1.312895,400987,19509
1101.79,1.307381,403477,19881
1105.43,1.310627,406116,19862
1109.06,1.306476,407701,20131
1112.7,1.311822,409859,19990
1117.53,1.318424,412494,19815
1121.15,1.307387,414909,20444
1124.77,1.301655,416559,20798
1128.38,1.317174,418532,20163
1131.99,1.310455,419956,20547
1135.6,1.316436,421946,20362
1139.2,1.311777,423881,20676
1143.99,1.316280,426786,20603
1147.58,1.319554,428617,20536
1151.17,1.315479,431169,20853
1154.75,1.311101,433579,21182
1158.33,1.318213,436264,20967
1161.91,1.307157,439132,21649
1165.48,1.311833,442389,21576
1169.04,1.317925,446101,21454
1173.79,1.315102,451929,21876
1177.34,1.313420,456026,22160
1180.9,1.302091,461306,23009
1184.44,1.311288,467657,22837
1187.99,1.315270,473969,22934
1191.52,1.314912,479856,23238
1195.06,1.319667,487372,23345
1199.76,1.323545,497347,23611
1203.29,1.318506,504311,24221
1206.81,1.313630,511507,24844
1210.33,1.317623,519078,24981
1213.84,1.318361,527163,25327
1217.35,1.323715,534208,25351
1220.85,1.313462,540472,26261
1225.51,1.309522,549929,26964
1229.01,1.318785,556888,26729
1232.5,1.316074,562180,27152
1235.98,1.317880,567975,27318
1239.46,1.324736,574815,27214
1242.94,1.324393,582782,27613
1246.41,1.316072,591476,28567
1251.03,1.320918,604016,28849
1254.5,1.330560,612289,28602
1257.96,1.317009,619125,29838
1261.41,1.319215,624551,29947
1264.86,1.321095,629900,30073
1268.31,1.322462,634345,30190
1271.75,1.322081,638574,30418
1276.33,1.320098,642499,30745
1279.76,1.321731,645905,30792
1283.19,1.319887,648307,31038
1286.61,1.321962,650446,30992
1290.03,1.327013,652132,30713
1293.44,1.327671,653907,30750
1296.85,1.322599,655963,31209
1301.39,1.325748,657349,31049
1304.8,1.328482,657558,30864
1308.19,1.328087,658515,30937
1311.58,1.321896,658804,31395
1314.97,1.329947,659011,30828
1318.36,1.319929,658272,31512
1321.73,1.328760,658022,30866
1326.23,1.327409,657870,30955
1329.6,1.322276,656482,31257
1332.97,1.332933,654926,30427
1336.33,1.327368,653727,30763
1339.69,1.328120,652497,30652
1343.04,1.326609,649913,30637
1346.39,1.324499,647671,30680
1349.73,1.326814,645338,30407
1354.18,1.324732,641175,30356
1357.52,1.325588,638376,30164
1360.85,1.327682,635805,29898
1364.17,1.325087,633413,29964
1367.49,1.318906,631026,30279
1370.81,1.320656,628050,30015
1374.12,1.322621,625034,29736
1378.54,1.329975,620272,29014
1381.84,1.317745,616892,29680
1385.14,1.319725,613613,29388
1388.43,1.320274,611526,29251
1391.72,1.322133,610663,29085
1395.01,1.328156,610634,28683
1398.29,1.329732,611700,28629
1402.66,1.325313,614051,29033
1405.93,1.323510,616268,29259
1409.2,1.324051,617795,29295
1412.46,1.330147,618872,28937
1415.72,1.328131,619795,29115
1418.98,1.329966,620495,29025
1422.23,1.325071,621087,29382
1426.56,1.325583,621375,29361
1429.8,1.324865,621616,29421
1433.04,1.331423,622129,29004
1436.27,1.329910,621526,29077
1439.5,1.325459,621113,29357
1442.72,1.333780,620921,28791
1445.94,1.329928,620270,29017
1450.23,1.328686,618860,29034
1453.44,1.328572,617697,28987
1456.64,1.325054,616264,29155
1459.85,1.336107,614413,28337
1463.04,1.331013,612307,28573
1466.24,1.331087,610032,28462
1469.43,1.334189,607345,28135
1473.67,1.335343,603789,27896
1476.85,1.328937,601175,28188
1480.02,1.328825,597737,28034
1483.19,1.327429,594479,27971
1486.36,1.334928,591232,27342
1489.52,1.329715,587853,27514
1492.68,1.332966,583875,27124
1496.89,1.338663,578062,26504
1500.03,1.335803,574159,26499
1503.18,1.333223,570285,26477
1506.32,1.330555,565444,26414
1509.45,1.329137,560571,26272
1512.58,1.334934,555821,25704
1515.71,1.335903,550344,25394
1519.87,1.326718,543983,25637
1522.99,1.333146,538764,25018
1526.1,1.329246,533692,25006
1529.21,1.336786,527902,24309
1532.32,1.330382,521886,24389
1535.42,1.336033,515888,23797
1538.51,1.330781,509987,23811
1541.6,1.332881,503936,23415
1545.72,1.336154,494694,22813
1548.8,1.328560,488378,22919
1551.88,1.332667,481832,22399
1554.95,1.331584,474989,22136
1558.02,1.331700,467818,21796
1561.08,1.330402,460730,21530
1564.15,1.325528,454170,21463
1568.22,1.328183,444181,20863
1571.27,1.334991,436947,20204
1574.32,1.327603,429598,20205
1577.36,1.327570,422039,19851
1580.4,1.320575,414375,19807
1583.43,1.322763,406354,19326
1586.46,1.331987,398475,18553
1590.49,1.323016,388982,18489
1593.51,1.321763,380708,18148
1596.53,1.320508,372727,17819
1599.54,1.321241,365060,17423
1602.55,1.308433,357543,17575
1605.55,1.319245,349495,16757
1608.55,1.308832,341154,16754
1612.54,1.318433,330877,15894
1615.53,1.318882,322904,15495
1618.51,1.317056,315116,15185
1621.49,1.325120,307217,14532
1624.47,1.316682,299481,14444
1627.44,1.307127,292112,14402
1630.41,1.305430,284245,14069
1634.36,1.318686,274079,13158
1637.32,1.318588,266916,12817
1640.27,1.300315,259612,13002
1643.22,1.308728,251804,12369
1646.16,1.287328,244348,12609
1649.1,1.312751,236703,11520
1652.04,1.298621,228171,11472
1655.95,1.306606,215408,10633
1658.88,1.276551,204937,10841
1661.8,1.280579,193395,10136
1664.72,1.257098,179728,9943
1667.63,1.242526,163642,9362
1670.54,1.203716,146312,9153
1673.44,1.198968,128451,8124
1677.31,1.160284,105080,7265
1680.21,1.139843,88906,6443
1683.1,1.092064,75033,6070
1685.99,1.089756,63520,5166
1688.87,1.100678,53714,4260
1691.75,1.138200,45653,3321
1694.62,1.085407,39137,3215
1697.49,1.114973,33776,2592
1701.31,1.108232,28175,2196

File: Column 1_078933_20241121_172911.csv
Method:,Column 1,,
Host Date-Time:,21/11/24 @ 17:29:11,,
Header Version:,1,,
System Temp (C):,37.44,,
Detector Temp (C):,36.44,,
Humidity (%):,0.68,,
Lamp PD:,3796,,
Shift Vector Coefficients:,-10.5391,0.0761263,-0.000134223,,
Pixel to Wavelength Coefficients:,1775.68,-0.916766,-0.000235065,,
Serial Number:,5510004,,
Scan Config Name:,Column 1,,
Scan Config Type:,Slew,,
Section 1,,
Start wavelength (nm):,900,,
End wavelength (nm):,1700,,
Pattern Pixel Width (nm):,   7.03,,,,
Exposure (ms):,  0.635,,,,
Digital Resolution:,228,,
Num Repeats:,6,,
PGA Gain:,64,,
Total Measurement Time in sec:,  2.724,,
Wavelength (nm),Absorbance (AU),Reference Signal (unitless),Sample Signal (unitless)
901.51,1.277746,108485,5723
905.376,1.312662,121306,5905
909.237,1.320383,131909,6308
913.095,1.318528,143299,6882
916.948,1.312302,156982,7648
922.079,1.312170,179937,8769
925.923,1.320350,200504,9589
929.762,1.308665,222660,10939
933.597,1.318664,244426,11735
937.427,1.305947,263972,13050
941.254,1.324952,281845,13337
945.076,1.297989,297271,14968
950.165,1.318101,315605,15172
953.978,1.301625,328029,16379
957.786,1.309596,340470,16691
961.59,1.309918,352317,17259
965.389,1.312860,363056,17665
969.185,1.302641,373162,18589
972.976,1.308947,382632,18786
976.763,1.303884,391202,19432
981.806,1.297862,400190,20156
985.583,1.308307,406088,19967
989.355,1.302538,410162,20437
993.124,1.306650,412868,20378
996.888,1.303936,414263,20575
1000.65,1.299794,415476,20833
1004.4,1.297635,415479,20937
1009.41,1.305897,414358,20487
1013.15,1.296742,412923,20851
1016.89,1.312435,411526,20043
1020.63,1.297842,409066,20604
1024.36,1.306896,406777,20066
1028.09,1.311471,404427,19741
1031.82,1.305146,401911,19906
1036.78,1.302329,398410,19861
1040.49,1.297628,396204,19966
1044.2,1.300387,394236,19741
1047.91,1.305061,392042,19421
1051.61,1.312709,389823,18974
1055.31,1.307560,388234,19122
1059,1.302398,387599,19319
1063.92,1.307124,386688,19065
1067.61,1.320041,386598,18502
1071.29,1.317665,387377,18641
1074.96,1.306854,388536,19168
1078.63,1.311852,389855,19013
1082.3,1.307286,391215,19281
1085.96,1.312121,393215,19165
1090.84,1.314532,396270,19207
1094.49,1.312127,398760,19435
1098.14,1.309724,400987,19652
1101.79,1.306290,403477,19931
1105.43,1.312709,406116,19767
1109.06,1.309486,407701,19992
1112.7,1.316298,409859,19785
1117.53,1.318511,412494,19811
1121.15,1.317097,414909,19992
1124.77,1.308665,416559,20465
1128.38,1.312546,418532,20379
1131.99,1.315408,419956,20314
1135.6,1.314797,421946,20439
1139.2,1.315448,423881,20502
1143.99,1.324085,426786,20236
1147.58,1.308302,428617,21075
1151.17,1.317546,431169,20754
1154.75,1.313796,433579,21051
1158.33,1.306826,436264,21524
1161.91,1.314889,439132,21267
1165.48,1.313204,442389,21508
1169.04,1.309723,446101,21863
1173.79,1.315063,451929,21878
1177.34,1.304670,456026,22611
1180.9,1.315023,461306,22334
1184.44,1.313328,467657,22730
1187.99,1.324360,473969,22459
1191.52,1.313997,479856,23287
1195.06,1.313497,487372,23679
1199.76,1.321728,497347,23710
1203.29,1.314971,504311,24419
1206.81,1.319012,511507,24538
1210.33,1.320186,519078,24834
1213.84,1.321407,527163,25150
1217.35,1.317642,534208,25708
1220.85,1.315900,540472,26114
1225.51,1.317339,549929,26483
1229.01,1.320397,556888,26630
1232.5,1.320527,562180,26875
1235.98,1.315471,567975,27470
1239.46,1.315265,574815,27814
1242.94,1.322134,582782,27757
1246.41,1.320627,591476,28269
1251.03,1.322275,604016,28759
1254.5,1.326419,612289,28876
1257.96,1.321118,619125,29557
1261.41,1.319360,624551,29937
1264.86,1.322788,629900,29956
1268.31,1.325581,634345,29974
1271.75,1.321253,638574,30476
1276.33,1.322719,642499,30560
1279.76,1.327195,645905,30407
1283.19,1.321078,648307,30953
1286.61,1.323492,650446,30883
1290.03,1.316604,652132,31458
1293.44,1.326697,653907,30819
1296.85,1.319231,655963,31452
1301.39,1.324394,657349,31146
1304.8,1.324922,657558,31118
1308.19,1.326812,658515,31028
1311.58,1.328194,658804,30943
1314.97,1.329215,659011,30880
1318.36,1.327408,658272,30974
1321.73,1.328141,658022,30910
1326.23,1.327564,657870,30944
1329.6,1.323793,656482,31148
1332.97,1.330017,654926,30632
1336.33,1.320755,653727,31235
1339.69,1.328091,652497,30654
1343.04,1.325943,649913,30684
1346.39,1.331534,647671,30187
1349.73,1.323896,645338,30612
1354.18,1.326165,641175,30256
1357.52,1.325113,638376,30197
1360.85,1.324599,635805,30111
1364.17,1.321306,633413,30226
1367.49,1.333951,631026,29248
1370.81,1.322555,628050,29884
1374.12,1.323703,625034,29662
1378.54,1.322716,620272,29503
1381.84,1.321877,616892,29399
1385.14,1.314583,613613,29738
1388.43,1.322358,611526,29111
1391.72,1.327511,610663,28727
1395.01,1.322187,610634,29080
1398.29,1.324260,611700,28992
1402.66,1.327156,614051,28910
1405.93,1.323570,616268,29255
1409.2,1.331120,617795,28822
1412.46,1.327409,618872,29120
1415.72,1.330150,619795,28980
1418.98,1.322666,620495,29517
1422.23,1.331459,621087,28953
1426.56,1.326160,621375,29322
1429.8,1.333693,621616,28829
1433.04,1.331827,622129,28977
1436.27,1.328880,621526,29146
1439.5,1.325222,621113,29373
1442.72,1.330608,620921,29002
1445.94,1.327213,620270,29199
1450.23,1.327819,618860,29092
1453.44,1.331277,617697,28807
1456.64,1.335700,616264,28449
1459.85,1.326407,614413,28977
1463.04,1.337167,612307,28171
1466.24,1.333858,610032,28281
1469.43,1.327829,607345,28550
1473.67,1.329913,603789,28247
1476.85,1.332091,601175,27984
1480.02,1.331482,597737,27863
1483.19,1.330999,594479,27742
1486.36,1.332899,591232,27470
1489.52,1.335035,587853,27179
1492.68,1.326529,583875,27529
1496.89,1.329502,578062,27069
1500.03,1.341162,574159,26174
1503.18,1.332633,570285,26513
1506.32,1.326529,565444,26660
1509.45,1.329832,560571,26230
1512.58,1.337357,555821,25561
1515.71,1.329705,550344,25759
1519.87,1.328126,543983,25554
1522.99,1.328621,538764,25280
1526.1,1.332279,533692,24832
1529.21,1.332325,527902,24560
1532.32,1.343322,521886,23673
1535.42,1.331729,515888,24034
1538.51,1.338306,509987,23402
1541.6,1.328489,503936,23653
1545.72,1.334995,494694,22874
1548.8,1.333420,488378,22664
1551.88,1.327463,481832,22669
1554.95,1.332586,474989,22085
1558.02,1.334298,467818,21666
1561.08,1.331210,460730,21490
1564.15,1.331210,454170,21184
1568.22,1.329914,444181,20780
1571.27,1.330479,436947,20415
1574.32,1.326316,429598,20265
1577.36,1.318263,422039,20281
1580.4,1.324385,414375,19634
1583.43,1.333202,406354,18867
1586.46,1.326682,398475,18781
1590.49,1.327241,388982,18310
1593.51,1.322410,380708,18121
1596.53,1.326767,372727,17564
1599.54,1.331609,365060,17012
1602.55,1.324954,357543,16919
1605.55,1.321922,349495,16654
1608.55,1.323087,341154,16213
1612.54,1.323435,330877,15712
1615.53,1.316394,322904,15584
1618.51,1.324964,315116,14911
1621.49,1.320986,307217,14671
1624.47,1.321763,299481,14276
1627.44,1.321442,292112,13935
1630.41,1.307193,284245,14012
1634.36,1.305456,274079,13565
1637.32,1.319606,266916,12787
1640.27,1.319784,259612,12432
1643.22,1.306591,251804,12430
1646.16,1.312279,244348,11905
1649.1,1.297891,236703,11921
1652.04,1.288777,228171,11735
1655.95,1.287079,215408,11122
1658.88,1.277514,204937,10817
1661.8,1.269245,193395,10404
1664.72,1.277167,179728,9494
1667.63,1.245879,163642,9290
1670.54,1.236577,146312,8486
1673.44,1.211330,128451,7896
1677.31,1.163946,105080,7204
1680.21,1.129387,88906,6600
1683.1,1.141333,75033,5419
1685.99,1.092032,63520,5139
1688.87,1.083684,53714,4430
1691.75,1.117267,45653,3485
1694.62,1.110000,39137,3038
1697.49,1.164433,33776,2313
1701.31,1.128058,28175,2098

File: Column 1_078938_20241121_172926.csv
Method:,Column 1,,
Host Date-Time:,21/11/24 @ 17:29:26,,
Header Version:,1,,
System Temp (C):,37.51,,
Detector Temp (C):,36.54,,
Humidity (%):,0.54,,
Lamp PD:,3796,,
Shift Vector Coefficients:,-10.5391,0.0761263,-0.000134223,,
Pixel to Wavelength Coefficients:,1775.68,-0.916766,-0.000235065,,
Serial Number:,5510004,,
Scan Config Name:,Column 1,,
Scan Config Type:,Slew,,
Section 1,,
Start wavelength (nm):,900,,
End wavelength (nm):,1700,,
Pattern Pixel Width (nm):,   7.03,,,,
Exposure (ms):,  0.635,,,,
Digital Resolution:,228,,
Num Repeats:,6,,
PGA Gain:,64,,
Total Measurement Time in sec:,  2.726,,
Wavelength (nm),Absorbance (AU),Reference Signal (unitless),Sample Signal (unitless)
901.51,1.330447,108485,5069
905.376,1.314874,121306,5875
909.237,1.305827,131909,6523
913.095,1.317709,143299,6895
916.948,1.333182,156982,7289
922.079,1.297465,179937,9071
925.923,1.333313,200504,9307
929.762,1.333164,222660,10339
933.597,1.323278,244426,11611
937.427,1.326423,263972,12449
941.254,1.332010,281845,13122
945.076,1.310767,297271,14534
950.165,1.317072,315605,15208
953.978,1.308978,328029,16104
957.786,1.312363,340470,16585
961.59,1.305487,352317,17436
965.389,1.311780,363056,17709
969.185,1.307883,373162,18366
972.976,1.295764,382632,19365
976.763,1.297604,391202,19715
981.806,1.315810,400190,19340
985.583,1.307807,406088,19990
989.355,1.298204,410162,20642
993.124,1.304502,412868,20479
996.888,1.301033,414263,20713
1000.65,1.304658,415476,20601
1004.4,1.306097,415479,20533
1009.41,1.295467,414358,20985
1013.15,1.310367,412923,20207
1016.89,1.310467,411526,20134
1020.63,1.302589,409066,20380
1024.36,1.308761,406777,19980
1028.09,1.308424,404427,19880
1031.82,1.309399,401911,19712
1036.78,1.301412,398410,19903
1040.49,1.303629,396204,19692
1044.2,1.304010,394236,19577
1047.91,1.307865,392042,19296
1051.61,1.312571,389823,18980
1055.31,1.300397,388234,19440
1059,1.312565,387599,18872
1063.92,1.304693,386688,19172
1067.61,1.313518,386598,18782
1071.29,1.309380,387377,19000
1074.96,1.310244,388536,19019
1078.63,1.309983,389855,19095
1082.3,1.316667,391215,18869
1085.96,1.304328,393215,19512
1090.84,1.314147,396270,19224
1094.49,1.318339,398760,19159
1098.14,1.310919,400987,19598
1101.79,1.309395,403477,19789
1105.43,1.314559,406116,19683
1109.06,1.315457,407701,19719
1112.7,1.302302,409859,20433
1117.53,1.321967,412494,19654
1121.15,1.314001,414909,20135
1124.77,1.309153,416559,20442
1128.38,1.316141,418532,20211
1131.99,1.307024,419956,20710
1135.6,1.314033,421946,20475
1139.2,1.308388,423881,20838
1143.99,1.320516,426786,20403
1147.58,1.309954,428617,20995
1151.17,1.311292,431169,21055
1154.75,1.316693,433579,20911
1158.33,1.323129,436264,20731
1161.91,1.305835,439132,21715
1165.48,1.314580,442389,21440
1169.04,1.317257,446101,21487
1173.79,1.313398,451929,21962
1177.34,1.319836,456026,21835
1180.9,1.319204,461306,22120
1184.44,1.313557,467657,22718
1187.99,1.310711,473969,23176
1191.52,1.318855,479856,23028
1195.06,1.314305,487372,23635
1199.76,1.316865,497347,23977
1203.29,1.319619,504311,24159
1206.81,1.316207,511507,24697
1210.33,1.319417,519078,24878
1213.84,1.316735,527163,25422
1217.35,1.319386,534208,25605
1220.85,1.310462,540472,26443
1225.51,1.322852,549929,26149
1229.01,1.322440,556888,26505
1232.5,1.318094,562180,27026
1235.98,1.323642,567975,26958
1239.46,1.323063,574815,27319
1242.94,1.314965,582782,28219
1246.41,1.325555,591476,27950
1251.03,1.315457,604016,29214
1254.5,1.320207,612289,29292
1257.96,1.318379,619125,29744
1261.41,1.317709,624551,30051
1264.86,1.320979,629900,30081
1268.31,1.321974,634345,30224
1271.75,1.326457,638574,30113
1276.33,1.320946,642499,30685
1279.76,1.320829,645905,30856
1283.19,1.322610,648307,30844
1286.61,1.325946,650446,30709
1290.03,1.321505,652132,31105
1293.44,1.325262,653907,30921
1296.85,1.326570,655963,30925
1301.39,1.322390,657349,31290
1304.8,1.323348,657558,31231
1308.19,1.331060,658515,30726
1311.58,1.325870,658804,31109
1314.97,1.332703,659011,30633
1318.36,1.330885,658272,30727
1321.73,1.331527,658022,30670
1326.23,1.328758,657870,30859
1329.6,1.334035,656482,30422
1332.97,1.330840,654926,30574
1336.33,1.328541,653727,30680
1339.69,1.320911,652497,31165
1343.04,1.329382,649913,30442
1346.39,1.321888,647671,30865
1349.73,1.320912,645338,30823
1354.18,1.326151,641175,30257
1357.52,1.322818,638376,30357
1360.85,1.318441,635805,30541
1364.17,1.326074,633413,29896
1367.49,1.321336,631026,30110
1370.81,1.329470,628050,29412
1374.12,1.325552,625034,29536
1378.54,1.323733,620272,29434
1381.84,1.328291,616892,28968
1385.14,1.326861,613613,28909
1388.43,1.325036,611526,28932
1391.72,1.324874,610663,28902
1395.01,1.324718,610634,28911
1398.29,1.325520,611700,28908
1402.66,1.324326,614051,29099
1405.93,1.326534,616268,29056
1409.2,1.331226,617795,28815
1412.46,1.328515,618872,29046
1415.72,1.332795,619795,28804
1418.98,1.323963,620495,29429
1422.23,1.332630,621087,28875
1426.56,1.334535,621375,28762
1429.8,1.336367,621616,28652
1433.04,1.330465,622129,29068
1436.27,1.327556,621526,29235
1439.5,1.335062,621113,28715
1442.72,1.332770,620921,28858
1445.94,1.331803,620270,28892
1450.23,1.332924,618860,28752
1453.44,1.326062,617697,29155
1456.64,1.339533,616264,28199
1459.85,1.329974,614413,28740
1463.04,1.330755,612307,28590
1466.24,1.333305,610032,28317
1469.43,1.328149,607345,28529
1473.67,1.325675,603789,28524
1476.85,1.332977,601175,27927
1480.02,1.326508,597737,28184
1483.19,1.331422,594479,27715
1486.36,1.336503,591232,27243
1489.52,1.330157,587853,27486
1492.68,1.327208,583875,27486
1496.89,1.327038,578062,27223
1500.03,1.336180,574159,26476
1503.18,1.331357,570285,26591
1506.32,1.326497,565444,26662
1509.45,1.339239,560571,25668
1512.58,1.330781,555821,25951
1515.71,1.335886,550344,25395
1519.87,1.335946,543983,25098
1522.99,1.332140,538764,25076
1526.1,1.335897,533692,24626
1529.21,1.330367,527902,24671
1532.32,1.332739,521886,24257
1535.42,1.333468,515888,23938
1538.51,1.338993,509987,23365
1541.6,1.330053,503936,23568
1545.72,1.336002,494694,22821
1548.8,1.332711,488378,22701
1551.88,1.334046,481832,22328
1554.95,1.331741,474989,22128
1558.02,1.324272,467818,22172
1561.08,1.333703,460730,21367
1564.15,1.327394,454170,21371
1568.22,1.325548,444181,20990
1571.27,1.325572,436947,20647
1574.32,1.330840,429598,20055
1577.36,1.324431,422039,19995
1580.4,1.324982,414375,19607
1583.43,1.326214,406354,19173
1586.46,1.334193,398475,18459
1590.49,1.328429,388982,18260
1593.51,1.327375,380708,17915
1596.53,1.335131,372727,17229
1599.54,1.310045,365060,17878
1602.55,1.324287,357543,16945
1605.55,1.320542,349495,16707
1608.55,1.316917,341154,16445
1612.54,1.321862,330877,15769
1615.53,1.311958,322904,15744
1618.51,1.324352,315116,14932
1621.49,1.318212,307217,14765
1624.47,1.318671,299481,14378
1627.44,1.307428,292112,14392
1630.41,1.314192,284245,13788
1634.36,1.321235,274079,13081
1637.32,1.314273,266916,12945
1640.27,1.300548,259612,12995
1643.22,1.309994,251804,12333
1646.16,1.316274,244348,11796
1649.1,1.308139,236703,11643
1652.04,1.301699,228171,11391
1655.95,1.295238,215408,10915
1658.88,1.286396,204937,10598
1661.8,1.269454,193395,10399
1664.72,1.265255,179728,9758
1667.63,1.236034,163642,9503
1670.54,1.215695,146312,8904
1673.44,1.212156,128451,7881
1677.31,1.171180,105080,7085
1680.21,1.145269,88906,6363
1683.1,1.157831,75033,5217
1685.99,1.119773,63520,4821
1688.87,1.102414,53714,4243
1691.75,1.123163,45653,3438
1694.62,1.103755,39137,3082
1697.49,1.104707,33776,2654
1701.31,1.146668,28175,2010