Folder: textile_sorting_NIRSCAN_/ML/samples/unknown (part 100)

File: Column 1_078710_20241121_171827.csv
Method:,Column 1,,
Host Date-Time:,21/11/24 @ 17:18:27,,
Header Version:,1,,
System Temp (C):,35.83,,
Detector Temp (C):,34.4,,
Humidity (%):,1.67,,
Lamp PD:,3799,,
Shift Vector Coefficients:,-10.5391,0.0761263,-0.000134223,,
Pixel to Wavelength Coefficients:,1775.68,-0.916766,-0.000235065,,
Serial Number:,5510004,,
Scan Config Name:,Column 1,,
Scan Config Type:,Slew,,
Section 1,,
Start wavelength (nm):,900,,
End wavelength (nm):,1700,,
Pattern Pixel Width (nm):,   7.03,,,,
Exposure (ms):,  0.635,,,,
Digital Resolution:,228,,
Num Repeats:,6,,
PGA Gain:,64,,
Total Measurement Time in sec:,  2.726,,
Wavelength (nm),Absorbance (AU),Reference Signal (unitless),Sample Signal (unitless)
901.51,1.292880,108485,5527
905.376,1.307108,121306,5981
909.237,1.316817,131909,6360
913.095,1.277262,143299,7568
916.948,1.316410,156982,7576
922.079,1.326008,179937,8494
925.923,1.314993,200504,9708
929.762,1.304752,222660,11038
933.597,1.307485,244426,12041
937.427,1.319021,263972,12663
941.254,1.318199,281845,13546
945.076,1.299296,297271,14923
950.165,1.307553,315605,15545
953.978,1.293092,328029,16704
957.786,1.300788,340470,17033
961.59,1.315668,352317,17032
965.389,1.315424,363056,17561
969.185,1.309826,373162,18284
972.976,1.314133,382632,18563
976.763,1.294816,391202,19842
981.806,1.306787,400190,19746
985.583,1.307612,406088,19999
989.355,1.298625,410162,20622
993.124,1.299526,412868,20715
996.888,1.304570,414263,20545
1000.65,1.295335,415476,21048
1004.4,1.305188,415479,20576
1009.41,1.302792,414358,20634
1013.15,1.300571,412923,20668
1016.89,1.309864,411526,20162
1020.63,1.302952,409066,20363
1024.36,1.303189,406777,20238
1028.09,1.308053,404427,19897
1031.82,1.315881,401911,19420
1036.78,1.297934,398410,20063
1040.49,1.302814,396204,19729
1044.2,1.310559,394236,19284
1047.91,1.309466,392042,19225
1051.61,1.307951,389823,19183
1055.31,1.299415,388234,19484
1059,1.304132,387599,19242
1063.92,1.297749,386688,19481
1067.61,1.302130,386598,19281
1071.29,1.300422,387377,19396
1074.96,1.297131,388536,19602
1078.63,1.304469,389855,19339
1082.3,1.317288,391215,18842
1085.96,1.310854,393215,19221
1090.84,1.310593,396270,19382
1094.49,1.311658,398760,19456
1098.14,1.310498,400987,19617
1101.79,1.316743,403477,19457
1105.43,1.307924,406116,19986
1109.06,1.310813,407701,19931
1112.7,1.307520,409859,20189
1117.53,1.317701,412494,19848
1121.15,1.306771,414909,20473
1124.77,1.310153,416559,20395
1128.38,1.306830,418532,20649
1131.99,1.319619,419956,20118
1135.6,1.315818,421946,20391
1139.2,1.309222,423881,20798
1143.99,1.312230,426786,20796
1147.58,1.308178,428617,21081
1151.17,1.315146,431169,20869
1154.75,1.319360,433579,20783
1158.33,1.315941,436264,21077
1161.91,1.306876,439132,21663
1165.48,1.305777,442389,21879
1169.04,1.314939,446101,21602
1173.79,1.313893,451929,21937
1177.34,1.313204,456026,22171
1180.9,1.313276,461306,22424
1184.44,1.308275,467657,22996
1187.99,1.312194,473969,23097
1191.52,1.319591,479856,22989
1195.06,1.312966,487372,23708
1199.76,1.314390,497347,24114
1203.29,1.316860,504311,24313
1206.81,1.310408,511507,25029
1210.33,1.312490,519078,25278
1213.84,1.314027,527163,25581
1217.35,1.316175,534208,25795
1220.85,1.314837,540472,26178
1225.51,1.319922,549929,26326
1229.01,1.315467,556888,26934
1232.5,1.306753,562180,27741
1235.98,1.310738,567975,27771
1239.46,1.312805,574815,27972
1242.94,1.316645,582782,28110
1246.41,1.318802,591476,28388
1251.03,1.317499,604016,29077
1254.5,1.319896,612289,29313
1257.96,1.325267,619125,29276
1261.41,1.320202,624551,29879
1264.86,1.315998,629900,30428
1268.31,1.317528,634345,30535
1271.75,1.324012,638574,30283
1276.33,1.319068,642499,30818
1279.76,1.318149,645905,31047
1283.19,1.322554,648307,30848
1286.61,1.323154,650446,30907
1290.03,1.323998,652132,30927
1293.44,1.323888,653907,31019
1296.85,1.315985,655963,31688
1301.39,1.324324,657349,31151
1304.8,1.320175,657558,31460
1308.19,1.321567,658515,31405
1311.58,1.328868,658804,30895
1314.97,1.325337,659011,31157
1318.36,1.322750,658272,31308
1321.73,1.324518,658022,31169
1326.23,1.328407,657870,30884
1329.6,1.319036,656482,31491
1332.97,1.331053,654926,30559
1336.33,1.320574,653727,31248
1339.69,1.320828,652497,31171
1343.04,1.323952,649913,30825
1346.39,1.331491,647671,30190
1349.73,1.319211,645338,30944
1354.18,1.322122,641175,30539
1357.52,1.325559,638376,30166
1360.85,1.327638,635805,29901
1364.17,1.324899,633413,29977
1367.49,1.324594,631026,29885
1370.81,1.318246,628050,30182
1374.12,1.318160,625034,30043
1378.54,1.320616,620272,29646
1381.84,1.325913,616892,29127
1385.14,1.325107,613613,29026
1388.43,1.318718,611526,29356
1391.72,1.324333,610663,28938
1395.01,1.319893,610634,29234
1398.29,1.319967,611700,29280
1402.66,1.315989,614051,29663
1405.93,1.321703,616268,29381
1409.2,1.320713,617795,29521
1412.46,1.327723,618872,29099
1415.72,1.327133,619795,29182
1418.98,1.324613,620495,29385
1422.23,1.324274,621087,29436
1426.56,1.322943,621375,29540
1429.8,1.328139,621616,29200
1433.04,1.329287,622129,29147
1436.27,1.325541,621526,29371
1439.5,1.323069,621113,29519
1442.72,1.330803,620921,28989
1445.94,1.327838,620270,29157
1450.23,1.323186,618860,29404
1453.44,1.334000,617697,28627
1456.64,1.331809,616264,28705
1459.85,1.331927,614413,28611
1463.04,1.329572,612307,28668
1466.24,1.330279,610032,28515
1469.43,1.326023,607345,28669
1473.67,1.328991,603789,28307
1476.85,1.329152,601175,28174
1480.02,1.329989,597737,27959
1483.19,1.327988,594479,27935
1486.36,1.324786,591232,27988
1489.52,1.327809,587853,27635
1492.68,1.329776,583875,27324
1496.89,1.332836,578062,26862
1500.03,1.329926,574159,26860
1503.18,1.332551,570285,26518
1506.32,1.329308,565444,26490
1509.45,1.329005,560571,26280
1512.58,1.330246,555821,25983
1515.71,1.331175,550344,25672
1519.87,1.327770,543983,25575
1522.99,1.326001,538764,25433
1526.1,1.330046,533692,24960
1529.21,1.335894,527902,24359
1532.32,1.329794,521886,24422
1535.42,1.334648,515888,23873
1538.51,1.328199,509987,23953
1541.6,1.332788,503936,23420
1545.72,1.321977,494694,23570
1548.8,1.323025,488378,23213
1551.88,1.327847,481832,22649
1554.95,1.336438,474989,21890
1558.02,1.334800,467818,21641
1561.08,1.336006,460730,21254
1564.15,1.328594,454170,21312
1568.22,1.335277,444181,20525
1571.27,1.324207,436947,20712
1574.32,1.334930,429598,19867
1577.36,1.323303,422039,20047
1580.4,1.328028,414375,19470
1583.43,1.331960,406354,18921
1586.46,1.321990,398475,18985
1590.49,1.317600,388982,18721
1593.51,1.324187,380708,18047
1596.53,1.315636,372727,18020
1599.54,1.324946,365060,17275
1602.55,1.323723,357543,16967
1605.55,1.322418,349495,16635
1608.55,1.319805,341154,16336
1612.54,1.326988,330877,15584
1615.53,1.317287,322904,15552
1618.51,1.302018,315116,15720
1621.49,1.300997,307217,15362
1624.47,1.315871,299481,14471
1627.44,1.317533,292112,14061
1630.41,1.310647,284245,13901
1634.36,1.311128,274079,13389
1637.32,1.298331,266916,13429
1640.27,1.307998,259612,12774
1643.22,1.308096,251804,12387
1646.16,1.307202,244348,12045
1649.1,1.296291,236703,11965
1652.04,1.315764,228171,11028
1655.95,1.312942,215408,10479
1658.88,1.290390,204937,10501
1661.8,1.284928,193395,10035
1664.72,1.269908,179728,9654
1667.63,1.256623,163642,9063
1670.54,1.245104,146312,8321
1673.44,1.250080,128451,7222
1677.31,1.195769,105080,6695
1680.21,1.159844,88906,6153
1683.1,1.165474,75033,5126
1685.99,1.149505,63520,4502
1688.87,1.112773,53714,4143
1691.75,1.167128,45653,3107
1694.62,1.151678,39137,2760
1697.49,1.148578,33776,2399
1701.31,1.099422,28175,2241

File: Column 1_078711_20241121_171829.csv
Method:,Column 1,,
Host Date-Time:,21/11/24 @ 17:18:29,,
Header Version:,1,,
System Temp (C):,35.72,,
Detector Temp (C):,34.44,,
Humidity (%):,1.62,,
Lamp PD:,3799,,
Shift Vector Coefficients:,-10.5391,0.0761263,-0.000134223,,
Pixel to Wavelength Coefficients:,1775.68,-0.916766,-0.000235065,,
Serial Number:,5510004,,
Scan Config Name:,Column 1,,
Scan Config Type:,Slew,,
Section 1,,
Start wavelength (nm):,900,,
End wavelength (nm):,1700,,
Pattern Pixel Width (nm):,   7.03,,,,
Exposure (ms):,  0.635,,,,
Digital Resolution:,228,,
Num Repeats:,6,,
PGA Gain:,64,,
Total Measurement Time in sec:,  2.721,,
Wavelength (nm),Absorbance (AU),Reference Signal (unitless),Sample Signal (unitless)
901.51,1.324238,108485,5142
905.376,1.310901,121306,5929
909.237,1.325996,131909,6227
913.095,1.302180,143299,7146
916.948,1.313325,156982,7630
922.079,1.316901,179937,8674
925.923,1.336874,200504,9231
929.762,1.330358,222660,10406
933.597,1.329721,244426,11440
937.427,1.334664,263972,12215
941.254,1.325311,281845,13326
945.076,1.313285,297271,14450
950.165,1.314594,315605,15295
953.978,1.303911,328029,16293
957.786,1.304681,340470,16881
961.59,1.310094,352317,17252
965.389,1.305571,363056,17964
969.185,1.310040,373162,18275
972.976,1.301089,382632,19129
976.763,1.311618,391202,19089
981.806,1.301692,400190,19979
985.583,1.301595,406088,20278
989.355,1.309263,410162,20123
993.124,1.294296,412868,20966
996.888,1.305543,414263,20499
1000.65,1.298815,415476,20880
1004.4,1.312017,415479,20255
1009.41,1.309751,414358,20306
1013.15,1.306686,412923,20379
1016.89,1.314520,411526,19947
1020.63,1.303080,409066,20357
1024.36,1.301753,406777,20305
1028.09,1.311339,404427,19747
1031.82,1.302319,401911,20036
1036.78,1.305930,398410,19697
1040.49,1.312272,396204,19304
1044.2,1.310582,394236,19283
1047.91,1.308428,392042,19271
1051.61,1.313832,389823,18925
1055.31,1.309815,388234,19023
1059,1.311370,387599,18924
1063.92,1.311106,386688,18891
1067.61,1.309627,386598,18951
1071.29,1.314716,387377,18768
1074.96,1.319522,388536,18617
1078.63,1.314947,389855,18878
1082.3,1.307669,391215,19264
1085.96,1.312824,393215,19134
1090.84,1.305846,396270,19595
1094.49,1.314165,398760,19344
1098.14,1.308840,400987,19692
1101.79,1.313496,403477,19603
1105.43,1.314934,406116,19666
1109.06,1.308531,407701,20036
1112.7,1.316957,409859,19755
1117.53,1.317745,412494,19846
1121.15,1.321419,414909,19794
1124.77,1.317324,416559,20061
1128.38,1.312716,418532,20371
1131.99,1.313616,419956,20398
1135.6,1.323337,421946,20041
1139.2,1.322194,423881,20186
1143.99,1.319899,426786,20432
1147.58,1.321227,428617,20457
1151.17,1.312035,431169,21019
1154.75,1.314704,433579,21007
1158.33,1.306080,436264,21561
1161.91,1.309894,439132,21513
1165.48,1.323833,442389,20988
1169.04,1.319852,446101,21359
1173.79,1.313517,451929,21956
1177.34,1.316508,456026,22003
1180.9,1.314576,461306,22357
1184.44,1.312145,467657,22792
1187.99,1.314324,473969,22984
1191.52,1.322624,479856,22829
1195.06,1.312416,487372,23738
1199.76,1.313670,497347,24154
1203.29,1.315558,504311,24386
1206.81,1.317987,511507,24596
1210.33,1.320466,519078,24818
1213.84,1.315899,527163,25471
1217.35,1.312720,534208,26001
1220.85,1.313297,540472,26271
1225.51,1.317192,549929,26492
1229.01,1.317487,556888,26809
1232.5,1.317949,562180,27035
1235.98,1.318119,567975,27303
1239.46,1.318635,574815,27599
1242.94,1.319420,582782,27931
1246.41,1.323865,591476,28059
1251.03,1.318052,604016,29040
1254.5,1.319245,612289,29357
1257.96,1.324985,619125,29295
1261.41,1.321993,624551,29756
1264.86,1.324910,629900,29810
1268.31,1.321988,634345,30223
1271.75,1.321182,638574,30481
1276.33,1.323900,642499,30477
1279.76,1.324532,645905,30594
1283.19,1.325067,648307,30670
1286.61,1.329538,650446,30456
1290.03,1.325728,652132,30804
1293.44,1.318642,653907,31396
1296.85,1.325504,655963,31001
1301.39,1.326827,657349,30972
1304.8,1.318027,657558,31616
1308.19,1.323855,658515,31240
1311.58,1.328376,658804,30930
1314.97,1.326328,659011,31086
1318.36,1.323458,658272,31257
1321.73,1.324058,658022,31202
1326.23,1.326792,657870,30999
1329.6,1.330552,656482,30667
1332.97,1.328474,654926,30741
1336.33,1.322175,653727,31133
1339.69,1.325549,652497,30834
1343.04,1.325406,649913,30722
1346.39,1.325250,647671,30627
1349.73,1.326585,645338,30423
1354.18,1.329884,641175,29998
1357.52,1.322460,638376,30382
1360.85,1.322857,635805,30232
1364.17,1.321838,633413,30189
1367.49,1.321567,631026,30094
1370.81,1.327349,628050,29556
1374.12,1.327423,625034,29409
1378.54,1.320235,620272,29672
1381.84,1.317482,616892,29698
1385.14,1.318632,613613,29462
1388.43,1.320571,611526,29231
1391.72,1.323508,610663,28993
1395.01,1.322620,610634,29051
1398.29,1.324740,611700,28960
1402.66,1.323953,614051,29124
1405.93,1.327312,616268,29004
1409.2,1.327863,617795,29039
1412.46,1.322722,618872,29436
1415.72,1.323251,619795,29444
1418.98,1.327698,620495,29177
1422.23,1.329648,621087,29074
1426.56,1.331091,621375,28991
1429.8,1.329599,621616,29102
1433.04,1.330734,622129,29050
1436.27,1.330209,621526,29057
1439.5,1.329218,621113,29104
1442.72,1.328681,620921,29131
1445.94,1.335062,620270,28676
1450.23,1.325333,618860,29259
1453.44,1.330840,617697,28836
1456.64,1.330902,616264,28765
1459.85,1.333220,614413,28526
1463.04,1.327637,612307,28796
1466.24,1.329853,610032,28543
1469.43,1.328179,607345,28527
1473.67,1.328133,603789,28363
1476.85,1.329847,601175,28129
1480.02,1.337841,597737,27458
1483.19,1.329561,594479,27834
1486.36,1.334515,591232,27368
1489.52,1.330995,587853,27433
1492.68,1.334908,583875,27003
1496.89,1.331174,578062,26965
1500.03,1.337132,574159,26418
1503.18,1.337459,570285,26220
1506.32,1.330440,565444,26421
1509.45,1.332306,560571,26081
1512.58,1.335526,555821,25669
1515.71,1.332564,550344,25590
1519.87,1.328790,543983,25515
1522.99,1.331656,538764,25104
1526.1,1.327496,533692,25107
1529.21,1.337842,527902,24250
1532.32,1.332703,521886,24259
1535.42,1.331585,515888,24042
1538.51,1.334647,509987,23600
1541.6,1.339027,503936,23086
1545.72,1.323750,494694,23474
1548.8,1.331260,488378,22777
1551.88,1.330250,481832,22524
1554.95,1.332940,474989,22067
1558.02,1.333777,467818,21692
1561.08,1.337869,460730,21163
1564.15,1.325083,454170,21485
1568.22,1.330940,444181,20731
1571.27,1.334519,436947,20226
1574.32,1.333119,429598,19950
1577.36,1.325998,422039,19923
1580.4,1.325825,414375,19569
1583.43,1.328076,406354,19091
1586.46,1.323342,398475,18926
1590.49,1.331029,388982,18151
1593.51,1.328346,380708,17875
1596.53,1.330243,372727,17424
1599.54,1.321366,365060,17418
1602.55,1.336160,357543,16488
1605.55,1.333631,349495,16211
1608.55,1.311015,341154,16670
1612.54,1.324459,330877,15675
1615.53,1.325718,322904,15253
1618.51,1.329826,315116,14745
1621.49,1.322082,307217,14634
1624.47,1.332699,299481,13921
1627.44,1.318832,292112,14019
1630.41,1.319771,284245,13612
1634.36,1.307767,274079,13493
1637.32,1.322879,266916,12691
1640.27,1.307760,259612,12781
1643.22,1.318493,251804,12094
1646.16,1.320417,244348,11684
1649.1,1.318711,236703,11363
1652.04,1.303226,228171,11351
1655.95,1.310669,215408,10534
1658.88,1.281547,204937,10717
1661.8,1.306442,193395,9550
1664.72,1.256793,179728,9950
1667.63,1.238877,163642,9441
1670.54,1.243074,146312,8360
1673.44,1.231193,128451,7543
1677.31,1.186337,105080,6842
1680.21,1.193285,88906,5697
1683.1,1.172649,75033,5042
1685.99,1.157292,63520,4422
1688.87,1.148935,53714,3812
1691.75,1.105586,45653,3580
1694.62,1.154520,39137,2742
1697.49,1.096923,33776,2702
1701.31,1.160052,28175,1949

File: Column 1_078712_20241121_171832.csv
Method:,Column 1,,
Host Date-Time:,21/11/24 @ 17:18:32,,
Header Version:,1,,
System Temp (C):,35.53,,
Detector Temp (C):,34.44,,
Humidity (%):,1.56,,
Lamp PD:,3800,,
Shift Vector Coefficients:,-10.5391,0.0761263,-0.000134223,,
Pixel to Wavelength Coefficients:,1775.68,-0.916766,-0.000235065,,
Serial Number:,5510004,,
Scan Config Name:,Column 1,,
Scan Config Type:,Slew,,
Section 1,,
Start wavelength (nm):,900,,
End wavelength (nm):,1700,,
Pattern Pixel Width (nm):,   7.03,,,,
Exposure (ms):,  0.635,,,,
Digital Resolution:,228,,
Num Repeats:,6,,
PGA Gain:,64,,
Total Measurement Time in sec:,  2.728,,
Wavelength (nm),Absorbance (AU),Reference Signal (unitless),Sample Signal (unitless)
901.51,1.299771,108485,5440
905.376,1.313546,121306,5893
909.237,1.312401,131909,6425
913.095,1.319350,143299,6869
916.948,1.346001,156982,7077
922.079,1.352356,179937,7994
925.923,1.320033,200504,9596
929.762,1.330108,222660,10412
933.597,1.302393,244426,12183
937.427,1.311440,263972,12886
941.254,1.313734,281845,13686
945.076,1.301397,297271,14851
950.165,1.314765,315605,15289
953.978,1.315144,328029,15877
957.786,1.319093,340470,16330
961.59,1.307159,352317,17369
965.389,1.309773,363056,17791
969.185,1.307434,373162,18385
972.976,1.305768,382632,18924
976.763,1.312483,391202,19051
981.806,1.311564,400190,19530
985.583,1.307243,406088,20016
989.355,1.306638,410162,20245
993.124,1.302535,412868,20572
996.888,1.303599,414263,20591
1000.65,1.298109,415476,20914
1004.4,1.304471,415479,20610
1009.41,1.313122,414358,20149
1013.15,1.314015,412923,20038
1016.89,1.301501,411526,20554
1020.63,1.309917,409066,20039
1024.36,1.298982,406777,20435
1028.09,1.314274,404427,19614
1031.82,1.301734,401911,20063
1036.78,1.308739,398410,19570
1040.49,1.310386,396204,19388
1044.2,1.305833,394236,19495
1047.91,1.309218,392042,19236
1051.61,1.302015,389823,19447
1055.31,1.308015,388234,19102
1059,1.298059,387599,19513
1063.92,1.311589,386688,18870
1067.61,1.312825,386598,18812
1071.29,1.306101,387377,19144
1074.96,1.316476,388536,18748
1078.63,1.316584,389855,18807
1082.3,1.313822,391215,18993
1085.96,1.304061,393215,19524
1090.84,1.312029,396270,19318
1094.49,1.309720,398760,19543
1098.14,1.316651,400987,19341
1101.79,1.313408,403477,19607
1105.43,1.308707,406116,19950
1109.06,1.306994,407701,20107
1112.7,1.320955,409859,19574
1117.53,1.316979,412494,19881
1121.15,1.312881,414909,20187
1124.77,1.315251,416559,20157
1128.38,1.312823,418532,20366
1131.99,1.313574,419956,20400
1135.6,1.313651,421946,20493
1139.2,1.317337,423881,20413
1143.99,1.315964,426786,20618
1147.58,1.320633,428617,20485
1151.17,1.320148,431169,20630
1154.75,1.312950,433579,21092
1158.33,1.313741,436264,21184
1161.91,1.321349,439132,20953
1165.48,1.311230,442389,21606
1169.04,1.311854,446101,21756
1173.79,1.321280,451929,21567
1177.34,1.315857,456026,22036
1180.9,1.314614,461306,22355
1184.44,1.315281,467657,22628
1187.99,1.309047,473969,23265
1191.52,1.317743,479856,23087
1195.06,1.319462,487372,23356
1199.76,1.319864,497347,23812
1203.29,1.321565,504311,24051
1206.81,1.317546,511507,24621
1210.33,1.319470,519078,24875
1213.84,1.315320,527163,25505
1217.35,1.315670,534208,25825
1220.85,1.320245,540472,25854
1225.51,1.326722,549929,25917
1229.01,1.317131,556888,26831
1232.5,1.318576,562180,26996
1235.98,1.318724,567975,27265
1239.46,1.323540,574815,27289
1242.94,1.317852,582782,28032
1246.41,1.320750,591476,28261
1251.03,1.317857,604016,29053
1254.5,1.325638,612289,28928
1257.96,1.324348,619125,29338
1261.41,1.322227,624551,29740
1264.86,1.322614,629900,29968
1268.31,1.324712,634345,30034
1271.75,1.324156,638574,30273
1276.33,1.322591,642499,30569
1279.76,1.320843,645905,30855
1283.19,1.324968,648307,30677
1286.61,1.329282,650446,30474
1290.03,1.327664,652132,30667
1293.44,1.325586,653907,30898
1296.85,1.325098,655963,31030
1301.39,1.327936,657349,30893
1304.8,1.326292,657558,31020
1308.19,1.329437,658515,30841
1311.58,1.330361,658804,30789
1314.97,1.325644,659011,31135
1318.36,1.333977,658272,30509
1321.73,1.330240,658022,30761
1326.23,1.326722,657870,31004
1329.6,1.325623,656482,31017
1332.97,1.333047,654926,30419
1336.33,1.326029,653727,30858
1339.69,1.328843,652497,30601
1343.04,1.329197,649913,30455
1346.39,1.327924,647671,30439
1349.73,1.326385,645338,30437
1354.18,1.326194,641175,30254
1357.52,1.329725,638376,29878
1360.85,1.320479,635805,30398
1364.17,1.325900,633413,29908
1367.49,1.320832,631026,30145
1370.81,1.321858,628050,29932
1374.12,1.322899,625034,29717
1378.54,1.325329,620272,29326
1381.84,1.322305,616892,29370
1385.14,1.323823,613613,29112
1388.43,1.317580,611526,29433
1391.72,1.326485,610663,28795
1395.01,1.325876,610634,28834
1398.29,1.327719,611700,28762
1402.66,1.326766,614051,28936
1405.93,1.331570,616268,28721
1409.2,1.325402,617795,29204
1412.46,1.324185,618872,29337
1415.72,1.326538,619795,29222
1418.98,1.326078,620495,29286
1422.23,1.328454,621087,29154
1426.56,1.327792,621375,29212
1429.8,1.329719,621616,29094
1433.04,1.331093,622129,29026
1436.27,1.331211,621526,28990
1439.5,1.322407,621113,29564
1442.72,1.330728,620921,28994
1445.94,1.330902,620270,28952
1450.23,1.326984,618860,29148
1453.44,1.333893,617697,28634
1456.64,1.324265,616264,29208
1459.85,1.335555,614413,28373
1463.04,1.330861,612307,28583
1466.24,1.334857,610032,28216
1469.43,1.329338,607345,28451
1473.67,1.335935,603789,27858
1476.85,1.327046,601175,28311
1480.02,1.332684,597737,27786
1483.19,1.338627,594479,27259
1486.36,1.331621,591232,27551
1489.52,1.334046,587853,27241
1492.68,1.339597,583875,26713
1496.89,1.338761,578062,26498
1500.03,1.333677,574159,26629
1503.18,1.333683,570285,26449
1506.32,1.332549,565444,26293
1509.45,1.330976,560571,26161
1512.58,1.324583,555821,26324
1515.71,1.330127,550344,25734
1519.87,1.336067,543983,25091
1522.99,1.332608,538764,25049
1526.1,1.332122,533692,24841
1529.21,1.334630,527902,24430
1532.32,1.331701,521886,24315
1535.42,1.342246,515888,23459
1538.51,1.336177,509987,23517
1541.6,1.330993,503936,23517
1545.72,1.339230,494694,22652
1548.8,1.335764,488378,22542
1551.88,1.327904,481832,22646
1554.95,1.331879,474989,22121
1558.02,1.338670,467818,21449
1561.08,1.335679,460730,21270
1564.15,1.325994,454170,21440
1568.22,1.339936,444181,20306
1571.27,1.324416,436947,20702
1574.32,1.328873,429598,20146
1577.36,1.322654,422039,20077
1580.4,1.336497,414375,19094
1583.43,1.335718,406354,18758
1586.46,1.328443,398475,18705
1590.49,1.322805,388982,18498
1593.51,1.333626,380708,17659
1596.53,1.330268,372727,17423
1599.54,1.319326,365060,17500
1602.55,1.324312,357543,16944
1605.55,1.323856,349495,16580
1608.55,1.327475,341154,16050
1612.54,1.309589,330877,16221
1615.53,1.322145,322904,15379
1618.51,1.323916,315116,14947
1621.49,1.323063,307217,14601
1624.47,1.323592,299481,14216
1627.44,1.320664,292112,13960
1630.41,1.314759,284245,13770
1634.36,1.324267,274079,12990
1637.32,1.322605,266916,12699
1640.27,1.324278,259612,12304
1643.22,1.307396,251804,12407
1646.16,1.309479,244348,11982
1649.1,1.306984,236703,11674
1652.04,1.306568,228171,11264
1655.95,1.315811,215408,10410
1658.88,1.305497,204937,10142
1661.8,1.283502,193395,10068
1664.72,1.283433,179728,9358
1667.63,1.263141,163642,8928
1670.54,1.241829,146312,8384
1673.44,1.240211,128451,7388
1677.31,1.192989,105080,6738
1680.21,1.186478,88906,5787
1683.1,1.208360,75033,4644
1685.99,1.174522,63520,4250
1688.87,1.139692,53714,3894
1691.75,1.224581,45653,2722
1694.62,1.160260,39137,2706
1697.49,1.183823,33776,2212
1701.31,1.287897,28175,1452