Folder: textile_sorting_NIRSCAN_/ML/samples/unknown (part 51)

File: Column 1_078336_20241121_165703.csv
Method:,Column 1,,
Host Date-Time:,21/11/24 @ 16:57:3,,
Header Version:,1,,
System Temp (C):,34.68,,
Detector Temp (C):,33.09,,
Humidity (%):,2.55,,
Lamp PD:,3801,,
Shift Vector Coefficients:,-10.5391,0.0761263,-0.000134223,,
Pixel to Wavelength Coefficients:,1775.68,-0.916766,-0.000235065,,
Serial Number:,5510004,,
Scan Config Name:,Column 1,,
Scan Config Type:,Slew,,
Section 1,,
Start wavelength (nm):,900,,
End wavelength (nm):,1700,,
Pattern Pixel Width (nm):,   7.03,,,,
Exposure (ms):,  0.635,,,,
Digital Resolution:,228,,
Num Repeats:,6,,
PGA Gain:,64,,
Total Measurement Time in sec:,  2.735,,
Wavelength (nm),Absorbance (AU),Reference Signal (unitless),Sample Signal (unitless)
901.51,1.315707,108485,5244
905.376,1.313693,121306,5891
909.237,1.307762,131909,6494
913.095,1.305413,143299,7093
916.948,1.297948,156982,7905
922.079,1.315302,179937,8706
925.923,1.311163,200504,9794
929.762,1.330901,222660,10393
933.597,1.303107,244426,12163
937.427,1.314552,263972,12794
941.254,1.325734,281845,13313
945.076,1.311635,297271,14505
950.165,1.323197,315605,14995
953.978,1.317888,328029,15777
957.786,1.307494,340470,16772
961.59,1.311052,352317,17214
965.389,1.309602,363056,17798
969.185,1.309684,373162,18290
972.976,1.312592,382632,18629
976.763,1.309439,391202,19185
981.806,1.300737,400190,20023
985.583,1.307330,406088,20012
989.355,1.315983,410162,19814
993.124,1.317504,412868,19875
996.888,1.310787,414263,20253
1000.65,1.299773,415476,20834
1004.4,1.309771,415479,20360
1009.41,1.305601,414358,20501
1013.15,1.310174,412923,20216
1016.89,1.312543,411526,20038
1020.63,1.312679,409066,19912
1024.36,1.302438,406777,20273
1028.09,1.309583,404427,19827
1031.82,1.311807,401911,19603
1036.78,1.315336,398410,19275
1040.49,1.308598,396204,19468
1044.2,1.309727,394236,19321
1047.91,1.313597,392042,19043
1051.61,1.311885,389823,19010
1055.31,1.310500,388234,18993
1059,1.307986,387599,19072
1063.92,1.311658,386688,18867
1067.61,1.309719,386598,18947
1071.29,1.316571,387377,18688
1074.96,1.315898,388536,18773
1078.63,1.313821,389855,18927
1082.3,1.306633,391215,19310
1085.96,1.312325,393215,19156
1090.84,1.312772,396270,19285
1094.49,1.312328,398760,19426
1098.14,1.316606,400987,19343
1101.79,1.315562,403477,19510
1105.43,1.318660,406116,19498
1109.06,1.316736,407701,19661
1112.7,1.315662,409859,19814
1117.53,1.317263,412494,19868
1121.15,1.322672,414909,19737
1124.77,1.312031,416559,20307
1128.38,1.313677,418532,20326
1131.99,1.316286,419956,20273
1135.6,1.318039,421946,20287
1139.2,1.314770,423881,20534
1143.99,1.311646,426786,20824
1147.58,1.321058,428617,20465
1151.17,1.324549,431169,20422
1154.75,1.317962,433579,20850
1158.33,1.320498,436264,20857
1161.91,1.325305,439132,20763
1165.48,1.315553,442389,21392
1169.04,1.314598,446101,21619
1173.79,1.316474,451929,21807
1177.34,1.317971,456026,21929
1180.9,1.315256,461306,22322
1184.44,1.311840,467657,22808
1187.99,1.322257,473969,22568
1191.52,1.325870,479856,22659
1195.06,1.312051,487372,23758
1199.76,1.317354,497347,23950
1203.29,1.325793,504311,23818
1206.81,1.319987,511507,24483
1210.33,1.319330,519078,24883
1213.84,1.322185,527163,25105
1217.35,1.321801,534208,25463
1220.85,1.321069,540472,25805
1225.51,1.322669,549929,26160
1229.01,1.317568,556888,26804
1232.5,1.322227,562180,26770
1235.98,1.326713,567975,26768
1239.46,1.329679,574815,26906
1242.94,1.324849,582782,27584
1246.41,1.319936,591476,28314
1251.03,1.326204,604016,28500
1254.5,1.326074,612289,28899
1257.96,1.327214,619125,29145
1261.41,1.327827,624551,29359
1264.86,1.322281,629900,29991
1268.31,1.324467,634345,30051
1271.75,1.326847,638574,30086
1276.33,1.329941,642499,30056
1279.76,1.330680,645905,30164
1283.19,1.331170,648307,30242
1286.61,1.325663,650446,30729
1290.03,1.331648,652132,30387
1293.44,1.330391,653907,30558
1296.85,1.328244,655963,30806
1301.39,1.332657,657349,30559
1304.8,1.333093,657558,30538
1308.19,1.331399,658515,30702
1311.58,1.329360,658804,30860
1314.97,1.326356,659011,31084
1318.36,1.337149,658272,30287
1321.73,1.333172,658022,30554
1326.23,1.328899,657870,30849
1329.6,1.329434,656482,30746
1332.97,1.334707,654926,30303
1336.33,1.335404,653727,30199
1339.69,1.333179,652497,30297
1343.04,1.331384,649913,30302
1346.39,1.328509,647671,30398
1349.73,1.326914,645338,30400
1354.18,1.325176,641175,30325
1357.52,1.331619,638376,29748
1360.85,1.329779,635805,29754
1364.17,1.329589,633413,29655
1367.49,1.326677,631026,29742
1370.81,1.327731,628050,29530
1374.12,1.323337,625034,29687
1378.54,1.328033,620272,29144
1381.84,1.331164,616892,28777
1385.14,1.326576,613613,28928
1388.43,1.322388,611526,29109
1391.72,1.323898,610663,28967
1395.01,1.327294,610634,28740
1398.29,1.333052,611700,28411
1402.66,1.326616,614051,28946
1405.93,1.329609,616268,28851
1409.2,1.330759,617795,28846
1412.46,1.329877,618872,28955
1415.72,1.327252,619795,29174
1418.98,1.328353,620495,29133
1422.23,1.333353,621087,28827
1426.56,1.336047,621375,28662
1429.8,1.335640,621616,28700
1433.04,1.328825,622129,29178
1436.27,1.332637,621526,28895
1439.5,1.337169,621113,28576
1442.72,1.334791,620921,28724
1445.94,1.330378,620270,28987
1450.23,1.334483,618860,28649
1453.44,1.338376,617697,28340
1456.64,1.341354,616264,28081
1459.85,1.338319,614413,28193
1463.04,1.332628,612307,28467
1466.24,1.338257,610032,27996
1469.43,1.335797,607345,28031
1473.67,1.332550,603789,28076
1476.85,1.332479,601175,27959
1480.02,1.335853,597737,27584
1483.19,1.334472,594479,27521
1486.36,1.340057,591232,27021
1489.52,1.336299,587853,27100
1492.68,1.332150,583875,27175
1496.89,1.337894,578062,26551
1500.03,1.342159,574159,26114
1503.18,1.338288,570285,26170
1506.32,1.332483,565444,26297
1509.45,1.335767,560571,25874
1512.58,1.337867,555821,25531
1515.71,1.331276,550344,25666
1519.87,1.336379,543983,25073
1522.99,1.331535,538764,25111
1526.1,1.343601,533692,24193
1529.21,1.337734,527902,24256
1532.32,1.333832,521886,24196
1535.42,1.330809,515888,24085
1538.51,1.334592,509987,23603
1541.6,1.336906,503936,23199
1545.72,1.331101,494694,23080
1548.8,1.340568,488378,22294
1551.88,1.336367,481832,22209
1554.95,1.335685,474989,21928
1558.02,1.333697,467818,21696
1561.08,1.332141,460730,21444
1564.15,1.333554,454170,21070
1568.22,1.337845,444181,20404
1571.27,1.329481,436947,20462
1574.32,1.336704,429598,19786
1577.36,1.338133,422039,19374
1580.4,1.329771,414375,19392
1583.43,1.331020,406354,18962
1586.46,1.330002,398475,18638
1590.49,1.333573,388982,18045
1593.51,1.328127,380708,17884
1596.53,1.331766,372727,17363
1599.54,1.315521,365060,17654
1602.55,1.333560,357543,16587
1605.55,1.332160,349495,16266
1608.55,1.325451,341154,16125
1612.54,1.319692,330877,15848
1615.53,1.318070,322904,15524
1618.51,1.320271,315116,15073
1621.49,1.324463,307217,14554
1624.47,1.324693,299481,14180
1627.44,1.328892,292112,13698
1630.41,1.301986,284245,14181
1634.36,1.307349,274079,13506
1637.32,1.306822,266916,13169
1640.27,1.308202,259612,12768
1643.22,1.315665,251804,12173
1646.16,1.310677,244348,11949
1649.1,1.316804,236703,11413
1652.04,1.307031,228171,11252
1655.95,1.300240,215408,10790
1658.88,1.305283,204937,10147
1661.8,1.305443,193395,9572
1664.72,1.296482,179728,9081
1667.63,1.257822,163642,9038
1670.54,1.252155,146312,8187
1673.44,1.253703,128451,7162
1677.31,1.211893,105080,6451
1680.21,1.217181,88906,5392
1683.1,1.190586,75033,4838
1685.99,1.189915,63520,4102
1688.87,1.173423,53714,3603
1691.75,1.225540,45653,2716
1694.62,1.163643,39137,2685
1697.49,1.169342,33776,2287
1701.31,1.099422,28175,2241

File: Column 1_078338_20241121_165709.csv
Method:,Column 1,,
Host Date-Time:,21/11/24 @ 16:57:9,,
Header Version:,1,,
System Temp (C):,34.7,,
Detector Temp (C):,33.23,,
Humidity (%):,2.5,,
Lamp PD:,3802,,
Shift Vector Coefficients:,-10.5391,0.0761263,-0.000134223,,
Pixel to Wavelength Coefficients:,1775.68,-0.916766,-0.000235065,,
Serial Number:,5510004,,
Scan Config Name:,Column 1,,
Scan Config Type:,Slew,,
Section 1,,
Start wavelength (nm):,900,,
End wavelength (nm):,1700,,
Pattern Pixel Width (nm):,   7.03,,,,
Exposure (ms):,  0.635,,,,
Digital Resolution:,228,,
Num Repeats:,6,,
PGA Gain:,64,,
Total Measurement Time in sec:,  2.726,,
Wavelength (nm),Absorbance (AU),Reference Signal (unitless),Sample Signal (unitless)
901.51,1.304426,108485,5382
905.376,1.315170,121306,5871
909.237,1.314366,131909,6396
913.095,1.310463,143299,7011
916.948,1.304312,156982,7790
922.079,1.313311,179937,8746
925.923,1.324811,200504,9491
929.762,1.316476,222660,10744
933.597,1.318331,244426,11744
937.427,1.312047,263972,12868
941.254,1.319966,281845,13491
945.076,1.300666,297271,14876
950.165,1.299882,315605,15822
953.978,1.319377,328029,15723
957.786,1.306356,340470,16816
961.59,1.309189,352317,17288
965.389,1.318901,363056,17421
969.185,1.302618,373162,18590
972.976,1.307470,382632,18850
976.763,1.308580,391202,19223
981.806,1.311497,400190,19533
985.583,1.313185,406088,19744
989.355,1.300757,410162,20521
993.124,1.309236,412868,20257
996.888,1.310551,414263,20264
1000.65,1.306623,415476,20508
1004.4,1.308961,415479,20398
1009.41,1.310629,414358,20265
1013.15,1.314362,412923,20022
1016.89,1.303959,411526,20438
1020.63,1.305068,409066,20264
1024.36,1.313504,406777,19763
1028.09,1.304856,404427,20044
1031.82,1.315948,401911,19417
1036.78,1.317957,398410,19159
1040.49,1.302660,396204,19736
1044.2,1.302062,394236,19665
1047.91,1.300324,392042,19634
1051.61,1.311064,389823,19046
1055.31,1.305069,388234,19232
1059,1.313648,387599,18825
1063.92,1.306828,386688,19078
1067.61,1.310867,386598,18897
1071.29,1.307647,387377,19076
1074.96,1.306719,388536,19174
1078.63,1.309847,389855,19101
1082.3,1.326725,391215,18437
1085.96,1.310222,393215,19249
1090.84,1.323118,396270,18831
1094.49,1.308123,398760,19615
1098.14,1.314300,400987,19446
1101.79,1.324945,403477,19093
1105.43,1.326549,406116,19147
1109.06,1.314665,407701,19755
1112.7,1.320312,409859,19603
1117.53,1.317920,412494,19838
1121.15,1.323685,414909,19691
1124.77,1.324285,416559,19742
1128.38,1.315733,418532,20230
1131.99,1.327747,419956,19745
1135.6,1.324075,421946,20007
1139.2,1.319684,423881,20303
1143.99,1.318689,426786,20489
1147.58,1.314612,428617,20771
1151.17,1.312428,431169,21000
1154.75,1.311512,433579,21162
1158.33,1.328017,436264,20499
1161.91,1.319034,439132,21065
1165.48,1.320946,442389,21128
1169.04,1.308098,446101,21945
1173.79,1.314765,451929,21893
1177.34,1.316982,456026,21979
1180.9,1.318282,461306,22167
1184.44,1.317320,467657,22522
1187.99,1.317434,473969,22820
1191.52,1.319345,479856,23002
1195.06,1.326794,487372,22965
1199.76,1.321051,497347,23747
1203.29,1.319781,504311,24150
1206.81,1.319951,511507,24485
1210.33,1.320308,519078,24827
1213.84,1.322237,527163,25102
1217.35,1.317558,534208,25713
1220.85,1.314107,540472,26222
1225.51,1.323799,549929,26092
1229.01,1.330945,556888,25991
1232.5,1.328815,562180,26367
1235.98,1.325450,567975,26846
1239.46,1.315015,574815,27830
1242.94,1.325085,582782,27569
1246.41,1.325214,591476,27972
1251.03,1.321988,604016,28778
1254.5,1.321618,612289,29197
1257.96,1.326187,619125,29214
1261.41,1.327472,624551,29383
1264.86,1.324822,629900,29816
1268.31,1.325364,634345,29989
1271.75,1.329337,638574,29914
1276.33,1.332332,642499,29891
1279.76,1.329860,645905,30221
1283.19,1.330453,648307,30292
1286.61,1.329510,650446,30458
1290.03,1.328841,652132,30584
1293.44,1.336301,653907,30145
1296.85,1.334764,655963,30347
1301.39,1.326785,657349,30975
1304.8,1.326446,657558,31009
1308.19,1.332291,658515,30639
1311.58,1.330502,658804,30779
1314.97,1.329384,659011,30868
1318.36,1.332613,658272,30605
1321.73,1.328535,658022,30882
1326.23,1.328688,657870,30864
1329.6,1.338440,656482,30115
1332.97,1.333262,654926,30404
1336.33,1.334068,653727,30292
1339.69,1.336402,652497,30073
1343.04,1.330697,649913,30350
1346.39,1.328824,647671,30376
1349.73,1.328760,645338,30271
1354.18,1.333344,641175,29760
1357.52,1.328144,638376,29987
1360.85,1.326811,635805,29958
1364.17,1.331041,633413,29556
1367.49,1.327715,631026,29671
1370.81,1.324376,628050,29759
1374.12,1.328296,625034,29350
1378.54,1.330994,620272,28946
1381.84,1.325481,616892,29156
1385.14,1.328035,613613,28831
1388.43,1.331722,611526,28490
1391.72,1.329041,610663,28626
1395.01,1.323773,610634,28974
1398.29,1.330294,611700,28592
1402.66,1.327577,614051,28882
1405.93,1.332342,616268,28670
1409.2,1.330232,617795,28881
1412.46,1.328978,618872,29015
1415.72,1.333097,619795,28784
1418.98,1.330520,620495,28988
1422.23,1.329080,621087,29112
1426.56,1.331570,621375,28959
1429.8,1.326240,621616,29328
1433.04,1.328646,622129,29190
1436.27,1.338036,621526,28538
1439.5,1.331372,621113,28960
1442.72,1.336367,620921,28620
1445.94,1.330078,620270,29007
1450.23,1.331793,618860,28827
1453.44,1.343633,617697,27999
1456.64,1.336250,616264,28413
1459.85,1.337227,614413,28264
1463.04,1.333055,612307,28439
1466.24,1.338024,610032,28011
1469.43,1.336495,607345,27986
1473.67,1.335982,603789,27855
1476.85,1.332837,601175,27936
1480.02,1.328763,597737,28038
1483.19,1.334804,594479,27500
1486.36,1.339254,591232,27071
1489.52,1.340940,587853,26812
1492.68,1.334747,583875,27013
1496.89,1.336995,578062,26606
1500.03,1.334543,574159,26576
1503.18,1.338687,570285,26146
1506.32,1.339442,565444,25879
1509.45,1.333307,560571,26021
1512.58,1.330079,555821,25993
1515.71,1.334145,550344,25497
1519.87,1.332911,543983,25274
1522.99,1.335252,538764,24897
1526.1,1.342525,533692,24253
1529.21,1.336590,527902,24320
1532.32,1.348063,521886,23416
1535.42,1.335851,515888,23807
1538.51,1.340334,509987,23293
1541.6,1.332195,503936,23452
1545.72,1.333838,494694,22935
1548.8,1.340432,488378,22301
1551.88,1.332357,481832,22415
1554.95,1.336795,474989,21872
1558.02,1.340801,467818,21344
1561.08,1.327768,460730,21661
1564.15,1.334420,454170,21028
1568.22,1.336442,444181,20470
1571.27,1.334648,436947,20220
1574.32,1.328335,429598,20171
1577.36,1.334450,422039,19539
1580.4,1.331679,414375,19307
1583.43,1.335764,406354,18756
1586.46,1.329024,398475,18680
1590.49,1.337004,388982,17903
1593.51,1.331051,380708,17764
1596.53,1.328924,372727,17477
1599.54,1.330997,365060,17036
1602.55,1.325185,357543,16910
1605.55,1.330455,349495,16330
1608.55,1.317366,341154,16428
1612.54,1.323712,330877,15702
1615.53,1.319190,322904,15484
1618.51,1.319954,315116,15084
1621.49,1.322468,307217,14621
1624.47,1.320517,299481,14317
1627.44,1.306313,292112,14429
1630.41,1.315706,284245,13740
1634.36,1.303539,274079,13625
1637.32,1.316492,266916,12879
1640.27,1.320343,259612,12416
1643.22,1.324969,251804,11915
1646.16,1.312790,244348,11891
1649.1,1.313279,236703,11506
1652.04,1.296168,228171,11537
1655.95,1.314021,215408,10453
1658.88,1.301278,204937,10241
1661.8,1.293538,193395,9838
1664.72,1.266012,179728,9741
1667.63,1.264651,163642,8897
1670.54,1.262624,146312,7992
1673.44,1.216699,128451,7799
1677.31,1.202437,105080,6593
1680.21,1.220172,88906,5355
1683.1,1.191125,75033,4832
1685.99,1.205215,63520,3960
1688.87,1.189383,53714,3473
1691.75,1.296610,45653,2306
1694.62,1.148387,39137,2781
1697.49,1.136615,33776,2466
1701.31,1.168603,28175,1911

File: Column 1_078341_20241121_165718.csv
Method:,Column 1,,
Host Date-Time:,21/11/24 @ 16:57:18,,
Header Version:,1,,
System Temp (C):,34.77,,
Detector Temp (C):,33.18,,
Humidity (%):,2.4,,
Lamp PD:,3802,,
Shift Vector Coefficients:,-10.5391,0.0761263,-0.000134223,,
Pixel to Wavelength Coefficients:,1775.68,-0.916766,-0.000235065,,
Serial Number:,5510004,,
Scan Config Name:,Column 1,,
Scan Config Type:,Slew,,
Section 1,,
Start wavelength (nm):,900,,
End wavelength (nm):,1700,,
Pattern Pixel Width (nm):,   7.03,,,,
Exposure (ms):,  0.635,,,,
Digital Resolution:,228,,
Num Repeats:,6,,
PGA Gain:,64,,
Total Measurement Time in sec:,  2.724,,
Wavelength (nm),Absorbance (AU),Reference Signal (unitless),Sample Signal (unitless)
901.51,1.326779,108485,5112
905.376,1.343362,121306,5502
909.237,1.295628,131909,6678
913.095,1.303032,143299,7132
916.948,1.340391,156982,7169
922.079,1.295650,179937,9109
925.923,1.316697,200504,9670
929.762,1.335522,222660,10283
933.597,1.321337,244426,11663
937.427,1.315843,263972,12756
941.254,1.310383,281845,13792
945.076,1.307167,297271,14655
950.165,1.306437,315605,15585
953.978,1.309599,328029,16081
957.786,1.307468,340470,16773
961.59,1.306584,352317,17392
965.389,1.313992,363056,17619
969.185,1.307434,373162,18385
972.976,1.301521,382632,19110
976.763,1.315618,391202,18914
981.806,1.311097,400190,19551
985.583,1.308112,406088,19976
989.355,1.306530,410162,20250
993.124,1.305309,412868,20441
996.888,1.305967,414263,20479
1000.65,1.313926,415476,20166
1004.4,1.306266,415479,20525
1009.41,1.307959,414358,20390
1013.15,1.310905,412923,20182
1016.89,1.303131,411526,20477
1020.63,1.310829,409066,19997
1024.36,1.304974,406777,20155
1028.09,1.307987,404427,19900
1031.82,1.314675,401911,19474
1036.78,1.306548,398410,19669
1040.49,1.303850,396204,19682
1044.2,1.315884,394236,19049
1047.91,1.299528,392042,19670
1051.61,1.309198,389823,19128
1055.31,1.316741,388234,18722
1059,1.308283,387599,19059
1063.92,1.311290,386688,18883
1067.61,1.314583,386598,18736
1071.29,1.309426,387377,18998
1074.96,1.311639,388536,18958
1078.63,1.316145,389855,18826
1082.3,1.311519,391215,19094
1085.96,1.318214,393215,18898
1090.84,1.312254,396270,19308
1094.49,1.309121,398760,19570
1098.14,1.316180,400987,19362
1101.79,1.317502,403477,19423
1105.43,1.317148,406116,19566
1109.06,1.312603,407701,19849
1112.7,1.315049,409859,19842
1117.53,1.318007,412494,19834
1121.15,1.322232,414909,19757
1124.77,1.317735,416559,20042
1128.38,1.323553,418532,19869
1131.99,1.322348,419956,19992
1135.6,1.318446,421946,20268
1139.2,1.320476,423881,20266
1143.99,1.322586,426786,20306
1147.58,1.322205,428617,20411
1151.17,1.307718,431169,21229
1154.75,1.315366,433579,20975
1158.33,1.313598,436264,21191
1161.91,1.307318,439132,21641
1165.48,1.320350,442389,21157
1169.04,1.320341,446101,21335
1173.79,1.315619,451929,21850
1177.34,1.312285,456026,22218
1180.9,1.322911,461306,21932
1184.44,1.314955,467657,22645
1187.99,1.321641,473969,22600
1191.52,1.319213,479856,23009
1195.06,1.319072,487372,23377
1199.76,1.316430,497347,24001
1203.29,1.312576,504311,24554
1206.81,1.320324,511507,24464
1210.33,1.325393,519078,24538
1213.84,1.327056,527163,24825
1217.35,1.326482,534208,25190
1220.85,1.323821,540472,25642
1225.51,1.320301,549929,26303
1229.01,1.328130,556888,26160
1232.5,1.324716,562180,26617
1235.98,1.328225,567975,26675
1239.46,1.326142,574815,27126
1242.94,1.325889,582782,27518
1246.41,1.315920,591476,28577
1251.03,1.317693,604016,29064
1254.5,1.327956,612289,28774
1257.96,1.322605,619125,29456
1261.41,1.328582,624551,29308
1264.86,1.327701,629900,29619
1268.31,1.327614,634345,29834
1271.75,1.327540,638574,30038
1276.33,1.325428,642499,30370
1279.76,1.321999,645905,30773
1283.19,1.327097,648307,30527
1286.61,1.327249,650446,30617
1290.03,1.330321,652132,30480
1293.44,1.325234,653907,30923
1296.85,1.326907,655963,30901
1301.39,1.328780,657349,30833
1304.8,1.332440,657558,30584
1308.19,1.331838,658515,30671
1311.58,1.327198,658804,31014
1314.97,1.330680,659011,30776
1318.36,1.328911,658272,30867
1321.73,1.329098,658022,30842
1326.23,1.333584,657870,30518
1329.6,1.334707,656482,30375
1332.97,1.336157,654926,30202
1336.33,1.329420,653727,30618
1339.69,1.333107,652497,30302
1343.04,1.333611,649913,30147
1346.39,1.330801,647671,30238
1349.73,1.333028,645338,29975
1354.18,1.328540,641175,30091
1357.52,1.329856,638376,29869
1360.85,1.326058,635805,30010
1364.17,1.331335,633413,29536
1367.49,1.319121,631026,30264
1370.81,1.326365,628050,29623
1374.12,1.323996,625034,29642
1378.54,1.326753,620272,29230
1381.84,1.330364,616892,28830
1385.14,1.326456,613613,28936
1388.43,1.325712,611526,28887
1391.72,1.320865,610663,29170
1395.01,1.330312,610634,28541
1398.29,1.325175,611700,28931
1402.66,1.326616,614051,28946
1405.93,1.323391,616268,29267
1409.2,1.332161,617795,28753
1412.46,1.327857,618872,29090
1415.72,1.331245,619795,28907
1418.98,1.329069,620495,29085
1422.23,1.334137,621087,28775
1426.56,1.333057,621375,28860
1429.8,1.330600,621616,29035
1433.04,1.329167,622129,29155
1436.27,1.334444,621526,28775
1439.5,1.333296,621113,28832
1442.72,1.332364,620921,28885
1445.94,1.336124,620270,28606
1450.23,1.331718,618860,28832
1453.44,1.336525,617697,28461
1456.64,1.337260,616264,28347
1459.85,1.338519,614413,28180
1463.04,1.328815,612307,28718
1466.24,1.333413,610032,28310
1469.43,1.334544,607345,28112
1473.67,1.335328,603789,27897
1476.85,1.332806,601175,27938
1480.02,1.331077,597737,27889
1483.19,1.333889,594479,27558
1486.36,1.337732,591232,27166
1489.52,1.334524,587853,27211
1492.68,1.338185,583875,26800
1496.89,1.330257,578062,27022
1500.03,1.335131,574159,26540
1503.18,1.336301,570285,26290
1506.32,1.341174,565444,25776
1509.45,1.338022,560571,25740
1512.58,1.338139,555821,25515
1515.71,1.338167,550344,25262
1519.87,1.341572,543983,24775
1522.99,1.336055,538764,24851
1526.1,1.338674,533692,24469
1529.21,1.341619,527902,24040
1532.32,1.332148,521886,24290
1535.42,1.341432,515888,23503
1538.51,1.338343,509987,23400
1541.6,1.334107,503936,23349
1545.72,1.340824,494694,22569
1548.8,1.336207,488378,22519
1551.88,1.340591,481832,21994
1554.95,1.334992,474989,21963
1558.02,1.335563,467818,21603
1561.08,1.327447,460730,21677
1564.15,1.331888,454170,21151
1568.22,1.335425,444181,20518
1571.27,1.329735,436947,20450
1574.32,1.330731,429598,20060
1577.36,1.336500,422039,19447
1580.4,1.326513,414375,19538
1583.43,1.326940,406354,19141
1586.46,1.332034,398475,18551
1590.49,1.339583,388982,17797
1593.51,1.329100,380708,17844
1596.53,1.325582,372727,17612
1599.54,1.332350,365060,16983
1602.55,1.325982,357543,16879
1605.55,1.325641,349495,16512
1608.55,1.328912,341154,15997
1612.54,1.315438,330877,16004
1615.53,1.323871,322904,15318
1618.51,1.327300,315116,14831
1621.49,1.321548,307217,14652
1624.47,1.328446,299481,14058
1627.44,1.315992,292112,14111
1630.41,1.314917,284245,13765
1634.36,1.314416,274079,13288
1637.32,1.320830,266916,12751
1640.27,1.298947,259612,13043
1643.22,1.314560,251804,12204
1646.16,1.304005,244348,12134
1649.1,1.309559,236703,11605
1652.04,1.302844,228171,11361
1655.95,1.293768,215408,10952
1658.88,1.314934,204937,9924
1661.8,1.277717,193395,10203
1664.72,1.271621,179728,9616
1667.63,1.252949,163642,9140
1670.54,1.247827,146312,8269
1673.44,1.243693,128451,7329
1677.31,1.187481,105080,6824
1680.21,1.213332,88906,5440
1683.1,1.177413,75033,4987
1685.99,1.186855,63520,4131
1688.87,1.214214,53714,3280
1691.75,1.194831,45653,2915
1694.62,1.175947,39137,2610
1697.49,1.227795,33776,1999
1701.31,1.137263,28175,2054