Folder: textile_sorting_NIRSCAN_/ML/samples/unknown (part 79)

File: Column 1_078554_20241121_170823.csv
Method:,Column 1,,
Host Date-Time:,21/11/24 @ 17:8:23,,
Header Version:,1,,
System Temp (C):,35.63,,
Detector Temp (C):,34.47,,
Humidity (%):,1.37,,
Lamp PD:,3799,,
Shift Vector Coefficients:,-10.5391,0.0761263,-0.000134223,,
Pixel to Wavelength Coefficients:,1775.68,-0.916766,-0.000235065,,
Serial Number:,5510004,,
Scan Config Name:,Column 1,,
Scan Config Type:,Slew,,
Section 1,,
Start wavelength (nm):,900,,
End wavelength (nm):,1700,,
Pattern Pixel Width (nm):,   7.03,,,,
Exposure (ms):,  0.635,,,,
Digital Resolution:,228,,
Num Repeats:,6,,
PGA Gain:,64,,
Total Measurement Time in sec:,  2.726,,
Wavelength (nm),Absorbance (AU),Reference Signal (unitless),Sample Signal (unitless)
901.51,1.295876,108485,5489
905.376,1.322180,121306,5777
909.237,1.298368,131909,6636
913.095,1.301269,143299,7161
916.948,1.313325,156982,7630
922.079,1.311082,179937,8791
925.923,1.311252,200504,9792
929.762,1.316113,222660,10753
933.597,1.326733,244426,11519
937.427,1.323988,263972,12519
941.254,1.319323,281845,13511
945.076,1.317513,297271,14310
950.165,1.311708,315605,15397
953.978,1.305299,328029,16241
957.786,1.316547,340470,16426
961.59,1.309666,352317,17269
965.389,1.299330,363056,18224
969.185,1.309043,373162,18317
972.976,1.309410,382632,18766
976.763,1.302500,391202,19494
981.806,1.304090,400190,19869
985.583,1.306831,406088,20035
989.355,1.316203,410162,19804
993.124,1.298228,412868,20777
996.888,1.306689,414263,20445
1000.65,1.301863,415476,20734
1004.4,1.301050,415479,20773
1009.41,1.296047,414358,20957
1013.15,1.294996,412923,20935
1016.89,1.303195,411526,20474
1020.63,1.302632,409066,20378
1024.36,1.302396,406777,20275
1028.09,1.315449,404427,19561
1031.82,1.299037,401911,20188
1036.78,1.298043,398410,20058
1040.49,1.299393,396204,19885
1044.2,1.301070,394236,19710
1047.91,1.303833,392042,19476
1051.61,1.304501,389823,19336
1055.31,1.310134,388234,19009
1059,1.314410,387599,18792
1063.92,1.311359,386688,18880
1067.61,1.309971,386598,18936
1071.29,1.301004,387377,19370
1074.96,1.298951,388536,19520
1078.63,1.305706,389855,19284
1082.3,1.307263,391215,19282
1085.96,1.306918,393215,19396
1090.84,1.310346,396270,19393
1094.49,1.297753,398760,20089
1098.14,1.307585,400987,19749
1101.79,1.310208,403477,19752
1105.43,1.313809,406116,19717
1109.06,1.305248,407701,20188
1112.7,1.315027,409859,19843
1117.53,1.311358,412494,20140
1121.15,1.308962,414909,20370
1124.77,1.320954,416559,19894
1128.38,1.308727,418532,20559
1131.99,1.300964,419956,21001
1135.6,1.308155,421946,20754
1139.2,1.315702,423881,20490
1143.99,1.311312,426786,20840
1147.58,1.320273,428617,20502
1151.17,1.312304,431169,21006
1154.75,1.311512,433579,21162
1158.33,1.318628,436264,20947
1161.91,1.309430,439132,21536
1165.48,1.318445,442389,21250
1169.04,1.305061,446101,22099
1173.79,1.316136,451929,21824
1177.34,1.312421,456026,22211
1180.9,1.313508,461306,22412
1184.44,1.309164,467657,22949
1187.99,1.314513,473969,22974
1191.52,1.311172,479856,23439
1195.06,1.319909,487372,23332
1199.76,1.318007,497347,23914
1203.29,1.318220,504311,24237
1206.81,1.314558,511507,24791
1210.33,1.314557,519078,25158
1213.84,1.316308,527163,25447
1217.35,1.317777,534208,25700
1220.85,1.313909,540472,26234
1225.51,1.316160,549929,26555
1229.01,1.323260,556888,26455
1232.5,1.312616,562180,27369
1235.98,1.312697,567975,27646
1239.46,1.315265,574815,27814
1242.94,1.314995,582782,28217
1246.41,1.317565,591476,28469
1251.03,1.324470,604016,28614
1254.5,1.321202,612289,29225
1257.96,1.323372,619125,29404
1261.41,1.320304,624551,29872
1264.86,1.319797,629900,30163
1268.31,1.319266,634345,30413
1271.75,1.319107,638574,30627
1276.33,1.321456,642499,30649
1279.76,1.323257,645905,30684
1283.19,1.327609,648307,30491
1286.61,1.325423,650446,30746
1290.03,1.324827,652132,30868
1293.44,1.325797,653907,30883
1296.85,1.327019,655963,30893
1301.39,1.325497,657349,31067
1304.8,1.322806,657558,31270
1308.19,1.326364,658515,31060
1311.58,1.329600,658804,30843
1314.97,1.322988,659011,31326
1318.36,1.326806,658272,31017
1321.73,1.327327,658022,30968
1326.23,1.327059,657870,30980
1329.6,1.330792,656482,30650
1332.97,1.331750,654926,30510
1336.33,1.331838,653727,30448
1339.69,1.330321,652497,30497
1343.04,1.326510,649913,30644
1346.39,1.329439,647671,30333
1349.73,1.325715,645338,30484
1354.18,1.322008,641175,30547
1357.52,1.324337,638376,30251
1360.85,1.329414,635805,29779
1364.17,1.327908,633413,29770
1367.49,1.325685,631026,29810
1370.81,1.319558,628050,30091
1374.12,1.319782,625034,29931
1378.54,1.320484,620272,29655
1381.84,1.319431,616892,29565
1385.14,1.331286,613613,28616
1388.43,1.320660,611526,29225
1391.72,1.315685,610663,29520
1395.01,1.325680,610634,28847
1398.29,1.321796,611700,29157
1402.66,1.332416,614051,28562
1405.93,1.323673,616268,29248
1409.2,1.332675,617795,28719
1412.46,1.323239,618872,29401
1415.72,1.326612,619795,29217
1418.98,1.332939,620495,28827
1422.23,1.329991,621087,29051
1426.56,1.325213,621375,29386
1429.8,1.324983,621616,29413
1433.04,1.323823,622129,29516
1436.27,1.329686,621526,29092
1439.5,1.322481,621113,29559
1442.72,1.325798,620921,29325
1445.94,1.332119,620270,28871
1450.23,1.322345,618860,29461
1453.44,1.330705,617697,28845
1456.64,1.330133,616264,28816
1459.85,1.331912,614413,28612
1463.04,1.327803,612307,28785
1466.24,1.327425,610032,28703
1469.43,1.329811,607345,28420
1473.67,1.332163,603789,28101
1476.85,1.324522,601175,28476
1480.02,1.327371,597737,28128
1483.19,1.324257,594479,28176
1486.36,1.324957,591232,27977
1489.52,1.323229,587853,27928
1492.68,1.328157,583875,27426
1496.89,1.329936,578062,27042
1500.03,1.336804,574159,26438
1503.18,1.328330,570285,26777
1506.32,1.334768,565444,26159
1509.45,1.335549,560571,25887
1512.58,1.328311,555821,26099
1515.71,1.329520,550344,25770
1519.87,1.335272,543983,25137
1522.99,1.333615,538764,24991
1526.1,1.332664,533692,24810
1529.21,1.337001,527902,24297
1532.32,1.345050,521886,23579
1535.42,1.329117,515888,24179
1538.51,1.323816,509987,24196
1541.6,1.334368,503936,23335
1545.72,1.330537,494694,23110
1548.8,1.325953,488378,23057
1551.88,1.335253,481832,22266
1554.95,1.333906,474989,22018
1558.02,1.321208,467818,22329
1561.08,1.325947,460730,21752
1564.15,1.322604,454170,21608
1568.22,1.332009,444181,20680
1571.27,1.327511,436947,20555
1574.32,1.325716,429598,20293
1577.36,1.321552,422039,20128
1580.4,1.322927,414375,19700
1583.43,1.324361,406354,19255
1586.46,1.316061,398475,19246
1590.49,1.327289,388982,18308
1593.51,1.320330,380708,18208
1596.53,1.320166,372727,17833
1599.54,1.323290,365060,17341
1602.55,1.324594,357543,16933
1605.55,1.315426,349495,16905
1608.55,1.316336,341154,16467
1612.54,1.316443,330877,15967
1615.53,1.315226,322904,15626
1618.51,1.312730,315116,15337
1621.49,1.313822,307217,14915
1624.47,1.318943,299481,14369
1627.44,1.312711,292112,14218
1630.41,1.317194,284245,13693
1634.36,1.301980,274079,13674
1637.32,1.302425,266916,13303
1640.27,1.301887,259612,12955
1643.22,1.292498,251804,12840
1646.16,1.314804,244348,11836
1649.1,1.302322,236703,11800
1652.04,1.297563,228171,11500
1655.95,1.294999,215408,10921
1658.88,1.284883,204937,10635
1661.8,1.286532,193395,9998
1664.72,1.268965,179728,9675
1667.63,1.236949,163642,9483
1670.54,1.229622,146312,8623
1673.44,1.207497,128451,7966
1677.31,1.183742,105080,6883
1680.21,1.163388,88906,6103
1683.1,1.167852,75033,5098
1685.99,1.161734,63520,4377
1688.87,1.142040,53714,3873
1691.75,1.125824,45653,3417
1694.62,1.180127,39137,2585
1697.49,1.127898,33776,2516
1701.31,1.147750,28175,2005

File: Column 1_078560_20241121_170841.csv
Method:,Column 1,,
Host Date-Time:,21/11/24 @ 17:8:41,,
Header Version:,1,,
System Temp (C):,35.86,,
Detector Temp (C):,34.46,,
Humidity (%):,1.37,,
Lamp PD:,3799,,
Shift Vector Coefficients:,-10.5391,0.0761263,-0.000134223,,
Pixel to Wavelength Coefficients:,1775.68,-0.916766,-0.000235065,,
Serial Number:,5510004,,
Scan Config Name:,Column 1,,
Scan Config Type:,Slew,,
Section 1,,
Start wavelength (nm):,900,,
End wavelength (nm):,1700,,
Pattern Pixel Width (nm):,   7.03,,,,
Exposure (ms):,  0.635,,,,
Digital Resolution:,228,,
Num Repeats:,6,,
PGA Gain:,64,,
Total Measurement Time in sec:,  2.726,,
Wavelength (nm),Absorbance (AU),Reference Signal (unitless),Sample Signal (unitless)
901.51,1.304668,108485,5379
905.376,1.327627,121306,5705
909.237,1.291615,131909,6740
913.095,1.324245,143299,6792
916.948,1.312586,156982,7643
922.079,1.313112,179937,8750
925.923,1.322120,200504,9550
929.762,1.319478,222660,10670
933.597,1.312272,244426,11909
937.427,1.328171,263972,12399
941.254,1.325637,281845,13316
945.076,1.313435,297271,14445
950.165,1.314254,315605,15307
953.978,1.299482,328029,16460
957.786,1.311343,340470,16624
961.59,1.308963,352317,17297
965.389,1.310873,363056,17746
969.185,1.306914,373162,18407
972.976,1.305539,382632,18934
976.763,1.306237,391202,19327
981.806,1.313034,400190,19464
985.583,1.315965,406088,19618
989.355,1.303986,410162,20369
993.124,1.313524,412868,20058
996.888,1.310294,414263,20276
1000.65,1.306284,415476,20524
1004.4,1.311867,415479,20262
1009.41,1.302982,414358,20625
1013.15,1.317715,412923,19868
1016.89,1.308294,411526,20235
1020.63,1.306163,409066,20213
1024.36,1.312889,406777,19791
1028.09,1.304076,404427,20080
1031.82,1.304535,401911,19934
1036.78,1.300387,398410,19950
1040.49,1.298869,396204,19909
1044.2,1.317872,394236,18962
1047.91,1.306562,392042,19354
1051.61,1.314567,389823,18893
1055.31,1.309449,388234,19039
1059,1.301814,387599,19345
1063.92,1.306282,386688,19102
1067.61,1.310844,386598,18898
1071.29,1.302037,387377,19324
1074.96,1.303424,388536,19320
1078.63,1.309007,389855,19138
1082.3,1.300536,391215,19583
1085.96,1.307523,393215,19369
1090.84,1.307000,396270,19543
1094.49,1.299421,398760,20012
1098.14,1.312006,400987,19549
1101.79,1.310714,403477,19729
1105.43,1.313369,406116,19737
1109.06,1.314555,407701,19760
1112.7,1.315794,409859,19808
1117.53,1.312567,412494,20084
1121.15,1.305903,414909,20514
1124.77,1.309876,416559,20408
1128.38,1.314511,418532,20287
1131.99,1.317337,419956,20224
1135.6,1.310148,421946,20659
1139.2,1.317316,423881,20414
1143.99,1.314975,426786,20665
1147.58,1.315386,428617,20734
1151.17,1.314480,431169,20901
1154.75,1.324066,433579,20559
1158.33,1.318255,436264,20965
1161.91,1.313849,439132,21318
1165.48,1.318200,442389,21262
1169.04,1.314618,446101,21618
1173.79,1.312766,451929,21994
1177.34,1.316764,456026,21990
1180.9,1.318008,461306,22181
1184.44,1.316338,467657,22573
1187.99,1.311875,473969,23114
1191.52,1.316898,479856,23132
1195.06,1.311685,487372,23778
1199.76,1.313760,497347,24149
1203.29,1.319206,504311,24182
1206.81,1.318959,511507,24541
1210.33,1.327434,519078,24423
1213.84,1.318516,527163,25318
1217.35,1.317879,534208,25694
1220.85,1.339110,540472,24755
1225.51,1.323699,549929,26098
1229.01,1.315822,556888,26912
1232.5,1.316970,562180,27096
1235.98,1.315898,567975,27443
1239.46,1.327024,574815,27071
1242.94,1.323371,582782,27678
1246.41,1.320105,591476,28303
1251.03,1.321234,604016,28828
1254.5,1.321633,612289,29196
1257.96,1.317009,619125,29838
1261.41,1.323397,624551,29660
1264.86,1.324677,629900,29826
1268.31,1.321098,634345,30285
1271.75,1.327960,638574,30009
1276.33,1.320437,642499,30721
1279.76,1.320112,645905,30907
1283.19,1.323696,648307,30767
1286.61,1.326512,650446,30669
1290.03,1.323717,652132,30947
1293.44,1.326317,653907,30846
1296.85,1.319659,655963,31421
1301.39,1.328949,657349,30821
1304.8,1.327835,657558,30910
1308.19,1.329099,658515,30865
1311.58,1.328854,658804,30896
1314.97,1.328148,659011,30956
1318.36,1.324098,658272,31211
1321.73,1.330183,658022,30765
1326.23,1.326232,657870,31039
1329.6,1.325805,656482,31004
1332.97,1.327472,654926,30812
1336.33,1.335203,653727,30213
1339.69,1.325126,652497,30864
1343.04,1.331269,649913,30310
1346.39,1.324896,647671,30652
1349.73,1.326785,645338,30409
1354.18,1.325233,641175,30321
1357.52,1.320606,638376,30512
1360.85,1.320636,635805,30387
1364.17,1.324392,633413,30012
1367.49,1.327247,631026,29703
1370.81,1.325457,628050,29685
1374.12,1.332205,625034,29087
1378.54,1.323541,620272,29447
1381.84,1.323075,616892,29318
1385.14,1.325556,613613,28996
1388.43,1.321836,611526,29146
1391.72,1.325897,610663,28834
1395.01,1.322485,610634,29060
1398.29,1.321185,611700,29198
1402.66,1.325103,614051,29047
1405.93,1.323258,616268,29276
1409.2,1.328671,617795,28985
1412.46,1.326739,618872,29165
1415.72,1.323192,619795,29448
1418.98,1.326731,620495,29242
1422.23,1.331834,621087,28928
1426.56,1.328462,621375,29167
1429.8,1.328824,621616,29154
1433.04,1.327339,622129,29278
1436.27,1.328836,621526,29149
1439.5,1.326748,621113,29270
1442.72,1.332259,620921,28892
1445.94,1.327317,620270,29192
1450.23,1.325823,618860,29226
1453.44,1.335017,617697,28560
1456.64,1.328238,616264,28942
1459.85,1.333981,614413,28476
1463.04,1.334064,612307,28373
1466.24,1.333045,610032,28334
1469.43,1.333865,607345,28156
1473.67,1.328455,603789,28342
1476.85,1.333070,601175,27921
1480.02,1.328562,597737,28051
1483.19,1.335816,594479,27436
1486.36,1.329702,591232,27673
1489.52,1.328816,587853,27571
1492.68,1.334313,583875,27040
1496.89,1.328749,578062,27116
1500.03,1.334102,574159,26603
1503.18,1.335328,570285,26349
1506.32,1.331774,565444,26340
1509.45,1.336792,560571,25813
1512.58,1.338207,555821,25511
1515.71,1.332411,550344,25599
1519.87,1.337350,543983,25017
1522.99,1.334990,538764,24912
1526.1,1.336886,533692,24570
1529.21,1.333458,527902,24496
1532.32,1.329670,521886,24429
1535.42,1.329387,515888,24164
1538.51,1.329434,509987,23885
1541.6,1.337881,503936,23147
1545.72,1.330386,494694,23118
1548.8,1.327463,488378,22977
1551.88,1.331409,481832,22464
1554.95,1.332232,474989,22103
1558.02,1.332598,467818,21751
1561.08,1.328872,460730,21606
1564.15,1.332627,454170,21115
1568.22,1.328100,444181,20867
1571.27,1.337600,436947,20083
1574.32,1.324839,429598,20334
1577.36,1.330181,422039,19732
1580.4,1.329838,414375,19389
1583.43,1.327031,406354,19137
1586.46,1.332948,398475,18512
1590.49,1.324098,388982,18443
1593.51,1.329636,380708,17822
1596.53,1.327262,372727,17544
1599.54,1.323942,365060,17315
1602.55,1.322752,357543,17005
1605.55,1.332107,349495,16268
1608.55,1.325909,341154,16108
1612.54,1.314787,330877,16028
1615.53,1.320905,322904,15423
1618.51,1.314347,315116,15280
1621.49,1.326347,307217,14491
1624.47,1.315031,299481,14499
1627.44,1.309606,292112,14320
1630.41,1.321081,284245,13571
1634.36,1.317137,274079,13205
1637.32,1.312966,266916,12984
1640.27,1.302793,259612,12928
1643.22,1.310769,251804,12311
1646.16,1.322392,244348,11631
1649.1,1.309559,236703,11605
1652.04,1.301165,228171,11405
1655.95,1.310215,215408,10545
1658.88,1.290762,204937,10492
1661.8,1.292392,193395,9864
1664.72,1.273613,179728,9572
1667.63,1.250863,163642,9184
1670.54,1.248090,146312,8264
1673.44,1.230791,128451,7550
1677.31,1.196419,105080,6685
1680.21,1.167750,88906,6042
1683.1,1.191125,75033,4832
1685.99,1.166523,63520,4329
1688.87,1.216737,53714,3261
1691.75,1.144789,45653,3271
1694.62,1.165914,39137,2671
1697.49,1.151120,33776,2385
1701.31,1.136419,28175,2058

File: Column 1_078561_20241121_170844.csv
Method:,Column 1,,
Host Date-Time:,21/11/24 @ 17:8:44,,
Header Version:,1,,
System Temp (C):,35.86,,
Detector Temp (C):,34.47,,
Humidity (%):,1.27,,
Lamp PD:,3799,,
Shift Vector Coefficients:,-10.5391,0.0761263,-0.000134223,,
Pixel to Wavelength Coefficients:,1775.68,-0.916766,-0.000235065,,
Serial Number:,5510004,,
Scan Config Name:,Column 1,,
Scan Config Type:,Slew,,
Section 1,,
Start wavelength (nm):,900,,
End wavelength (nm):,1700,,
Pattern Pixel Width (nm):,   7.03,,,,
Exposure (ms):,  0.635,,,,
Digital Resolution:,228,,
Num Repeats:,6,,
PGA Gain:,64,,
Total Measurement Time in sec:,  2.725,,
Wavelength (nm),Absorbance (AU),Reference Signal (unitless),Sample Signal (unitless)
901.51,1.314384,108485,5260
905.376,1.305514,121306,6003
909.237,1.323561,131909,6262
913.095,1.304312,143299,7111
916.948,1.315208,156982,7597
922.079,1.316951,179937,8673
925.923,1.319174,200504,9615
929.762,1.330901,222660,10393
933.597,1.317999,244426,11753
937.427,1.309322,263972,12949
941.254,1.321676,281845,13438
945.076,1.309306,297271,14583
950.165,1.327330,315605,14853
953.978,1.312580,328029,15971
957.786,1.307960,340470,16754
961.59,1.313404,352317,17121
965.389,1.315078,363056,17575
969.185,1.306396,373162,18429
972.976,1.312732,382632,18623
976.763,1.320583,391202,18699
981.806,1.305667,400190,19797
985.583,1.297036,406088,20492
989.355,1.306917,410162,20232
993.124,1.311773,412868,20139
996.888,1.303156,414263,20612
1000.65,1.303878,415476,20638
1004.4,1.304260,415479,20620
1009.41,1.300965,414358,20721
1013.15,1.305473,412923,20436
1016.89,1.300277,411526,20612
1020.63,1.309333,409066,20066
1024.36,1.305599,406777,20126
1028.09,1.310394,404427,19790
1031.82,1.311741,401911,19606
1036.78,1.313717,398410,19347
1040.49,1.309133,396204,19444
1044.2,1.313361,394236,19160
1047.91,1.300656,392042,19619
1051.61,1.297240,389823,19662
1055.31,1.305815,388234,19199
1059,1.295706,387599,19619
1063.92,1.306396,386688,19097
1067.61,1.310407,386598,18917
1071.29,1.310158,387377,18966
1074.96,1.304685,388536,19264
1078.63,1.309075,389855,19135
1082.3,1.310996,391215,19117
1085.96,1.317847,393215,18914
1090.84,1.312389,396270,19302
1094.49,1.308611,398760,19593
1098.14,1.310077,400987,19636
1101.79,1.308847,403477,19814
1105.43,1.314846,406116,19670
1109.06,1.311161,407701,19915
1112.7,1.308942,409859,20123
1117.53,1.310862,412494,20163
1121.15,1.317053,414909,19994
1124.77,1.311539,416559,20330
1128.38,1.319051,418532,20076
1131.99,1.307968,419956,20665
1135.6,1.319884,421946,20201
1139.2,1.316933,423881,20432
1143.99,1.314639,426786,20681
1147.58,1.308384,428617,21071
1151.17,1.311169,431169,21061
1154.75,1.310343,433579,21219
1158.33,1.314193,436264,21162
1161.91,1.307719,439132,21621
1165.48,1.310447,442389,21645
1169.04,1.316450,446101,21527
1173.79,1.312529,451929,22006
1177.34,1.310743,456026,22297
1180.9,1.310766,461306,22554
1184.44,1.310111,467657,22899
1187.99,1.310861,473969,23168
1191.52,1.309932,479856,23506
1195.06,1.318366,487372,23415
1199.76,1.315256,497347,24066
1203.29,1.322578,504311,23995
1206.81,1.321053,511507,24423
1210.33,1.318214,519078,24947
1213.84,1.311067,527163,25756
1217.35,1.317642,534208,25708
1220.85,1.331873,540472,25171
1225.51,1.317963,549929,26445
1229.01,1.317795,556888,26790
1232.5,1.318656,562180,26991
1235.98,1.320383,567975,27161
1239.46,1.313893,574815,27902
1242.94,1.313935,582782,28286
1246.41,1.314888,591476,28645
1251.03,1.315443,604016,29215
1254.5,1.320979,612289,29240
1257.96,1.317314,619125,29817
1261.41,1.324452,624551,29588
1264.86,1.322875,629900,29950
1268.31,1.318881,634345,30440
1271.75,1.323969,638574,30286
1276.33,1.324885,642499,30408
1279.76,1.320928,645905,30849
1283.19,1.323992,648307,30746
1286.61,1.326129,650446,30696
1290.03,1.323100,652132,30991
1293.44,1.320569,653907,31257
1296.85,1.325448,655963,31005
1301.39,1.324045,657349,31171
1304.8,1.320631,657558,31427
1308.19,1.331894,658515,30667
1311.58,1.327170,658804,31016
1314.97,1.325727,659011,31129
1318.36,1.330391,658272,30762
1321.73,1.333300,658022,30545
1326.23,1.328899,657870,30849
1329.6,1.325007,656482,31061
1332.97,1.328277,654926,30755
1336.33,1.327198,653727,30775
1339.69,1.326437,652497,30771
1343.04,1.324262,649913,30803
1346.39,1.323636,647671,30741
1349.73,1.328502,645338,30289
1354.18,1.324189,641175,30394
1357.52,1.318618,638376,30652
1360.85,1.327987,635805,29877
1364.17,1.323063,633413,30104
1367.49,1.321582,631026,30093
1370.81,1.321438,628050,29961
1374.12,1.329347,625034,29279
1378.54,1.321760,620272,29568
1381.84,1.319108,616892,29587
1385.14,1.324181,613613,29088
1388.43,1.319636,611526,29294
1391.72,1.328647,610663,28652
1395.01,1.317907,610634,29368
1398.29,1.322660,611700,29099
1402.66,1.327547,614051,28884
1405.93,1.329353,616268,28868
1409.2,1.321111,617795,29494
1412.46,1.325831,618872,29226
1415.72,1.325321,619795,29304
1418.98,1.328607,620495,29116
1422.23,1.327532,621087,29216
1426.56,1.326872,621375,29274
1429.8,1.330197,621616,29062
1433.04,1.326791,622129,29315
1436.27,1.329283,621526,29119
1439.5,1.329830,621113,29063
1442.72,1.334232,620921,28761
1445.94,1.336655,620270,28571
1450.23,1.328297,618860,29060
1453.44,1.326241,617697,29143
1456.64,1.327264,616264,29007
1459.85,1.332961,614413,28543
1463.04,1.329012,612307,28705
1466.24,1.325779,610032,28812
1469.43,1.331849,607345,28287
1473.67,1.331438,603789,28148
1476.85,1.335613,601175,27758
1480.02,1.329073,597737,28018
1483.19,1.331610,594479,27703
1486.36,1.334975,591232,27339
1489.52,1.331011,587853,27432
1492.68,1.332998,583875,27122
1496.89,1.341045,578062,26359
1500.03,1.338928,574159,26309
1503.18,1.330965,570285,26615
1506.32,1.334320,565444,26186
1509.45,1.339780,560571,25636
1512.58,1.339708,555821,25423
1515.71,1.327905,550344,25866
1519.87,1.335566,543983,25120
1522.99,1.331292,538764,25125
1526.1,1.330064,533692,24959
1529.21,1.329944,527902,24695
1532.32,1.326482,521886,24609
1535.42,1.329405,515888,24163
1538.51,1.334831,509987,23590
1541.6,1.337431,503936,23171
1545.72,1.330199,494694,23128
1548.8,1.325013,488378,23107
1551.88,1.327176,481832,22684
1554.95,1.334439,474989,21991
1558.02,1.329831,467818,21890
1561.08,1.331352,460730,21483
1564.15,1.326298,454170,21425
1568.22,1.332346,444181,20664
1571.27,1.334347,436947,20234
1574.32,1.334755,429598,19875
1577.36,1.327395,422039,19859
1580.4,1.330040,414375,19380
1583.43,1.325287,406354,19214
1586.46,1.318232,398475,19150
1590.49,1.324781,388982,18414
1593.51,1.330367,380708,17792
1596.53,1.321923,372727,17761
1599.54,1.327493,365060,17174
1602.55,1.331184,357543,16678
1605.55,1.322027,349495,16650
1608.55,1.325828,341154,16111
1612.54,1.318734,330877,15883
1615.53,1.320595,322904,15434
1618.51,1.326422,315116,14861
1621.49,1.321430,307217,14656
1624.47,1.326319,299481,14127
1627.44,1.304661,292112,14484
1630.41,1.310772,284245,13897
1634.36,1.320571,274079,13101
1637.32,1.311797,266916,13019
1640.27,1.309292,259612,12736
1643.22,1.304222,251804,12498
1646.16,1.314657,244348,11840
1649.1,1.311133,236703,11563
1652.04,1.297600,228171,11499
1655.95,1.293451,215408,10960
1658.88,1.296344,204937,10358
1661.8,1.273650,193395,10299
1664.72,1.267934,179728,9698
1667.63,1.245178,163642,9305
1670.54,1.247512,146312,8275
1673.44,1.199663,128451,8111
1677.31,1.185069,105080,6862
1680.21,1.191611,88906,5719
1683.1,1.164627,75033,5136
1685.99,1.163026,63520,4364
1688.87,1.113927,53714,4132
1691.75,1.184525,45653,2985
1694.62,1.218756,39137,2365
1697.49,1.210963,33776,2078
1701.31,1.266594,28175,1525