Folder: textile_sorting_NIRSCAN_/ML/samples/unknown (part 135)

File: Column 1_078998_20241121_173219.csv
Method:,Column 1,,
Host Date-Time:,21/11/24 @ 17:32:19,,
Header Version:,1,,
System Temp (C):,37.73,,
Detector Temp (C):,36.96,,
Humidity (%):,0.59,,
Lamp PD:,3795,,
Shift Vector Coefficients:,-10.5391,0.0761263,-0.000134223,,
Pixel to Wavelength Coefficients:,1775.68,-0.916766,-0.000235065,,
Serial Number:,5510004,,
Scan Config Name:,Column 1,,
Scan Config Type:,Slew,,
Section 1,,
Start wavelength (nm):,900,,
End wavelength (nm):,1700,,
Pattern Pixel Width (nm):,   7.03,,,,
Exposure (ms):,  0.635,,,,
Digital Resolution:,228,,
Num Repeats:,6,,
PGA Gain:,64,,
Total Measurement Time in sec:,  2.727,,
Wavelength (nm),Absorbance (AU),Reference Signal (unitless),Sample Signal (unitless)
901.51,1.320788,108485,5183
905.376,1.312074,121306,5913
909.237,1.342775,131909,5991
913.095,1.342529,143299,6512
916.948,1.334554,156982,7266
922.079,1.320622,179937,8600
925.923,1.326875,200504,9446
929.762,1.326991,222660,10487
933.597,1.335261,244426,11295
937.427,1.314993,263972,12781
941.254,1.323197,281845,13391
945.076,1.316240,297271,14352
950.165,1.305407,315605,15622
953.978,1.303565,328029,16306
957.786,1.323933,340470,16149
961.59,1.313455,352317,17119
965.389,1.305764,363056,17956
969.185,1.315492,373162,18047
972.976,1.325895,382632,18067
976.763,1.306416,391202,19319
981.806,1.308263,400190,19679
985.583,1.306246,406088,20062
989.355,1.319350,410162,19661
993.124,1.311450,412868,20154
996.888,1.307433,414263,20410
1000.65,1.301381,415476,20757
1004.4,1.315051,415479,20114
1009.41,1.304522,414358,20552
1013.15,1.311056,412923,20175
1016.89,1.308616,411526,20220
1020.63,1.310894,409066,19994
1024.36,1.304543,406777,20175
1028.09,1.309780,404427,19818
1031.82,1.304688,401911,19927
1036.78,1.310741,398410,19480
1040.49,1.316840,396204,19102
1044.2,1.315406,394236,19070
1047.91,1.310552,392042,19177
1051.61,1.313625,389823,18934
1055.31,1.311599,388234,18945
1059,1.315520,387599,18744
1063.92,1.314174,386688,18758
1067.61,1.310316,386598,18921
1071.29,1.315898,387377,18717
1074.96,1.315713,388536,18781
1078.63,1.324483,389855,18468
1082.3,1.305667,391215,19353
1085.96,1.313460,393215,19106
1090.84,1.314125,396270,19225
1094.49,1.317705,398760,19187
1098.14,1.322871,400987,19066
1101.79,1.323582,403477,19153
1105.43,1.321229,406116,19383
1109.06,1.320887,407701,19474
1112.7,1.323782,409859,19447
1117.53,1.312914,412494,20068
1121.15,1.315968,414909,20044
1124.77,1.318278,416559,20017
1128.38,1.326470,418532,19736
1131.99,1.320354,419956,20084
1135.6,1.324314,421946,19996
1139.2,1.334899,423881,19604
1143.99,1.315206,426786,20654
1147.58,1.318181,428617,20601
1151.17,1.323254,431169,20483
1154.75,1.324130,433579,20556
1158.33,1.318918,436264,20933
1161.91,1.318580,439132,21087
1165.48,1.315715,442389,21384
1169.04,1.315764,446101,21561
1173.79,1.318731,451929,21694
1177.34,1.314303,456026,22115
1180.9,1.318557,461306,22153
1184.44,1.323027,467657,22228
1187.99,1.321449,473969,22610
1191.52,1.324320,479856,22740
1195.06,1.318385,487372,23414
1199.76,1.319627,497347,23825
1203.29,1.321475,504311,24056
1206.81,1.318376,511507,24574
1210.33,1.320728,519078,24803
1213.84,1.325414,527163,24919
1217.35,1.326120,534208,25211
1220.85,1.327495,540472,25426
1225.51,1.316455,549929,26537
1229.01,1.325564,556888,26315
1232.5,1.322552,562180,26750
1235.98,1.328257,567975,26673
1239.46,1.324321,574815,27240
1242.94,1.321040,582782,27827
1246.41,1.322243,591476,28164
1251.03,1.319820,604016,28922
1254.5,1.330378,612289,28614
1257.96,1.322266,619125,29479
1261.41,1.325128,624551,29542
1264.86,1.326164,629900,29724
1268.31,1.328036,634345,29805
1271.75,1.333656,638574,29618
1276.33,1.326745,642499,30278
1279.76,1.327795,645905,30365
1283.19,1.323752,648307,30763
1286.61,1.323323,650446,30895
1290.03,1.324743,652132,30874
1293.44,1.331330,653907,30492
1296.85,1.329600,655963,30710
1301.39,1.327781,657349,30904
1304.8,1.331986,657558,30616
1308.19,1.333213,658515,30574
1311.58,1.332028,658804,30671
1314.97,1.329215,659011,30880
1318.36,1.329460,658272,30828
1321.73,1.328479,658022,30886
1326.23,1.330931,657870,30705
1329.6,1.334978,656482,30356
1332.97,1.337828,654926,30086
1336.33,1.332666,653727,30390
1339.69,1.328502,652497,30625
1343.04,1.330210,649913,30384
1346.39,1.326443,647671,30543
1349.73,1.323697,645338,30626
1354.18,1.329074,641175,30054
1357.52,1.334402,638376,29558
1360.85,1.326275,635805,29995
1364.17,1.323294,633413,30088
1367.49,1.325438,631026,29827
1370.81,1.325852,628050,29658
1374.12,1.329897,625034,29242
1378.54,1.325359,620272,29324
1381.84,1.324113,616892,29248
1385.14,1.329755,613613,28717
1388.43,1.324946,611526,28938
1391.72,1.329011,610663,28628
1395.01,1.326072,610634,28821
1398.29,1.325220,611700,28928
1402.66,1.330141,614051,28712
1405.93,1.331963,616268,28695
1409.2,1.329646,617795,28920
1412.46,1.329218,618872,28999
1415.72,1.326211,619795,29244
1418.98,1.328860,620495,29099
1422.23,1.331624,621087,28942
1426.56,1.335941,621375,28669
1429.8,1.335005,621616,28742
1433.04,1.328156,622129,29223
1436.27,1.335078,621526,28733
1439.5,1.331672,621113,28940
1442.72,1.331703,620921,28929
1445.94,1.334291,620270,28727
1450.23,1.334377,618860,28656
1453.44,1.342843,617697,28050
1456.64,1.334085,616264,28555
1459.85,1.335999,614413,28344
1463.04,1.336043,612307,28244
1466.24,1.332463,610032,28372
1469.43,1.332509,607345,28244
1473.67,1.332318,603789,28091
1476.85,1.337463,601175,27640
1480.02,1.336893,597737,27518
1483.19,1.336481,594479,27394
1486.36,1.336089,591232,27269
1489.52,1.334094,587853,27238
1492.68,1.335906,583875,26941
1496.89,1.337616,578062,26568
1500.03,1.331952,574159,26735
1503.18,1.337194,570285,26236
1506.32,1.336065,565444,26081
1509.45,1.333407,560571,26015
1512.58,1.339879,555821,25413
1515.71,1.337085,550344,25325
1519.87,1.336466,543983,25068
1522.99,1.339846,538764,24635
1526.1,1.332034,533692,24846
1529.21,1.331583,527902,24602
1532.32,1.330791,521886,24366
1535.42,1.334394,515888,23887
1538.51,1.339998,509987,23311
1541.6,1.342142,503936,22921
1545.72,1.340998,494694,22560
1548.8,1.337327,488378,22461
1551.88,1.335800,481832,22238
1554.95,1.332999,474989,22064
1558.02,1.337416,467818,21511
1561.08,1.333581,460730,21373
1564.15,1.330084,454170,21239
1568.22,1.326107,444181,20963
1571.27,1.343347,436947,19819
1574.32,1.333468,429598,19934
1577.36,1.332034,422039,19648
1580.4,1.336770,414375,19082
1583.43,1.333018,406354,18875
1586.46,1.338140,398475,18292
1590.49,1.333717,388982,18039
1593.51,1.339021,380708,17441
1596.53,1.326644,372727,17569
1599.54,1.327822,365060,17161
1602.55,1.327167,357543,16833
1605.55,1.321688,349495,16663
1608.55,1.334843,341154,15780
1612.54,1.323684,330877,15703
1615.53,1.330672,322904,15080
1618.51,1.322959,315116,14980
1621.49,1.327157,307217,14464
1624.47,1.333949,299481,13881
1627.44,1.328322,292112,13716
1630.41,1.315738,284245,13739
1634.36,1.319578,274079,13131
1637.32,1.330508,266916,12470
1640.27,1.322587,259612,12352
1643.22,1.337767,251804,11569
1646.16,1.310496,244348,11954
1649.1,1.313279,236703,11506
1652.04,1.307533,228171,11239
1655.95,1.301046,215408,10770
1658.88,1.304342,204937,10169
1661.8,1.294024,193395,9827
1664.72,1.281165,179728,9407
1667.63,1.255140,163642,9094
1670.54,1.213117,146312,8957
1673.44,1.243752,128451,7328
1677.31,1.183427,105080,6888
1680.21,1.179480,88906,5881
1683.1,1.145197,75033,5371
1685.99,1.153965,63520,4456
1688.87,1.146549,53714,3833
1691.75,1.118890,45653,3472
1694.62,1.140494,39137,2832
1697.49,1.094998,33776,2714
1701.31,1.127438,28175,2101

File: Column 1_078999_20241121_173222.csv
Method:,Column 1,,
Host Date-Time:,21/11/24 @ 17:32:22,,
Header Version:,1,,
System Temp (C):,37.72,,
Detector Temp (C):,36.99,,
Humidity (%):,0.59,,
Lamp PD:,3795,,
Shift Vector Coefficients:,-10.5391,0.0761263,-0.000134223,,
Pixel to Wavelength Coefficients:,1775.68,-0.916766,-0.000235065,,
Serial Number:,5510004,,
Scan Config Name:,Column 1,,
Scan Config Type:,Slew,,
Section 1,,
Start wavelength (nm):,900,,
End wavelength (nm):,1700,,
Pattern Pixel Width (nm):,   7.03,,,,
Exposure (ms):,  0.635,,,,
Digital Resolution:,228,,
Num Repeats:,6,,
PGA Gain:,64,,
Total Measurement Time in sec:,  2.725,,
Wavelength (nm),Absorbance (AU),Reference Signal (unitless),Sample Signal (unitless)
901.51,1.290061,108485,5563
905.376,1.301983,121306,6052
909.237,1.328514,131909,6191
913.095,1.332117,143299,6670
916.948,1.314180,156982,7615
922.079,1.322444,179937,8564
925.923,1.321347,200504,9567
929.762,1.333416,222660,10333
933.597,1.312236,244426,11910
937.427,1.316661,263972,12732
941.254,1.315961,281845,13616
945.076,1.306604,297271,14674
950.165,1.312075,315605,15384
953.978,1.294759,328029,16640
957.786,1.310612,340470,16652
961.59,1.312290,352317,17165
965.389,1.298616,363056,18254
969.185,1.313548,373162,18128
972.976,1.303913,382632,19005
976.763,1.300966,391202,19563
981.806,1.303239,400190,19908
985.583,1.302667,406088,20228
989.355,1.311578,410162,20016
993.124,1.300723,412868,20658
996.888,1.304507,414263,20548
1000.65,1.304089,415476,20628
1004.4,1.300256,415479,20811
1009.41,1.301657,414358,20688
1013.15,1.300865,412923,20654
1016.89,1.311655,411526,20079
1020.63,1.304148,409066,20307
1024.36,1.309218,406777,19959
1028.09,1.296189,404427,20448
1031.82,1.303317,401911,19990
1036.78,1.303643,398410,19801
1040.49,1.299896,396204,19862
1044.2,1.303567,394236,19597
1047.91,1.296865,392042,19791
1051.61,1.300922,389823,19496
1055.31,1.304460,388234,19259
1059,1.305262,387599,19192
1063.92,1.300972,386688,19337
1067.61,1.308689,386598,18992
1071.29,1.293690,387377,19699
1074.96,1.300355,388536,19457
1078.63,1.299024,389855,19583
1082.3,1.303764,391215,19438
1085.96,1.312053,393215,19168
1090.84,1.318187,396270,19046
1094.49,1.311792,398760,19450
1098.14,1.310409,400987,19621
1101.79,1.308365,403477,19836
1105.43,1.313611,406116,19726
1109.06,1.309725,407701,19981
1112.7,1.310888,409859,20033
1117.53,1.315867,412494,19932
1121.15,1.305945,414909,20512
1124.77,1.315186,416559,20160
1128.38,1.307314,418532,20626
1131.99,1.314426,419956,20360
1135.6,1.317034,421946,20334
1139.2,1.314961,423881,20525
1143.99,1.303833,426786,21202
1147.58,1.320761,428617,20479
1151.17,1.315604,431169,20847
1154.75,1.314560,433579,21014
1158.33,1.317923,436264,20981
1161.91,1.316095,439132,21208
1165.48,1.317669,442389,21288
1169.04,1.310598,446101,21819
1173.79,1.309559,451929,22157
1177.34,1.303232,456026,22686
1180.9,1.317519,461306,22206
1184.44,1.312603,467657,22768
1187.99,1.310749,473969,23174
1191.52,1.317612,479856,23094
1195.06,1.313167,487372,23697
1199.76,1.318734,497347,23874
1203.29,1.314651,504311,24437
1206.81,1.310686,511507,25013
1210.33,1.316564,519078,25042
1213.84,1.321528,527163,25143
1217.35,1.321238,534208,25496
1220.85,1.321591,540472,25774
1225.51,1.314284,549929,26670
1229.01,1.324197,556888,26398
1232.5,1.319865,562180,26916
1235.98,1.315502,567975,27468
1239.46,1.321999,574815,27386
1242.94,1.312800,582782,28360
1246.41,1.318695,591476,28395
1251.03,1.323318,604016,28690
1254.5,1.321737,612289,29189
1257.96,1.327781,619125,29107
1261.41,1.320740,624551,29842
1264.86,1.319322,629900,30196
1268.31,1.323168,634345,30141
1271.75,1.320271,638574,30545
1276.33,1.326645,642499,30285
1279.76,1.325470,645905,30528
1283.19,1.325237,648307,30658
1286.61,1.325197,650446,30762
1290.03,1.324700,652132,30877
1293.44,1.328986,653907,30657
1296.85,1.326794,655963,30909
1301.39,1.327585,657349,30918
1304.8,1.322890,657558,31264
1308.19,1.325359,658515,31132
1311.58,1.322006,658804,31387
1314.97,1.326831,659011,31050
1318.36,1.325059,658272,31142
1321.73,1.332718,658022,30586
1326.23,1.328716,657870,30862
1329.6,1.330183,656482,30693
1332.97,1.322678,654926,31154
1336.33,1.330556,653727,30538
1339.69,1.327879,652497,30669
1343.04,1.325335,649913,30727
1346.39,1.328938,647671,30368
1349.73,1.325673,645338,30487
1354.18,1.324117,641175,30399
1357.52,1.328144,638376,29987
1360.85,1.320579,635805,30391
1364.17,1.323005,633413,30108
1367.49,1.321986,631026,30065
1370.81,1.324609,628050,29743
1374.12,1.330818,625034,29180
1378.54,1.322098,620272,29545
1381.84,1.318331,616892,29640
1385.14,1.320109,613613,29362
1388.43,1.322164,611526,29124
1391.72,1.319527,610663,29260
1395.01,1.322485,610634,29060
1398.29,1.319508,611700,29311
1402.66,1.333177,614051,28512
1405.93,1.323971,616268,29228
1409.2,1.329586,617795,28924
1412.46,1.324348,618872,29326
1415.72,1.323428,619795,29432
1418.98,1.327757,620495,29173
1422.23,1.325293,621087,29367
1426.56,1.325731,621375,29351
1429.8,1.330197,621616,29062
1433.04,1.327280,622129,29282
1436.27,1.326784,621526,29287
1439.5,1.326422,621113,29292
1442.72,1.333433,620921,28814
1445.94,1.335881,620270,28622
1450.23,1.320536,618860,29584
1453.44,1.335946,617697,28499
1456.64,1.333796,616264,28574
1459.85,1.326722,614413,28956
1463.04,1.324826,612307,28983
1466.24,1.330127,610032,28525
1469.43,1.335580,607345,28045
1473.67,1.331361,603789,28153
1476.85,1.331719,601175,28008
1480.02,1.330222,597737,27944
1483.19,1.332708,594479,27633
1486.36,1.332299,591232,27508
1489.52,1.328234,587853,27608
1492.68,1.333238,583875,27107
1496.89,1.333807,578062,26802
1500.03,1.330428,574159,26829
1503.18,1.332387,570285,26528
1506.32,1.332863,565444,26274
1509.45,1.328411,560571,26316
1512.58,1.328228,555821,26104
1515.71,1.331920,550344,25628
1519.87,1.332122,543983,25320
1522.99,1.325438,538764,25466
1526.1,1.327133,533692,25128
1529.21,1.330595,527902,24658
1532.32,1.340324,521886,23837
1535.42,1.334448,515888,23884
1538.51,1.334187,509987,23625
1541.6,1.329611,503936,23592
1545.72,1.330574,494694,23108
1548.8,1.328485,488378,22923
1551.88,1.328192,481832,22631
1554.95,1.328379,474989,22300
1558.02,1.325586,467818,22105
1561.08,1.329878,460730,21556
1564.15,1.333389,454170,21078
1568.22,1.322928,444181,21117
1571.27,1.329120,436947,20479
1574.32,1.331143,429598,20041
1577.36,1.329566,422039,19760
1580.4,1.331072,414375,19334
1583.43,1.326237,406354,19172
1586.46,1.324836,398475,18861
1590.49,1.328905,388982,18240
1593.51,1.321811,380708,18146
1596.53,1.321655,372727,17772
1599.54,1.321940,365060,17395
1602.55,1.317623,357543,17207
1605.55,1.313043,349495,16998
1608.55,1.322097,341154,16250
1612.54,1.316253,330877,15974
1615.53,1.310609,322904,15793
1618.51,1.313580,315116,15307
1621.49,1.319626,307217,14717
1624.47,1.309584,299481,14682
1627.44,1.311643,292112,14253
1630.41,1.314948,284245,13764
1634.36,1.316611,274079,13221
1637.32,1.304060,266916,13253
1640.27,1.306301,259612,12824
1643.22,1.317417,251804,12124
1646.16,1.310241,244348,11961
1649.1,1.310795,236703,11572
1652.04,1.304644,228171,11314
1655.95,1.302258,215408,10740
1658.88,1.268612,204937,11041
1661.8,1.272597,193395,10324
1664.72,1.255268,179728,9985
1667.63,1.246487,163642,9277
1670.54,1.211086,146312,8999
1673.44,1.196834,128451,8164
1677.31,1.170935,105080,7089
1680.21,1.158998,88906,6165
1683.1,1.100006,75033,5960
1685.99,1.143089,63520,4569
1688.87,1.079683,53714,4471
1691.75,1.093504,45653,3681
1694.62,1.151521,39137,2761
1697.49,1.173540,33776,2265
1701.31,1.133894,28175,2070