Folder: textile_sorting_NIRSCAN_/ML/samples/unknown (part 69)

File: Column 1_078472_20241121_170421.csv
Method:,Column 1,,
Host Date-Time:,21/11/24 @ 17:4:21,,
Header Version:,1,,
System Temp (C):,34.54,,
Detector Temp (C):,33.75,,
Humidity (%):,1.76,,
Lamp PD:,3801,,
Shift Vector Coefficients:,-10.5391,0.0761263,-0.000134223,,
Pixel to Wavelength Coefficients:,1775.68,-0.916766,-0.000235065,,
Serial Number:,5510004,,
Scan Config Name:,Column 1,,
Scan Config Type:,Slew,,
Section 1,,
Start wavelength (nm):,900,,
End wavelength (nm):,1700,,
Pattern Pixel Width (nm):,   7.03,,,,
Exposure (ms):,  0.635,,,,
Digital Resolution:,228,,
Num Repeats:,6,,
PGA Gain:,64,,
Total Measurement Time in sec:,  2.689,,
Wavelength (nm),Absorbance (AU),Reference Signal (unitless),Sample Signal (unitless)
901.51,1.323647,108485,5149
905.376,1.329763,121306,5677
909.237,1.303901,131909,6552
913.095,1.324309,143299,6791
916.948,1.332111,156982,7307
922.079,1.333174,179937,8355
925.923,1.321438,200504,9565
929.762,1.326908,222660,10489
933.597,1.324476,244426,11579
937.427,1.322257,263972,12569
941.254,1.314878,281845,13650
945.076,1.315635,297271,14372
950.165,1.315248,315605,15272
953.978,1.320926,328029,15667
957.786,1.317685,340470,16383
961.59,1.313861,352317,17103
965.389,1.311706,363056,17712
969.185,1.306891,373162,18408
972.976,1.304302,382632,18988
976.763,1.298928,391202,19655
981.806,1.308484,400190,19669
985.583,1.311604,406088,19816
989.355,1.304391,410162,20350
993.124,1.298605,412868,20759
996.888,1.308285,414263,20370
1000.65,1.307853,415476,20450
1004.4,1.307686,415479,20458
1009.41,1.312476,414358,20179
1013.15,1.310389,412923,20206
1016.89,1.305684,411526,20357
1020.63,1.301249,409066,20443
1024.36,1.307892,406777,20020
1028.09,1.304791,404427,20047
1031.82,1.307948,401911,19778
1036.78,1.305578,398410,19713
1040.49,1.311305,396204,19347
1044.2,1.312953,394236,19178
1047.91,1.318598,392042,18825
1051.61,1.309357,389823,19121
1055.31,1.307401,388234,19129
1059,1.313948,387599,18812
1063.92,1.314637,386688,18738
1067.61,1.316371,386598,18659
1071.29,1.319579,387377,18559
1074.96,1.312671,388536,18913
1078.63,1.306157,389855,19264
1082.3,1.312019,391215,19072
1085.96,1.313301,393215,19113
1090.84,1.320932,396270,18926
1094.49,1.309143,398760,19569
1098.14,1.317618,400987,19298
1101.79,1.313784,403477,19590
1105.43,1.319217,406116,19473
1109.06,1.313063,407701,19828
1112.7,1.315334,409859,19829
1117.53,1.310023,412494,20202
1121.15,1.319427,414909,19885
1124.77,1.313187,416559,20253
1128.38,1.314832,418532,20272
1131.99,1.323544,419956,19937
1135.6,1.319562,421946,20216
1139.2,1.324307,423881,20088
1143.99,1.304777,426786,21156
1147.58,1.316435,428617,20684
1151.17,1.320633,431169,20607
1154.75,1.313115,433579,21084
1158.33,1.319977,436264,20882
1161.91,1.313869,439132,21317
1165.48,1.321687,442389,21092
1169.04,1.314296,446101,21634
1173.79,1.319171,451929,21672
1177.34,1.315050,456026,22077
1180.9,1.314401,461306,22366
1184.44,1.314246,467657,22682
1187.99,1.315403,473969,22927
1191.52,1.323043,479856,22807
1195.06,1.324644,487372,23079
1199.76,1.324779,497347,23544
1203.29,1.314811,504311,24428
1206.81,1.332019,511507,23814
1210.33,1.324509,519078,24588
1213.84,1.324127,527163,24993
1217.35,1.323150,534208,25384
1220.85,1.331648,540472,25184
1225.51,1.324516,549929,26049
1229.01,1.319484,556888,26686
1232.5,1.317435,562180,27067
1235.98,1.322306,567975,27041
1239.46,1.321160,574815,27439
1242.94,1.323073,582782,27697
1246.41,1.320765,591476,28260
1251.03,1.323848,604016,28655
1254.5,1.325458,612289,28940
1257.96,1.327408,619125,29132
1261.41,1.322315,624551,29734
1264.86,1.325537,629900,29767
1268.31,1.326538,634345,29908
1271.75,1.323511,638574,30318
1276.33,1.333248,642499,29828
1279.76,1.330824,645905,30154
1283.19,1.329407,648307,30365
1286.61,1.326611,650446,30662
1290.03,1.327905,652132,30650
1293.44,1.326022,653907,30867
1296.85,1.331059,655963,30607
1301.39,1.330361,657349,30721
1304.8,1.330513,657558,30720
1308.19,1.333711,658515,30539
1311.58,1.329163,658804,30874
1314.97,1.331712,659011,30703
1318.36,1.333295,658272,30557
1321.73,1.330621,658022,30734
1326.23,1.333356,657870,30534
1329.6,1.332895,656482,30502
1332.97,1.331082,654926,30557
1336.33,1.332937,653727,30371
1339.69,1.331976,652497,30381
1343.04,1.328441,649913,30508
1346.39,1.330715,647671,30244
1349.73,1.333927,645338,29913
1354.18,1.326869,641175,30207
1357.52,1.334475,638376,29553
1360.85,1.324224,635805,30137
1364.17,1.320459,633413,30285
1367.49,1.329857,631026,29525
1370.81,1.323676,628050,29807
1374.12,1.328947,625034,29306
1378.54,1.332015,620272,28878
1381.84,1.329071,616892,28916
1385.14,1.332593,613613,28530
1388.43,1.323777,611526,29016
1391.72,1.325265,610663,28876
1395.01,1.325124,610634,28884
1398.29,1.328551,611700,28707
1402.66,1.330247,614051,28705
1405.93,1.330498,616268,28792
1409.2,1.326787,617795,29111
1412.46,1.326903,618872,29154
1415.72,1.336962,619795,28529
1418.98,1.333859,620495,28766
1422.23,1.335346,621087,28695
1426.56,1.336335,621375,28643
1429.8,1.330481,621616,29043
1433.04,1.334850,622129,28776
1436.27,1.333720,621526,28823
1439.5,1.337686,621113,28542
1442.72,1.331943,620921,28913
1445.94,1.332540,620270,28843
1450.23,1.335986,618860,28550
1453.44,1.334394,617697,28601
1456.64,1.337275,616264,28346
1459.85,1.335066,614413,28405
1463.04,1.337877,612307,28125
1466.24,1.336399,610032,28116
1469.43,1.334065,607345,28143
1473.67,1.326299,603789,28483
1476.85,1.334550,601175,27826
1480.02,1.337004,597737,27511
1483.19,1.338451,594479,27270
1486.36,1.339832,591232,27035
1489.52,1.335291,587853,27163
1492.68,1.337634,583875,26834
1496.89,1.341606,578062,26325
1500.03,1.338647,574159,26326
1503.18,1.338720,570285,26144
1506.32,1.337867,565444,25973
1509.45,1.336405,560571,25836
1512.58,1.335695,555821,25659
1515.71,1.338941,550344,25217
1519.87,1.339648,543983,24885
1522.99,1.341241,538764,24556
1526.1,1.342579,533692,24250
1529.21,1.344665,527902,23872
1532.32,1.336966,521886,24022
1535.42,1.335486,515888,23827
1538.51,1.335845,509987,23535
1541.6,1.339987,503936,23035
1545.72,1.334672,494694,22891
1548.8,1.342403,488378,22200
1551.88,1.332357,481832,22415
1554.95,1.331565,474989,22137
1558.02,1.338690,467818,21448
1561.08,1.327067,460730,21696
1564.15,1.331641,454170,21163
1568.22,1.333777,444181,20596
1571.27,1.325151,436947,20667
1574.32,1.331381,429598,20030
1577.36,1.336612,422039,19442
1580.4,1.331229,414375,19327
1583.43,1.334885,406354,18794
1586.46,1.325274,398475,18842
1590.49,1.334392,388982,18011
1593.51,1.333528,380708,17663
1596.53,1.322315,372727,17745
1599.54,1.323015,365060,17352
1602.55,1.323212,357543,16987
1605.55,1.331680,349495,16284
1608.55,1.325882,341154,16109
1612.54,1.319966,330877,15838
1615.53,1.318434,322904,15511
1618.51,1.310893,315116,15402
1621.49,1.320838,307217,14676
1624.47,1.314971,299481,14501
1627.44,1.322285,292112,13908
1630.41,1.305893,284245,14054
1634.36,1.325338,274079,12958
1637.32,1.295269,266916,13524
1640.27,1.298116,259612,13068
1643.22,1.306871,251804,12422
1646.16,1.321273,244348,11661
1649.1,1.312902,236703,11516
1652.04,1.290037,228171,11701
1655.95,1.302622,215408,10731
1658.88,1.319465,204937,9821
1661.8,1.286402,193395,10001
1664.72,1.275386,179728,9533
1667.63,1.258688,163642,9020
1670.54,1.244479,146312,8333
1673.44,1.210891,128451,7904
1677.31,1.211019,105080,6464
1680.21,1.159985,88906,6151
1683.1,1.177587,75033,4985
1685.99,1.148734,63520,4510
1688.87,1.177541,53714,3569
1691.75,1.155134,45653,3194
1694.62,1.190326,39137,2525
1697.49,1.130321,33776,2502
1701.31,1.182458,28175,1851

File: Column 1_078475_20241121_170429.csv
Method:,Column 1,,
Host Date-Time:,21/11/24 @ 17:4:29,,
Header Version:,1,,
System Temp (C):,34.52,,
Detector Temp (C):,33.79,,
Humidity (%):,1.81,,
Lamp PD:,3801,,
Shift Vector Coefficients:,-10.5391,0.0761263,-0.000134223,,
Pixel to Wavelength Coefficients:,1775.68,-0.916766,-0.000235065,,
Serial Number:,5510004,,
Scan Config Name:,Column 1,,
Scan Config Type:,Slew,,
Section 1,,
Start wavelength (nm):,900,,
End wavelength (nm):,1700,,
Pattern Pixel Width (nm):,   7.03,,,,
Exposure (ms):,  0.635,,,,
Digital Resolution:,228,,
Num Repeats:,6,,
PGA Gain:,64,,
Total Measurement Time in sec:,  2.728,,
Wavelength (nm),Absorbance (AU),Reference Signal (unitless),Sample Signal (unitless)
901.51,1.308072,108485,5337
905.376,1.320005,121306,5806
909.237,1.326624,131909,6218
913.095,1.300724,143299,7170
916.948,1.302754,156982,7818
922.079,1.323917,179937,8535
925.923,1.311163,200504,9794
929.762,1.312573,222660,10841
933.597,1.328849,244426,11463
937.427,1.310564,263972,12912
941.254,1.316216,281845,13608
945.076,1.318911,297271,14264
950.165,1.318617,315605,15154
953.978,1.318136,328029,15768
957.786,1.315649,340470,16460
961.59,1.307960,352317,17337
965.389,1.311338,363056,17727
969.185,1.314291,373162,18097
972.976,1.315398,382632,18509
976.763,1.306192,391202,19329
981.806,1.303806,400190,19882
985.583,1.315877,406088,19622
989.355,1.310949,410162,20045
993.124,1.316391,412868,19926
996.888,1.315899,414263,20016
1000.65,1.310900,415476,20307
1004.4,1.303987,415479,20633
1009.41,1.309132,414358,20335
1013.15,1.299689,412923,20710
1016.89,1.307758,411526,20260
1020.63,1.316028,409066,19759
1024.36,1.313152,406777,19779
1028.09,1.305289,404427,20024
1031.82,1.308079,401911,19772
1036.78,1.313784,398410,19344
1040.49,1.302176,396204,19758
1044.2,1.310289,394236,19296
1047.91,1.303588,392042,19487
1051.61,1.309971,389823,19094
1055.31,1.310249,388234,19004
1059,1.309058,387599,19025
1063.92,1.305600,386688,19132
1067.61,1.304909,386598,19158
1071.29,1.301632,387377,19342
1074.96,1.310632,388536,19002
1078.63,1.305638,389855,19287
1082.3,1.314967,391215,18943
1085.96,1.319111,393215,18859
1090.84,1.313831,396270,19238
1094.49,1.309654,398760,19546
1098.14,1.307849,400987,19737
1101.79,1.309417,403477,19788
1105.43,1.317259,406116,19561
1109.06,1.319795,407701,19523
1112.7,1.314721,409859,19857
1117.53,1.317242,412494,19869
1121.15,1.314584,414909,20108
1124.77,1.315703,416559,20136
1128.38,1.309551,418532,20520
1131.99,1.317251,419956,20228
1135.6,1.317825,421946,20297
1139.2,1.327737,423881,19930
1143.99,1.313758,426786,20723
1147.58,1.312380,428617,20878
1151.17,1.317420,431169,20760
1154.75,1.315532,433579,20967
1158.33,1.322167,436264,20777
1161.91,1.317983,439132,21116
1165.48,1.318527,442389,21246
1169.04,1.319141,446101,21394
1173.79,1.313616,451929,21951
1177.34,1.316192,456026,22019
1180.9,1.315412,461306,22314
1184.44,1.320961,467657,22334
1187.99,1.323008,473969,22529
1191.52,1.314296,479856,23271
1195.06,1.320691,487372,23290
1199.76,1.310054,497347,24356
1203.29,1.319242,504311,24180
1206.81,1.324301,511507,24241
1210.33,1.323803,519078,24628
1213.84,1.321062,527163,25170
1217.35,1.324332,534208,25315
1220.85,1.323991,540472,25632
1225.51,1.319625,549929,26344
1229.01,1.321687,556888,26551
1232.5,1.322958,562180,26725
1235.98,1.320383,567975,27161
1239.46,1.323923,574815,27265
1242.94,1.324047,582782,27635
1246.41,1.322613,591476,28140
1251.03,1.328296,604016,28363
1254.5,1.327911,612289,28777
1257.96,1.323269,619125,29411
1261.41,1.324731,624551,29569
1264.86,1.327672,629900,29621
1268.31,1.328503,634345,29773
1271.75,1.327193,638574,30062
1276.33,1.330809,642499,29996
1279.76,1.331198,645905,30128
1283.19,1.325379,648307,30648
1286.61,1.325705,650446,30726
1290.03,1.329154,652132,30562
1293.44,1.327699,653907,30748
1296.85,1.326794,655963,30909
1301.39,1.329147,657349,30807
1304.8,1.332028,657558,30613
1308.19,1.330622,658515,30757
1311.58,1.327212,658804,31013
1314.97,1.333285,659011,30592
1318.36,1.329559,658272,30821
1321.73,1.329267,658022,30830
1326.23,1.332404,657870,30601
1329.6,1.332923,656482,30500
1332.97,1.332477,654926,30459
1336.33,1.332366,653727,30411
1339.69,1.329169,652497,30578
1343.04,1.328655,649913,30493
1346.39,1.326798,647671,30518
1349.73,1.328732,645338,30273
1354.18,1.326582,641175,30227
1357.52,1.331721,638376,29741
1360.85,1.326652,635805,29969
1364.17,1.331791,633413,29505
1367.49,1.332632,631026,29337
1370.81,1.327099,628050,29573
1374.12,1.331802,625034,29114
1378.54,1.326248,620272,29264
1381.84,1.328966,616892,28923
1385.14,1.325062,613613,29029
1388.43,1.323329,611526,29046
1391.72,1.328783,610663,28643
1395.01,1.327476,610634,28728
1398.29,1.326197,611700,28863
1402.66,1.324297,614051,29101
1405.93,1.327566,616268,28987
1409.2,1.328551,617795,28993
1412.46,1.331681,618872,28835
1415.72,1.329476,619795,29025
1418.98,1.333663,620495,28779
1422.23,1.330410,621087,29023
1426.56,1.331660,621375,28953
1429.8,1.329271,621616,29124
1433.04,1.335499,622129,28733
1436.27,1.332411,621526,28910
1439.5,1.335819,621113,28665
1442.72,1.332093,620921,28903
1445.94,1.332375,620270,28854
1450.23,1.328476,618860,29048
1453.44,1.330284,617697,28873
1456.64,1.332870,616264,28635
1459.85,1.329732,614413,28756
1463.04,1.333712,612307,28396
1466.24,1.338086,610032,28007
1469.43,1.331726,607345,28295
1473.67,1.331824,603789,28123
1476.85,1.326601,601175,28340
1480.02,1.332794,597737,27779
1483.19,1.335278,594479,27470
1486.36,1.331873,591232,27535
1489.52,1.335067,587853,27177
1492.68,1.336519,583875,26903
1496.89,1.339992,578062,26423
1500.03,1.336131,574159,26479
1503.18,1.341119,570285,26000
1506.32,1.331000,565444,26387
1509.45,1.334661,560571,25940
1512.58,1.342330,555821,25270
1515.71,1.335032,550344,25445
1519.87,1.335773,543983,25108
1522.99,1.336614,538764,24819
1526.1,1.341202,533692,24327
1529.21,1.338057,527902,24238
1532.32,1.335901,521886,24081
1535.42,1.333649,515888,23928
1538.51,1.332353,509987,23725
1541.6,1.340534,503936,23006
1545.72,1.333119,494694,22973
1548.8,1.332596,488378,22707
1551.88,1.333851,481832,22338
1554.95,1.331094,474989,22161
1558.02,1.339481,467818,21409
1561.08,1.338526,460730,21131
1564.15,1.339887,454170,20765
1568.22,1.340128,444181,20297
1571.27,1.329035,436947,20483
1574.32,1.327281,429598,20220
1577.36,1.316468,422039,20365
1580.4,1.330757,414375,19348
1583.43,1.321215,406354,19395
1586.46,1.333605,398475,18484
1590.49,1.327383,388982,18304
1593.51,1.324235,380708,18045
1596.53,1.320556,372727,17817
1599.54,1.321790,365060,17401
1602.55,1.322318,357543,17022
1605.55,1.330003,349495,16347
1608.55,1.326313,341154,16093
1612.54,1.331610,330877,15419
1615.53,1.321158,322904,15414
1618.51,1.324643,315116,14922
1621.49,1.313240,307217,14935
1624.47,1.316321,299481,14456
1627.44,1.314210,292112,14169
1630.41,1.323552,284245,13494
1634.36,1.321268,274079,13080
1637.32,1.315549,266916,12907
1640.27,1.321289,259612,12389
1643.22,1.324786,251804,11920
1646.16,1.321646,244348,11651
1649.1,1.316310,236703,11426
1652.04,1.298394,228171,11478
1655.95,1.315811,215408,10410
1658.88,1.295423,204937,10380
1661.8,1.305897,193395,9562
1664.72,1.285386,179728,9316
1667.63,1.250579,163642,9190
1670.54,1.251625,146312,8197
1673.44,1.246904,128451,7275
1677.31,1.198633,105080,6651
1680.21,1.173321,88906,5965
1683.1,1.163867,75033,5145
1685.99,1.191825,63520,4084
1688.87,1.168748,53714,3642
1691.75,1.160057,45653,3158
1694.62,1.202006,39137,2458
1697.49,1.321513,33776,1611
1701.31,1.286703,28175,1456

File: Column 1_078484_20241121_170456.csv
Method:,Column 1,,
Host Date-Time:,21/11/24 @ 17:4:56,,
Header Version:,1,,
System Temp (C):,34.76,,
Detector Temp (C):,33.77,,
Humidity (%):,2.05,,
Lamp PD:,3801,,
Shift Vector Coefficients:,-10.5391,0.0761263,-0.000134223,,
Pixel to Wavelength Coefficients:,1775.68,-0.916766,-0.000235065,,
Serial Number:,5510004,,
Scan Config Name:,Column 1,,
Scan Config Type:,Slew,,
Section 1,,
Start wavelength (nm):,900,,
End wavelength (nm):,1700,,
Pattern Pixel Width (nm):,   7.03,,,,
Exposure (ms):,  0.635,,,,
Digital Resolution:,228,,
Num Repeats:,6,,
PGA Gain:,64,,
Total Measurement Time in sec:,  2.726,,
Wavelength (nm),Absorbance (AU),Reference Signal (unitless),Sample Signal (unitless)
901.51,1.317866,108485,5218
905.376,1.304502,121306,6017
909.237,1.309639,131909,6466
913.095,1.334861,143299,6628
916.948,1.329976,156982,7343
922.079,1.328572,179937,8444
925.923,1.316337,200504,9678
929.762,1.341347,222660,10146
933.597,1.319628,244426,11709
937.427,1.323087,263972,12545
941.254,1.325637,281845,13316
945.076,1.313225,297271,14452
950.165,1.313205,315605,15344
953.978,1.316376,328029,15832
957.786,1.314937,340470,16487
961.59,1.309239,352317,17286
965.389,1.315771,363056,17547
969.185,1.312304,373162,18180
972.976,1.309271,382632,18772
976.763,1.313556,391202,19004
981.806,1.302236,400190,19954
985.583,1.312240,406088,19787
989.355,1.315370,410162,19842
993.124,1.309258,412868,20256
996.888,1.304211,414263,20562
1000.65,1.314940,415476,20119
1004.4,1.306329,415479,20522
1009.41,1.308598,414358,20360
1013.15,1.305941,412923,20414
1016.89,1.316571,411526,19853
1020.63,1.305111,409066,20262
1024.36,1.317522,406777,19581
1028.09,1.309978,404427,19809
1031.82,1.317247,401911,19359
1036.78,1.304082,398410,19781
1040.49,1.309513,396204,19427
1044.2,1.313656,394236,19147
1047.91,1.314625,392042,18998
1051.61,1.306189,389823,19261
1055.31,1.311874,388234,18933
1059,1.307463,387599,19095
1063.92,1.314151,386688,18759
1067.61,1.303167,386598,19235
1071.29,1.311442,387377,18910
1074.96,1.313682,388536,18869
1078.63,1.317971,389855,18747
1082.3,1.317911,391215,18815
1085.96,1.308106,393215,19343
1090.84,1.311288,396270,19351
1094.49,1.314120,398760,19346
1098.14,1.311074,400987,19591
1101.79,1.323083,403477,19175
1105.43,1.318348,406116,19512
1109.06,1.318773,407701,19569
1112.7,1.323112,409859,19477
1117.53,1.312351,412494,20094
1121.15,1.327584,414909,19515
1124.77,1.314755,416559,20180
1128.38,1.315282,418532,20251
1131.99,1.311916,419956,20478
1135.6,1.324618,421946,19982
1139.2,1.312850,423881,20625
1143.99,1.324171,426786,20232
1147.58,1.316141,428617,20698
1151.17,1.319202,431169,20675
1154.75,1.321770,433579,20668
1158.33,1.317179,436264,21017
1161.91,1.318498,439132,21091
1165.48,1.316976,442389,21322
1169.04,1.323938,446101,21159
1173.79,1.321381,451929,21562
1177.34,1.324375,456026,21608
1180.9,1.321942,461306,21981
1184.44,1.322168,467657,22272
1187.99,1.316655,473969,22861
1191.52,1.319232,479856,23008
1195.06,1.322316,487372,23203
1199.76,1.326906,497347,23429
1203.29,1.320898,504311,24088
1206.81,1.320164,511507,24473
1210.33,1.321833,519078,24740
1213.84,1.324805,527163,24954
1217.35,1.321920,534208,25456
1220.85,1.320598,540472,25833
1225.51,1.322968,549929,26142
1229.01,1.328396,556888,26144
1232.5,1.321627,562180,26807
1235.98,1.323094,567975,26992
1239.46,1.321778,574815,27400
1242.94,1.322791,582782,27715
1246.41,1.326286,591476,27903
1251.03,1.331709,604016,28141
1254.5,1.328560,612289,28734
1257.96,1.325118,619125,29286
1261.41,1.327945,624551,29351
1264.86,1.326632,629900,29692
1268.31,1.326088,634345,29939
1271.75,1.330165,638574,29857
1276.33,1.326473,642499,30297
1279.76,1.324689,645905,30583
1283.19,1.324600,648307,30703
1286.61,1.327320,650446,30612
1290.03,1.329111,652132,30565
1293.44,1.330491,653907,30551
1296.85,1.332394,655963,30513
1301.39,1.327669,657349,30912
1304.8,1.335675,657558,30357
1308.19,1.332830,658515,30601
1311.58,1.335826,658804,30404
1314.97,1.331429,659011,30723
1318.36,1.327815,658272,30945
1321.73,1.328943,658022,30853
1326.23,1.334125,657870,30480
1329.6,1.336010,656482,30284
1332.97,1.327346,654926,30821
1336.33,1.329789,653727,30592
1339.69,1.328091,652497,30654
1343.04,1.332762,649913,30206
1346.39,1.324542,647671,30677
1349.73,1.335921,645338,29776
1354.18,1.332600,641175,29811
1357.52,1.327463,638376,30034
1360.85,1.327522,635805,29909
1364.17,1.327092,633413,29826
1367.49,1.326779,631026,29735
1370.81,1.323589,628050,29813
1374.12,1.322081,625034,29773
1378.54,1.325981,620272,29282
1381.84,1.323623,616892,29281
1385.14,1.326982,613613,28901
1388.43,1.328609,611526,28695
1391.72,1.332590,610663,28393
1395.01,1.324523,610634,28924
1398.29,1.333894,611700,28356
1402.66,1.327908,614051,28860
1405.93,1.328962,616268,28894
1409.2,1.327624,617795,29055
1412.46,1.328993,618872,29014
1415.72,1.336262,619795,28575
1418.98,1.330850,620495,28966
1422.23,1.337364,621087,28562
1426.56,1.331885,621375,28938
1429.8,1.331379,621616,28983
1433.04,1.340807,622129,28384
1436.27,1.335789,621526,28686
1439.5,1.334246,621113,28769
1442.72,1.330593,620921,29003
1445.94,1.339645,620270,28375
1450.23,1.332049,618860,28810
1453.44,1.333863,617697,28636
1456.64,1.341122,616264,28096
1459.85,1.340079,614413,28079
1463.04,1.331622,612307,28533
1466.24,1.331759,610032,28418
1469.43,1.333880,607345,28155
1473.67,1.333123,603789,28039
1476.85,1.339321,601175,27522
1480.02,1.336751,597737,27527
1483.19,1.333495,594479,27583
1486.36,1.336806,591232,27224
1489.52,1.338227,587853,26980
1492.68,1.335214,583875,26984
1496.89,1.340864,578062,26370
1500.03,1.336163,574159,26477
1503.18,1.335509,570285,26338
1506.32,1.340383,565444,25823
1509.45,1.346834,560571,25223
1512.58,1.335137,555821,25692
1515.71,1.340183,550344,25145
1519.87,1.338602,543983,24945
1522.99,1.337105,538764,24791
1526.1,1.339687,533692,24412
1529.21,1.339906,527902,24135
1532.32,1.338742,521886,23924
1535.42,1.333794,515888,23920
1538.51,1.335458,509987,23556
1541.6,1.342919,503936,22880
1545.72,1.337756,494694,22729
1548.8,1.332577,488378,22708
1551.88,1.340552,481832,21996
1554.95,1.331722,474989,22129
1558.02,1.332558,467818,21753
1561.08,1.334456,460730,21330
1564.15,1.332751,454170,21109
1568.22,1.336506,444181,20467
1571.27,1.330437,436947,20417
1574.32,1.335170,429598,19856
1577.36,1.336835,422039,19432
1580.4,1.331319,414375,19323
1583.43,1.342156,406354,18482
1586.46,1.324123,398475,18892
1590.49,1.328643,388982,18251
1593.51,1.326794,380708,17939
1596.53,1.325360,372727,17621
1599.54,1.333938,365060,16921
1602.55,1.335423,357543,16516
1605.55,1.329021,349495,16384
1608.55,1.329374,341154,15980
1612.54,1.320570,330877,15816
1615.53,1.331162,322904,15063
1618.51,1.335249,315116,14562
1621.49,1.319419,307217,14724
1624.47,1.320639,299481,14313
1627.44,1.324006,292112,13853
1630.41,1.314948,284245,13764
1634.36,1.317631,274079,13190
1637.32,1.316931,266916,12866
1640.27,1.323961,259612,12313
1643.22,1.322171,251804,11992
1646.16,1.314620,244348,11841
1649.1,1.307878,236703,11650
1652.04,1.321392,228171,10886
1655.95,1.286143,215408,11146
1658.88,1.289068,204937,10533
1661.8,1.268995,193395,10410
1664.72,1.267352,179728,9711
1667.63,1.258544,163642,9023
1670.54,1.236987,146312,8478
1673.44,1.224282,128451,7664
1677.31,1.210213,105080,6476
1680.21,1.176609,88906,5920
1683.1,1.107503,75033,5858
1685.99,1.182774,63520,4170
1688.87,1.190008,53714,3468
1691.75,1.243662,45653,2605
1694.62,1.216741,39137,2376
1697.49,1.221326,33776,2029
1701.31,1.091929,28175,2280