Folder: textile_sorting_NIRSCAN_/ML/samples/unknown (part 65)

File: Column 1_078449_20241121_170314.csv
Method:,Column 1,,
Host Date-Time:,21/11/24 @ 17:3:14,,
Header Version:,1,,
System Temp (C):,34.63,,
Detector Temp (C):,33.77,,
Humidity (%):,1.95,,
Lamp PD:,3802,,
Shift Vector Coefficients:,-10.5391,0.0761263,-0.000134223,,
Pixel to Wavelength Coefficients:,1775.68,-0.916766,-0.000235065,,
Serial Number:,5510004,,
Scan Config Name:,Column 1,,
Scan Config Type:,Slew,,
Section 1,,
Start wavelength (nm):,900,,
End wavelength (nm):,1700,,
Pattern Pixel Width (nm):,   7.03,,,,
Exposure (ms):,  0.635,,,,
Digital Resolution:,228,,
Num Repeats:,6,,
PGA Gain:,64,,
Total Measurement Time in sec:,  2.703,,
Wavelength (nm),Absorbance (AU),Reference Signal (unitless),Sample Signal (unitless)
901.51,1.318032,108485,5216
905.376,1.295431,121306,6144
909.237,1.301917,131909,6582
913.095,1.309164,143299,7032
916.948,1.303588,156982,7803
922.079,1.309111,179937,8831
925.923,1.331358,200504,9349
929.762,1.319681,222660,10665
933.597,1.329949,244426,11434
937.427,1.322949,263972,12549
941.254,1.324041,281845,13365
945.076,1.301777,297271,14838
950.165,1.322821,315605,15008
953.978,1.321925,328029,15631
957.786,1.309076,340470,16711
961.59,1.315362,352317,17044
965.389,1.315400,363056,17562
969.185,1.311421,373162,18217
972.976,1.309525,382632,18761
976.763,1.307407,391202,19275
981.806,1.299438,400190,20083
985.583,1.304518,406088,20142
989.355,1.311426,410162,20023
993.124,1.315999,412868,19944
996.888,1.308200,414263,20374
1000.65,1.308660,415476,20412
1004.4,1.316110,415479,20065
1009.41,1.308598,414358,20360
1013.15,1.307924,412923,20321
1016.89,1.316462,411526,19858
1020.63,1.316072,409066,19757
1024.36,1.311006,406777,19877
1028.09,1.310131,404427,19802
1031.82,1.309047,401911,19728
1036.78,1.307366,398410,19632
1040.49,1.304711,396204,19643
1044.2,1.318973,394236,18914
1047.91,1.309240,392042,19235
1051.61,1.305243,389823,19303
1055.31,1.303559,388234,19299
1059,1.306713,387599,19128
1063.92,1.307397,386688,19053
1067.61,1.315093,386598,18714
1071.29,1.308786,387377,19026
1074.96,1.310678,388536,19000
1078.63,1.320877,389855,18622
1082.3,1.308753,391215,19216
1085.96,1.320149,393215,18814
1090.84,1.323118,396270,18831
1094.49,1.317410,398760,19200
1098.14,1.323235,400987,19050
1101.79,1.312103,403477,19666
1105.43,1.311985,406116,19800
1109.06,1.317178,407701,19641
1112.7,1.319228,409859,19652
1117.53,1.316412,412494,19907
1121.15,1.318446,414909,19930
1124.77,1.313359,416559,20245
1128.38,1.317906,418532,20129
1131.99,1.320159,419956,20093
1135.6,1.321974,421946,20104
1139.2,1.322000,423881,20195
1143.99,1.323399,426786,20268
1147.58,1.318160,428617,20602
1151.17,1.321603,431169,20561
1154.75,1.324299,433579,20548
1158.33,1.315323,436264,21107
1161.91,1.315236,439132,21250
1165.48,1.318588,442389,21243
1169.04,1.320626,446101,21321
1173.79,1.320074,451929,21627
1177.34,1.307039,456026,22488
1180.9,1.318380,461306,22162
1184.44,1.314859,467657,22650
1187.99,1.322565,473969,22552
1191.52,1.315342,479856,23215
1195.06,1.315593,487372,23565
1199.76,1.322204,497347,23684
1203.29,1.318202,504311,24238
1206.81,1.316647,511507,24672
1210.33,1.315057,519078,25129
1213.84,1.324996,527163,24943
1217.35,1.322586,534208,25417
1220.85,1.321726,540472,25766
1225.51,1.323833,549929,26090
1229.01,1.321982,556888,26533
1232.5,1.322470,562180,26755
1235.98,1.322178,567975,27049
1239.46,1.318713,574815,27594
1242.94,1.318519,582782,27989
1246.41,1.320013,591476,28309
1251.03,1.317006,604016,29110
1254.5,1.322735,612289,29122
1257.96,1.325994,619125,29227
1261.41,1.329605,624551,29239
1264.86,1.324051,629900,29869
1268.31,1.326959,634345,29879
1271.75,1.325291,638574,30194
1276.33,1.328182,642499,30178
1279.76,1.324093,645905,30625
1283.19,1.327908,648307,30470
1286.61,1.334962,650446,30078
1290.03,1.330192,652132,30489
1293.44,1.330093,653907,30579
1296.85,1.325812,655963,30979
1301.39,1.324715,657349,31123
1304.8,1.332014,657558,30614
1308.19,1.330466,658515,30768
1311.58,1.327240,658804,31011
1314.97,1.329708,659011,30845
1318.36,1.333394,658272,30550
1321.73,1.326445,658022,31031
1326.23,1.334924,657870,30424
1329.6,1.331430,656482,30605
1332.97,1.332249,654926,30475
1336.33,1.333782,653727,30312
1339.69,1.332148,652497,30369
1343.04,1.330568,649913,30359
1346.39,1.331592,647671,30183
1349.73,1.325459,645338,30502
1354.18,1.327315,641175,30176
1357.52,1.333873,638376,29594
1360.85,1.329093,635805,29801
1364.17,1.327136,633413,29823
1367.49,1.328638,631026,29608
1370.81,1.328850,628050,29454
1374.12,1.329333,625034,29280
1378.54,1.327065,620272,29209
1381.84,1.329792,616892,28868
1385.14,1.323256,613613,29150
1388.43,1.331936,611526,28476
1391.72,1.327209,610663,28747
1395.01,1.327566,610634,28722
1398.29,1.329444,611700,28648
1402.66,1.324162,614051,29110
1405.93,1.331752,616268,28709
1409.2,1.331105,617795,28823
1412.46,1.328111,618872,29073
1415.72,1.331621,619795,28882
1418.98,1.329129,620495,29081
1422.23,1.331999,621087,28917
1426.56,1.337504,621375,28566
1429.8,1.333406,621616,28848
1433.04,1.332502,622129,28932
1436.27,1.334565,621526,28767
1439.5,1.330892,621113,28992
1442.72,1.330504,620921,29009
1445.94,1.329629,620270,29037
1450.23,1.329539,618860,28977
1453.44,1.334683,617697,28582
1456.64,1.333325,616264,28605
1459.85,1.334684,614413,28430
1463.04,1.335736,612307,28264
1466.24,1.341667,610032,27777
1469.43,1.334899,607345,28089
1473.67,1.331839,603789,28122
1476.85,1.334956,601175,27800
1480.02,1.341494,597737,27228
1483.19,1.332536,594479,27644
1486.36,1.340974,591232,26964
1489.52,1.333217,587853,27293
1492.68,1.326766,583875,27514
1496.89,1.334797,578062,26741
1500.03,1.331757,574159,26747
1503.18,1.331717,570285,26569
1506.32,1.334752,565444,26160
1509.45,1.334493,560571,25950
1512.58,1.334461,555821,25732
1515.71,1.335442,550344,25421
1519.87,1.336830,543983,25047
1522.99,1.342498,538764,24485
1526.1,1.337646,533692,24527
1529.21,1.340248,527902,24116
1532.32,1.336082,521886,24071
1535.42,1.336289,515888,23783
1538.51,1.338585,509987,23387
1541.6,1.337224,503936,23182
1545.72,1.336859,494694,22776
1548.8,1.332902,488378,22691
1551.88,1.338071,481832,22122
1554.95,1.335031,474989,21961
1558.02,1.337396,467818,21512
1561.08,1.339102,460730,21103
1564.15,1.335620,454170,20970
1568.22,1.335954,444181,20493
1571.27,1.333704,436947,20264
1574.32,1.332749,429598,19967
1577.36,1.328534,422039,19807
1580.4,1.330645,414375,19353
1583.43,1.329808,406354,19015
1586.46,1.332760,398475,18520
1590.49,1.333717,388982,18039
1593.51,1.338971,380708,17443
1596.53,1.336798,372727,17163
1599.54,1.324193,365060,17305
1602.55,1.325236,357543,16908
1605.55,1.333444,349495,16218
1608.55,1.321510,341154,16272
1612.54,1.324736,330877,15665
1615.53,1.326573,322904,15223
1618.51,1.319609,315116,15096
1621.49,1.324552,307217,14551
1624.47,1.318339,299481,14389
1627.44,1.324664,292112,13832
1630.41,1.323681,284245,13490
1634.36,1.319380,274079,13137
1637.32,1.322366,266916,12706
1640.27,1.318632,259612,12465
1643.22,1.307676,251804,12399
1646.16,1.304399,244348,12123
1649.1,1.299899,236703,11866
1652.04,1.305490,228171,11292
1655.95,1.316354,215408,10397
1658.88,1.303531,204937,10188
1661.8,1.289277,193395,9935
1664.72,1.266235,179728,9736
1667.63,1.258496,163642,9024
1670.54,1.234586,146312,8525
1673.44,1.237573,128451,7433
1677.31,1.200465,105080,6623
1680.21,1.193437,88906,5695
1683.1,1.181789,75033,4937
1685.99,1.157586,63520,4419
1688.87,1.172220,53714,3613
1691.75,1.111941,45653,3528
1694.62,1.201123,39137,2463
1697.49,1.170293,33776,2282
1701.31,1.293012,28175,1435

File: Column 1_078451_20241121_170320.csv
Method:,Column 1,,
Host Date-Time:,21/11/24 @ 17:3:20,,
Header Version:,1,,
System Temp (C):,34.76,,
Detector Temp (C):,33.74,,
Humidity (%):,1.95,,
Lamp PD:,3801,,
Shift Vector Coefficients:,-10.5391,0.0761263,-0.000134223,,
Pixel to Wavelength Coefficients:,1775.68,-0.916766,-0.000235065,,
Serial Number:,5510004,,
Scan Config Name:,Column 1,,
Scan Config Type:,Slew,,
Section 1,,
Start wavelength (nm):,900,,
End wavelength (nm):,1700,,
Pattern Pixel Width (nm):,   7.03,,,,
Exposure (ms):,  0.635,,,,
Digital Resolution:,228,,
Num Repeats:,6,,
PGA Gain:,64,,
Total Measurement Time in sec:,  2.693,,
Wavelength (nm),Absorbance (AU),Reference Signal (unitless),Sample Signal (unitless)
901.51,1.313641,108485,5269
905.376,1.299836,121306,6082
909.237,1.325926,131909,6228
913.095,1.299031,143299,7198
916.948,1.310093,156982,7687
922.079,1.328264,179937,8450
925.923,1.312584,200504,9762
929.762,1.313897,222660,10808
933.597,1.339123,244426,11195
937.427,1.331123,263972,12315
941.254,1.318488,281845,13537
945.076,1.316967,297271,14328
950.165,1.311877,315605,15391
953.978,1.307283,328029,16167
957.786,1.315966,340470,16448
961.59,1.307059,352317,17373
965.389,1.310066,363056,17779
969.185,1.312160,373162,18186
972.976,1.306251,382632,18903
976.763,1.311823,391202,19080
981.806,1.310942,400190,19558
985.583,1.313669,406088,19722
989.355,1.300461,410162,20535
993.124,1.303846,412868,20510
996.888,1.307625,414263,20401
1000.65,1.310451,415476,20328
1004.4,1.311053,415479,20300
1009.41,1.310994,414358,20248
1013.15,1.307027,412923,20363
1016.89,1.312521,411526,20039
1020.63,1.308209,409066,20118
1024.36,1.305793,406777,20117
1028.09,1.311955,404427,19719
1031.82,1.302796,401911,20014
1036.78,1.307277,398410,19636
1040.49,1.313082,396204,19268
1044.2,1.314541,394236,19108
1047.91,1.304972,392042,19425
1051.61,1.308699,389823,19150
1055.31,1.316440,388234,18735
1059,1.316773,387599,18690
1063.92,1.308242,386688,19016
1067.61,1.309811,386598,18943
1071.29,1.313930,387377,18802
1074.96,1.318380,388536,18666
1078.63,1.313638,389855,18935
1082.3,1.317242,391215,18844
1085.96,1.309320,393215,19289
1090.84,1.312052,396270,19317
1094.49,1.312955,398760,19398
1098.14,1.316337,400987,19355
1101.79,1.317391,403477,19428
1105.43,1.315243,406116,19652
1109.06,1.320753,407701,19480
1112.7,1.316935,409859,19756
1117.53,1.315257,412494,19960
1121.15,1.316945,414909,19999
1124.77,1.312908,416559,20266
1128.38,1.314853,418532,20271
1131.99,1.321349,419956,20038
1135.6,1.321543,421946,20124
1139.2,1.315172,423881,20515
1143.99,1.317462,426786,20547
1147.58,1.319723,428617,20528
1151.17,1.317734,431169,20745
1154.75,1.320511,433579,20728
1158.33,1.321018,436264,20832
1161.91,1.318683,439132,21082
1165.48,1.314013,442389,21468
1169.04,1.319202,446101,21391
1173.79,1.313102,451929,21977
1177.34,1.308761,456026,22399
1180.9,1.318498,461306,22156
1184.44,1.317513,467657,22512
1187.99,1.317149,473969,22835
1191.52,1.323119,479856,22803
1195.06,1.316885,487372,23495
1199.76,1.322480,497347,23669
1203.29,1.314153,504311,24465
1206.81,1.321871,511507,24377
1210.33,1.329287,519078,24319
1213.84,1.317573,527163,25373
1217.35,1.326258,534208,25203
1220.85,1.322384,540472,25727
1225.51,1.325367,549929,25998
1229.01,1.319549,556888,26682
1232.5,1.322795,562180,26735
1235.98,1.320192,567975,27173
1239.46,1.321952,574815,27389
1242.94,1.323230,582782,27687
1246.41,1.317443,591476,28477
1251.03,1.323742,604016,28662
1254.5,1.325413,612289,28943
1257.96,1.327170,619125,29148
1261.41,1.327738,624551,29365
1264.86,1.324924,629900,29809
1268.31,1.321399,634345,30264
1271.75,1.327974,638574,30008
1276.33,1.327693,642499,30212
1279.76,1.324220,645905,30616
1283.19,1.329079,648307,30388
1286.61,1.328129,650446,30555
1290.03,1.320766,652132,31158
1293.44,1.327558,653907,30758
1296.85,1.329161,655963,30741
1301.39,1.334722,657349,30414
1304.8,1.325733,657558,31060
1308.19,1.328270,658515,30924
1311.58,1.326066,658804,31095
1314.97,1.329595,659011,30853
1318.36,1.334633,658272,30463
1321.73,1.332931,658022,30571
1326.23,1.336525,657870,30312
1329.6,1.332297,656482,30544
1332.97,1.332434,654926,30462
1336.33,1.329916,653727,30583
1339.69,1.337182,652497,30019
1343.04,1.331312,649913,30307
1346.39,1.326443,647671,30543
1349.73,1.328373,645338,30298
1354.18,1.328439,641175,30098
1357.52,1.326698,638376,30087
1360.85,1.325624,635805,30040
1364.17,1.326786,633413,29847
1367.49,1.328653,631026,29607
1370.81,1.331661,628050,29264
1374.12,1.331712,625034,29120
1378.54,1.326293,620272,29261
1381.84,1.332812,616892,28668
1385.14,1.324479,613613,29068
1388.43,1.329260,611526,28652
1391.72,1.326439,610663,28798
1395.01,1.325756,610634,28842
1398.29,1.330719,611700,28564
1402.66,1.327773,614051,28869
1405.93,1.331238,616268,28743
1409.2,1.332766,617795,28713
1412.46,1.328694,618872,29034
1415.72,1.334866,619795,28667
1418.98,1.331225,620495,28941
1422.23,1.332285,621087,28898
1426.56,1.324814,621375,29413
1429.8,1.327783,621616,29224
1433.04,1.330540,622129,29063
1436.27,1.329999,621526,29071
1439.5,1.337778,621113,28536
1442.72,1.337598,620921,28539
1445.94,1.331878,620270,28887
1450.23,1.336458,618860,28519
1453.44,1.332803,617697,28706
1456.64,1.331386,616264,28733
1459.85,1.329505,614413,28771
1463.04,1.333544,612307,28407
1466.24,1.332861,610032,28346
1469.43,1.335688,607345,28038
1473.67,1.333247,603789,28031
1476.85,1.338265,601175,27589
1480.02,1.329244,597737,28007
1483.19,1.338786,594479,27249
1486.36,1.333326,591232,27443
1489.52,1.335499,587853,27150
1492.68,1.335826,583875,26946
1496.89,1.340025,578062,26421
1500.03,1.335148,574159,26539
1503.18,1.338388,570285,26164
1506.32,1.337767,565444,25979
1509.45,1.340340,560571,25603
1512.58,1.332290,555821,25861
1515.71,1.332802,550344,25576
1519.87,1.345198,543983,24569
1522.99,1.336177,538764,24844
1526.1,1.340703,533692,24355
1529.21,1.335947,527902,24356
1532.32,1.341510,521886,23772
1535.42,1.338045,515888,23687
1538.51,1.334886,509987,23587
1541.6,1.331123,503936,23510
1545.72,1.336192,494694,22811
1548.8,1.327444,488378,22978
1551.88,1.337365,481832,22158
1554.95,1.331741,474989,22128
1558.02,1.341025,467818,21333
1561.08,1.337992,460730,21157
1564.15,1.348462,454170,20359
1568.22,1.337738,444181,20409
1571.27,1.336930,436947,20114
1574.32,1.336551,429598,19793
1577.36,1.336098,422039,19465
1580.4,1.336497,414375,19094
1583.43,1.325762,406354,19193
1586.46,1.324054,398475,18895
1590.49,1.325064,388982,18402
1593.51,1.333897,380708,17648
1596.53,1.332367,372727,17339
1599.54,1.326912,365060,17197
1602.55,1.326677,357543,16852
1605.55,1.321975,349495,16652
1608.55,1.329863,341154,15962
1612.54,1.327601,330877,15562
1615.53,1.331681,322904,15045
1618.51,1.315058,315116,15255
1621.49,1.333478,307217,14255
1624.47,1.311779,299481,14608
1627.44,1.310244,292112,14299
1630.41,1.319739,284245,13613
1634.36,1.317993,274079,13179
1637.32,1.322776,266916,12694
1640.27,1.313128,259612,12624
1643.22,1.299694,251804,12629
1646.16,1.309226,244348,11989
1649.1,1.326034,236703,11173
1652.04,1.314859,228171,11051
1655.95,1.295716,215408,10903
1658.88,1.284108,204937,10654
1661.8,1.285014,193395,10033
1664.72,1.287395,179728,9273
1667.63,1.261248,163642,8967
1670.54,1.249405,146312,8239
1673.44,1.238100,128451,7424
1677.31,1.185069,105080,6862
1680.21,1.200046,88906,5609
1683.1,1.201863,75033,4714
1685.99,1.195134,63520,4053
1688.87,1.165895,53714,3666
1691.75,1.116022,45653,3495
1694.62,1.202182,39137,2457
1697.49,1.208462,33776,2090
1701.31,1.239278,28175,1624

File: Column 1_078452_20241121_170322.csv
Method:,Column 1,,
Host Date-Time:,21/11/24 @ 17:3:22,,
Header Version:,1,,
System Temp (C):,34.75,,
Detector Temp (C):,33.77,,
Humidity (%):,1.95,,
Lamp PD:,3801,,
Shift Vector Coefficients:,-10.5391,0.0761263,-0.000134223,,
Pixel to Wavelength Coefficients:,1775.68,-0.916766,-0.000235065,,
Serial Number:,5510004,,
Scan Config Name:,Column 1,,
Scan Config Type:,Slew,,
Section 1,,
Start wavelength (nm):,900,,
End wavelength (nm):,1700,,
Pattern Pixel Width (nm):,   7.03,,,,
Exposure (ms):,  0.635,,,,
Digital Resolution:,228,,
Num Repeats:,6,,
PGA Gain:,64,,
Total Measurement Time in sec:,  2.704,,
Wavelength (nm),Absorbance (AU),Reference Signal (unitless),Sample Signal (unitless)
901.51,1.325337,108485,5129
905.376,1.331450,121306,5655
909.237,1.314638,131909,6392
913.095,1.332704,143299,6661
916.948,1.323460,156982,7454
922.079,1.337195,179937,8278
925.923,1.327888,200504,9424
929.762,1.332115,222660,10364
933.597,1.320965,244426,11673
937.427,1.310027,263972,12928
941.254,1.329667,281845,13193
945.076,1.325600,297271,14046
950.165,1.319764,315605,15114
953.978,1.327969,328029,15415
957.786,1.307183,340470,16784
961.59,1.322038,352317,16784
965.389,1.308433,363056,17846
969.185,1.306938,373162,18406
972.976,1.306434,382632,18895
976.763,1.308625,391202,19221
981.806,1.309169,400190,19638
985.583,1.313009,406088,19752
989.355,1.314758,410162,19870
993.124,1.318007,412868,19852
996.888,1.313152,414263,20143
1000.65,1.302513,415476,20703
1004.4,1.309409,415479,20377
1009.41,1.312950,414358,20157
1013.15,1.319643,412923,19780
1016.89,1.313932,411526,19974
1020.63,1.306249,409066,20209
1024.36,1.301753,406777,20305
1028.09,1.312242,404427,19706
1031.82,1.305845,401911,19874
1036.78,1.301412,398410,19903
1040.49,1.319005,396204,19007
1044.2,1.313746,394236,19143
1047.91,1.311391,392042,19140
1051.61,1.323625,389823,18503
1055.31,1.308834,388234,19066
1059,1.314525,387599,18787
1063.92,1.308401,386688,19009
1067.61,1.314096,386598,18757
1071.29,1.321338,387377,18484
1074.96,1.314604,388536,18829
1078.63,1.314028,389855,18918
1082.3,1.309092,391215,19201
1085.96,1.316014,393215,18994
1090.84,1.313064,396270,19272
1094.49,1.320156,398760,19079
1098.14,1.319219,400987,19227
1101.79,1.324308,403477,19121
1105.43,1.320535,406116,19414
1109.06,1.322876,407701,19385
1112.7,1.316606,409859,19771
1117.53,1.311078,412494,20153
1121.15,1.321902,414909,19772
1124.77,1.313681,416559,20230
1128.38,1.315325,418532,20249
1131.99,1.319533,419956,20122
1135.6,1.313397,421946,20505
1139.2,1.313503,423881,20594
1143.99,1.313380,426786,20741
1147.58,1.306390,428617,21168
1151.17,1.321287,431169,20576
1154.75,1.324997,433579,20515
1158.33,1.316828,436264,21034
1161.91,1.318663,439132,21083
1165.48,1.319530,442389,21197
1169.04,1.317621,446101,21469
1173.79,1.314944,451929,21884
1177.34,1.322710,456026,21691
1180.9,1.327910,461306,21681
1184.44,1.314572,467657,22665
1187.99,1.324360,473969,22459
1191.52,1.319364,479856,23001
1195.06,1.325095,487372,23055
1199.76,1.317808,497347,23925
1203.29,1.321331,504311,24064
1206.81,1.320768,511507,24439
1210.33,1.328163,519078,24382
1213.84,1.329987,527163,24658
1217.35,1.325621,534208,25240
1220.85,1.328658,540472,25358
1225.51,1.321426,549929,26235
1229.01,1.328280,556888,26151
1232.5,1.326744,562180,26493
1235.98,1.319329,567975,27227
1239.46,1.323493,574815,27292
1242.94,1.327882,582782,27392
1246.41,1.322073,591476,28175
1251.03,1.328327,604016,28361
1254.5,1.326209,612289,28890
1257.96,1.324141,619125,29352
1261.41,1.322344,624551,29732
1264.86,1.323571,629900,29902
1268.31,1.327105,634345,29869
1271.75,1.324888,638574,30222
1276.33,1.330867,642499,29992
1279.76,1.326268,645905,30472
1283.19,1.351229,648307,28877
1286.61,1.331898,650446,30291
1290.03,1.332979,652132,30294
1293.44,1.331245,653907,30498
1296.85,1.330959,655963,30614
1301.39,1.328935,657349,30822
1304.8,1.337338,657558,30241
1308.19,1.329128,658515,30863
1311.58,1.328531,658804,30919
1314.97,1.335049,659011,30468
1318.36,1.333352,658272,30553
1321.73,1.333912,658022,30502
1326.23,1.332234,657870,30613
1329.6,1.328686,656482,30799
1332.97,1.337381,654926,30117
1336.33,1.333109,653727,30359
1339.69,1.330193,652497,30506
1343.04,1.332891,649913,30197
1346.39,1.326557,647671,30535
1349.73,1.331221,645338,30100
1354.18,1.333592,641175,29743
1357.52,1.327145,638376,30056
1360.85,1.326855,635805,29955
1364.17,1.334094,633413,29349
1367.49,1.329167,631026,29572
1370.81,1.320555,628050,30022
1374.12,1.329897,625034,29242
1378.54,1.332271,620272,28861
1381.84,1.330591,616892,28815
1385.14,1.326892,613613,28907
1388.43,1.331128,611526,28529
1391.72,1.330074,610663,28558
1395.01,1.332738,610634,28382
1398.29,1.331115,611700,28538
1402.66,1.331050,614051,28652
1405.93,1.329564,616268,28854
1409.2,1.328956,617795,28966
1412.46,1.328903,618872,29020
1415.72,1.332539,619795,28821
1418.98,1.333180,620495,28811
1422.23,1.332405,621087,28890
1426.56,1.329133,621375,29122
1429.8,1.331019,621616,29007
1433.04,1.331048,622129,29029
1436.27,1.334338,621526,28782
1439.5,1.339470,621113,28425
1442.72,1.330339,620921,29020
1445.94,1.330872,620270,28954
1450.23,1.338963,618860,28355
1453.44,1.336388,617697,28470
1456.64,1.337214,616264,28350
1459.85,1.331442,614413,28643
1463.04,1.342394,612307,27834
1466.24,1.343061,610032,27688
1469.43,1.330653,607345,28365
1473.67,1.337638,603789,27749
1476.85,1.336615,601175,27694
1480.02,1.340507,597737,27290
1483.19,1.337878,594479,27306
1486.36,1.338901,591232,27093
1489.52,1.338597,587853,26957
1492.68,1.339435,583875,26723
1496.89,1.339894,578062,26429
1500.03,1.343408,574159,26039
1503.18,1.338338,570285,26167
1506.32,1.340871,565444,25794
1509.45,1.344995,560571,25330
1512.58,1.336865,555821,25590
1515.71,1.333600,550344,25529
1519.87,1.336119,543983,25088
1522.99,1.337245,538764,24783
1526.1,1.338249,533692,24493
1529.21,1.331971,527902,24580
1532.32,1.337346,521886,24001
1535.42,1.343618,515888,23385
1538.51,1.338139,509987,23411
1541.6,1.334033,503936,23353
1545.72,1.338234,494694,22704
1548.8,1.340412,488378,22302
1551.88,1.336328,481832,22211
1554.95,1.342029,474989,21610
1558.02,1.343782,467818,21198
1561.08,1.332323,460730,21435
1564.15,1.324356,454170,21521
1568.22,1.338036,444181,20395
1571.27,1.334454,436947,20229
1574.32,1.339567,429598,19656
1577.36,1.333030,422039,19603
1580.4,1.336133,414375,19110
1583.43,1.331410,406354,18945
1586.46,1.341836,398475,18137
1590.49,1.342890,388982,17662
1593.51,1.327690,380708,17902
1596.53,1.332718,372727,17325
1599.54,1.329648,365060,17089
1602.55,1.324235,357543,16947
1605.55,1.326378,349495,16484
1608.55,1.323999,341154,16179
1612.54,1.329223,330877,15504
1615.53,1.319611,322904,15469
1618.51,1.334415,315116,14590
1621.49,1.321875,307217,14641
1624.47,1.319396,299481,14354
1627.44,1.319825,292112,13987
1630.41,1.322556,284245,13525
1634.36,1.309800,274079,13430
1637.32,1.316122,266916,12890
1640.27,1.310692,259612,12695
1643.22,1.328188,251804,11827
1646.16,1.323177,244348,11610
1649.1,1.324598,236703,11210
1652.04,1.334679,228171,10558
1655.95,1.303067,215408,10720
1658.88,1.294170,204937,10410
1661.8,1.297619,193395,9746
1664.72,1.302647,179728,8953
1667.63,1.272135,163642,8745
1670.54,1.257224,146312,8092
1673.44,1.213315,128451,7860
1677.31,1.210213,105080,6476
1680.21,1.177123,88906,5913
1683.1,1.166067,75033,5119
1685.99,1.203683,63520,3974
1688.87,1.222232,53714,3220
1691.75,1.201285,45653,2872
1694.62,1.193087,39137,2509
1697.49,1.193150,33776,2165
1701.31,1.167695,28175,1915