Folder: textile_sorting_NIRSCAN_/ML/samples/unknown (part 121)

File: Column 1_078897_20241121_172727.csv
Method:,Column 1,,
Host Date-Time:,21/11/24 @ 17:27:27,,
Header Version:,1,,
System Temp (C):,37.28,,
Detector Temp (C):,36.34,,
Humidity (%):,0.48,,
Lamp PD:,3796,,
Shift Vector Coefficients:,-10.5391,0.0761263,-0.000134223,,
Pixel to Wavelength Coefficients:,1775.68,-0.916766,-0.000235065,,
Serial Number:,5510004,,
Scan Config Name:,Column 1,,
Scan Config Type:,Slew,,
Section 1,,
Start wavelength (nm):,900,,
End wavelength (nm):,1700,,
Pattern Pixel Width (nm):,   7.03,,,,
Exposure (ms):,  0.635,,,,
Digital Resolution:,228,,
Num Repeats:,6,,
PGA Gain:,64,,
Total Measurement Time in sec:,  2.726,,
Wavelength (nm),Absorbance (AU),Reference Signal (unitless),Sample Signal (unitless)
901.51,1.314632,108485,5257
905.376,1.303421,121306,6032
909.237,1.295823,131909,6675
913.095,1.316325,143299,6917
916.948,1.321426,156982,7489
922.079,1.342473,179937,8178
925.923,1.315128,200504,9705
929.762,1.329483,222660,10427
933.597,1.324139,244426,11588
937.427,1.315163,263972,12776
941.254,1.313861,281845,13682
945.076,1.310439,297271,14545
950.165,1.325492,315605,14916
953.978,1.325525,328029,15502
957.786,1.317473,340470,16391
961.59,1.321909,352317,16789
965.389,1.303906,363056,18033
969.185,1.308167,373162,18354
972.976,1.308808,382632,18792
976.763,1.302545,391202,19492
981.806,1.306523,400190,19758
985.583,1.298926,406088,20403
989.355,1.311839,410162,20004
993.124,1.305628,412868,20426
996.888,1.315227,414263,20047
1000.65,1.308384,415476,20425
1004.4,1.312360,415479,20239
1009.41,1.315240,414358,20051
1013.15,1.304370,412923,20488
1016.89,1.314280,411526,19958
1020.63,1.308273,409066,20115
1024.36,1.313240,406777,19775
1028.09,1.307507,404427,19922
1031.82,1.309509,401911,19707
1036.78,1.312170,398410,19416
1040.49,1.313894,396204,19232
1044.2,1.299398,394236,19786
1047.91,1.309941,392042,19204
1051.61,1.311109,389823,19044
1055.31,1.302862,388234,19330
1059,1.314988,387599,18767
1063.92,1.307968,386688,19028
1067.61,1.314467,386598,18741
1071.29,1.318177,387377,18619
1074.96,1.303716,388536,19307
1078.63,1.318922,389855,18706
1082.3,1.310111,391215,19156
1085.96,1.311148,393215,19208
1090.84,1.326614,396270,18680
1094.49,1.310454,398760,19510
1098.14,1.313452,400987,19484
1101.79,1.319407,403477,19338
1105.43,1.307902,406116,19987
1109.06,1.303210,407701,20283
1112.7,1.312648,409859,19952
1117.53,1.314453,412494,19997
1121.15,1.317814,414909,19959
1124.77,1.317432,416559,20056
1128.38,1.321307,418532,19972
1131.99,1.322217,419956,19998
1135.6,1.315393,421946,20411
1139.2,1.311483,423881,20690
1143.99,1.316216,426786,20606
1147.58,1.310078,428617,20989
1151.17,1.315125,431169,20870
1154.75,1.317796,433579,20858
1158.33,1.316270,436264,21061
1161.91,1.316505,439132,21188
1165.48,1.322305,442389,21062
1169.04,1.316712,446101,21514
1173.79,1.309579,451929,22156
1177.34,1.313126,456026,22175
1180.9,1.312347,461306,22472
1184.44,1.316069,467657,22587
1187.99,1.312270,473969,23093
1191.52,1.323595,479856,22778
1195.06,1.325152,487372,23052
1199.76,1.323784,497347,23598
1203.29,1.319350,504311,24174
1206.81,1.324444,511507,24233
1210.33,1.315974,519078,25076
1213.84,1.323189,527163,25047
1217.35,1.319080,534208,25623
1220.85,1.317716,540472,26005
1225.51,1.321541,549929,26228
1229.01,1.317779,556888,26791
1232.5,1.319655,562180,26929
1235.98,1.324868,567975,26882
1239.46,1.320701,574815,27468
1242.94,1.319917,582782,27899
1246.41,1.324392,591476,28025
1251.03,1.326814,604016,28460
1254.5,1.329332,612289,28683
1257.96,1.322678,619125,29451
1261.41,1.322958,624551,29690
1264.86,1.324240,629900,29856
1268.31,1.327570,634345,29837
1271.75,1.322995,638574,30354
1276.33,1.330534,642499,30015
1279.76,1.324958,645905,30564
1283.19,1.327695,648307,30485
1286.61,1.326427,650446,30675
1290.03,1.324293,652132,30906
1293.44,1.327826,653907,30739
1296.85,1.329373,655963,30726
1301.39,1.327753,657349,30906
1304.8,1.324741,657558,31131
1308.19,1.330876,658515,30739
1311.58,1.324852,658804,31182
1314.97,1.326901,659011,31045
1318.36,1.329911,658272,30796
1321.73,1.330409,658022,30749
1326.23,1.328998,657870,30842
1329.6,1.329265,656482,30758
1332.97,1.329252,654926,30686
1336.33,1.330755,653727,30524
1339.69,1.328389,652497,30633
1343.04,1.326595,649913,30638
1346.39,1.327183,647671,30491
1349.73,1.330183,645338,30172
1354.18,1.323646,641175,30432
1357.52,1.327492,638376,30032
1360.85,1.326782,635805,29960
1364.17,1.320904,633413,30254
1367.49,1.326123,631026,29780
1370.81,1.328040,628050,29509
1374.12,1.325596,625034,29533
1378.54,1.328361,620272,29122
1381.84,1.323164,616892,29312
1385.14,1.327899,613613,28840
1388.43,1.321955,611526,29138
1391.72,1.318416,610663,29335
1395.01,1.323443,610634,28996
1398.29,1.320650,611700,29234
1402.66,1.322613,614051,29214
1405.93,1.324075,616268,29221
1409.2,1.328312,617795,29009
1412.46,1.330027,618872,28945
1415.72,1.334154,619795,28714
1418.98,1.326063,620495,29287
1422.23,1.333489,621087,28818
1426.56,1.327124,621375,29257
1429.8,1.327248,621616,29260
1433.04,1.328899,622129,29173
1436.27,1.331286,621526,28985
1439.5,1.329711,621113,29071
1442.72,1.332349,620921,28886
1445.94,1.334200,620270,28733
1450.23,1.332683,618860,28768
1453.44,1.336297,617697,28476
1456.64,1.328268,616264,28940
1459.85,1.338242,614413,28198
1463.04,1.338093,612307,28111
1466.24,1.326156,610032,28787
1469.43,1.334714,607345,28101
1473.67,1.335203,603789,27905
1476.85,1.337369,601175,27646
1480.02,1.331779,597737,27844
1483.19,1.330060,594479,27802
1486.36,1.332599,591232,27489
1489.52,1.334253,587853,27228
1492.68,1.330221,583875,27296
1496.89,1.339401,578062,26459
1500.03,1.336935,574159,26430
1503.18,1.330183,570285,26663
1506.32,1.337466,565444,25997
1509.45,1.332990,560571,26040
1512.58,1.334630,555821,25722
1515.71,1.335954,550344,25391
1519.87,1.334392,543983,25188
1522.99,1.338895,538764,24689
1526.1,1.335615,533692,24642
1529.21,1.334594,527902,24432
1532.32,1.333814,521886,24197
1535.42,1.335140,515888,23846
1538.51,1.334850,509987,23589
1541.6,1.334442,503936,23331
1545.72,1.331327,494694,23068
1548.8,1.338683,488378,22391
1551.88,1.331467,481832,22461
1554.95,1.333373,474989,22045
1558.02,1.327773,467818,21994
1561.08,1.336844,460730,21213
1564.15,1.331826,454170,21154
1568.22,1.331988,444181,20681
1571.27,1.328273,436947,20519
1574.32,1.331446,429598,20027
1577.36,1.336746,422039,19436
1580.4,1.330668,414375,19352
1583.43,1.329580,406354,19025
1586.46,1.325758,398475,18821
1590.49,1.333549,388982,18046
1593.51,1.329733,380708,17818
1596.53,1.321728,372727,17769
1599.54,1.320196,365060,17465
1602.55,1.321400,357543,17058
1605.55,1.312941,349495,17002
1608.55,1.324160,341154,16173
1612.54,1.329755,330877,15485
1615.53,1.319808,322904,15462
1618.51,1.319407,315116,15103
1621.49,1.311325,307217,15001
1624.47,1.321671,299481,14279
1627.44,1.321817,292112,13923
1630.41,1.306233,284245,14043
1634.36,1.312557,274079,13345
1637.32,1.310332,266916,13063
1640.27,1.320518,259612,12411
1643.22,1.325808,251804,11892
1646.16,1.315575,244348,11815
1649.1,1.298073,236703,11916
1652.04,1.320754,228171,10902
1655.95,1.286611,215408,11134
1658.88,1.297478,204937,10331
1661.8,1.273524,193395,10302
1664.72,1.260871,179728,9857
1667.63,1.259459,163642,9004
1670.54,1.231540,146312,8585
1673.44,1.193813,128451,8221
1677.31,1.151175,105080,7419
1680.21,1.150280,88906,6290
1683.1,1.149177,75033,5322
1685.99,1.129705,63520,4712
1688.87,1.150876,53714,3795
1691.75,1.185836,45653,2976
1694.62,1.208413,39137,2422
1697.49,1.186383,33776,2199
1701.31,1.202136,28175,1769

File: Column 1_078903_20241121_172745.csv
Method:,Column 1,,
Host Date-Time:,21/11/24 @ 17:27:45,,
Header Version:,1,,
System Temp (C):,37.06,,
Detector Temp (C):,36.33,,
Humidity (%):,0.53,,
Lamp PD:,3796,,
Shift Vector Coefficients:,-10.5391,0.0761263,-0.000134223,,
Pixel to Wavelength Coefficients:,1775.68,-0.916766,-0.000235065,,
Serial Number:,5510004,,
Scan Config Name:,Column 1,,
Scan Config Type:,Slew,,
Section 1,,
Start wavelength (nm):,900,,
End wavelength (nm):,1700,,
Pattern Pixel Width (nm):,   7.03,,,,
Exposure (ms):,  0.635,,,,
Digital Resolution:,228,,
Num Repeats:,6,,
PGA Gain:,64,,
Total Measurement Time in sec:,  2.716,,
Wavelength (nm),Absorbance (AU),Reference Signal (unitless),Sample Signal (unitless)
901.51,1.321292,108485,5177
905.376,1.306238,121306,5993
909.237,1.321210,131909,6296
913.095,1.328809,143299,6721
916.948,1.303477,156982,7805
922.079,1.323002,179937,8553
925.923,1.338949,200504,9187
929.762,1.330108,222660,10412
933.597,1.320407,244426,11688
937.427,1.315741,263972,12759
941.254,1.328943,281845,13215
945.076,1.325631,297271,14045
950.165,1.317872,315605,15180
953.978,1.308520,328029,16121
957.786,1.307183,340470,16784
961.59,1.313024,352317,17136
965.389,1.309700,363056,17794
969.185,1.298850,373162,18752
972.976,1.308808,382632,18792
976.763,1.302478,391202,19495
981.806,1.308197,400190,19682
985.583,1.298735,406088,20412
989.355,1.304711,410162,20335
993.124,1.300807,412868,20654
996.888,1.304063,414263,20569
1000.65,1.308086,415476,20439
1004.4,1.313736,415479,20175
1009.41,1.300337,414358,20751
1013.15,1.299542,412923,20717
1016.89,1.313693,411526,19985
1020.63,1.313421,409066,19878
1024.36,1.317921,406777,19563
1028.09,1.295616,404427,20475
1031.82,1.310502,401911,19662
1036.78,1.311790,398410,19433
1040.49,1.308486,396204,19473
1044.2,1.305722,394236,19500
1047.91,1.314716,392042,18994
1051.61,1.312068,389823,19002
1055.31,1.305973,388234,19192
1059,1.305874,387599,19165
1063.92,1.305782,386688,19124
1067.61,1.302536,386598,19263
1071.29,1.314300,387377,18786
1074.96,1.310312,388536,19016
1078.63,1.320714,389855,18629
1082.3,1.307038,391215,19292
1085.96,1.310177,393215,19251
1090.84,1.313177,396270,19267
1094.49,1.315177,398760,19299
1098.14,1.323053,400987,19058
1101.79,1.306072,403477,19941
1105.43,1.318104,406116,19523
1109.06,1.300073,407701,20430
1112.7,1.317221,409859,19743
1117.53,1.324693,412494,19531
1121.15,1.308472,414909,20393
1124.77,1.306421,416559,20571
1128.38,1.322396,418532,19922
1131.99,1.310561,419956,20542
1135.6,1.314224,421946,20466
1139.2,1.315850,423881,20483
1143.99,1.315479,426786,20641
1147.58,1.312380,428617,20878
1151.17,1.323784,431169,20458
1154.75,1.317671,433579,20864
1158.33,1.317282,436264,21012
1161.91,1.316280,439132,21199
1165.48,1.312801,442389,21528
1169.04,1.322749,446101,21217
1173.79,1.322874,451929,21488
1177.34,1.316922,456026,21982
1180.9,1.311305,461306,22526
1184.44,1.314514,467657,22668
1187.99,1.315005,473969,22948
1191.52,1.308199,479856,23600
1195.06,1.322429,487372,23197
1199.76,1.318389,497347,23893
1203.29,1.317557,504311,24274
1206.81,1.320040,511507,24480
1210.33,1.320046,519078,24842
1213.84,1.318361,527163,25327
1217.35,1.319538,534208,25596
1220.85,1.315767,540472,26122
1225.51,1.324516,549929,26049
1229.01,1.319745,556888,26670
1232.5,1.316394,562180,27132
1235.98,1.311364,567975,27731
1239.46,1.323159,574815,27313
1242.94,1.315396,582782,28191
1246.41,1.317733,591476,28458
1251.03,1.320090,604016,28904
1254.5,1.315386,612289,29619
1257.96,1.331557,619125,28855
1261.41,1.316944,624551,30104
1264.86,1.323470,629900,29909
1268.31,1.323947,634345,30087
1271.75,1.323683,638574,30306
1276.33,1.319167,642499,30811
1279.76,1.328626,645905,30307
1283.19,1.321780,648307,30903
1286.61,1.324083,650446,30841
1290.03,1.330862,652132,30442
1293.44,1.328194,653907,30713
1296.85,1.325266,655963,31018
1301.39,1.326364,657349,31005
1304.8,1.331036,657558,30683
1308.19,1.329156,658515,30861
1311.58,1.323115,658804,31307
1314.97,1.331768,659011,30699
1318.36,1.328419,658272,30902
1321.73,1.327538,658022,30953
1326.23,1.330041,657870,30768
1329.6,1.329886,656482,30714
1332.97,1.329096,654926,30697
1336.33,1.327650,653727,30743
1339.69,1.332034,652497,30377
1343.04,1.328157,649913,30528
1346.39,1.326514,647671,30538
1349.73,1.328818,645338,30267
1354.18,1.329465,641175,30027
1357.52,1.320336,638376,30531
1360.85,1.326652,635805,29969
1364.17,1.326437,633413,29871
1367.49,1.324362,631026,29901
1370.81,1.323763,628050,29801
1374.12,1.317626,625034,30080
1378.54,1.322628,620272,29509
1381.84,1.319916,616892,29532
1385.14,1.326816,613613,28912
1388.43,1.327822,611526,28747
1391.72,1.322730,610663,29045
1395.01,1.327536,610634,28724
1398.29,1.319019,611700,29344
1402.66,1.322524,614051,29220
1405.93,1.323258,616268,29276
1409.2,1.335284,617795,28547
1412.46,1.334552,618872,28645
1415.72,1.334896,619795,28665
1418.98,1.327683,620495,29178
1422.23,1.333368,621087,28826
1426.56,1.326042,621375,29330
1429.8,1.332715,621616,28894
1433.04,1.335258,622129,28749
1436.27,1.329701,621526,29091
1439.5,1.333869,621113,28794
1442.72,1.332033,620921,28907
1445.94,1.328374,620270,29121
1450.23,1.331612,618860,28839
1453.44,1.332515,617697,28725
1456.64,1.333416,616264,28599
1459.85,1.336153,614413,28334
1463.04,1.335736,612307,28264
1466.24,1.332111,610032,28395
1469.43,1.330224,607345,28393
1473.67,1.337841,603789,27736
1476.85,1.335722,601175,27751
1480.02,1.336042,597737,27572
1483.19,1.338706,594479,27254
1486.36,1.329953,591232,27657
1489.52,1.330663,587853,27454
1492.68,1.331256,583875,27231
1496.89,1.336245,578062,26652
1500.03,1.327733,574159,26996
1503.18,1.335839,570285,26318
1506.32,1.329537,565444,26476
1509.45,1.336237,560571,25846
1512.58,1.339674,555821,25425
1515.71,1.336588,550344,25354
1519.87,1.332533,543983,25296
1522.99,1.339476,538764,24656
1526.1,1.336285,533692,24604
1529.21,1.337627,527902,24262
1532.32,1.337202,521886,24009
1535.42,1.337038,515888,23742
1538.51,1.329779,509987,23866
1541.6,1.330606,503936,23538
1545.72,1.332590,494694,23001
1548.8,1.336921,488378,22482
1551.88,1.328384,481832,22621
1554.95,1.332980,474989,22065
1558.02,1.333557,467818,21703
1561.08,1.325867,460730,21756
1564.15,1.334875,454170,21006
1568.22,1.336124,444181,20485
1571.27,1.331566,436947,20364
1574.32,1.336616,429598,19790
1577.36,1.329763,422039,19751
1580.4,1.335225,414375,19150
1583.43,1.336042,406354,18744
1586.46,1.327933,398475,18727
1590.49,1.327265,388982,18309
1593.51,1.331785,380708,17734
1596.53,1.318101,372727,17918
1599.54,1.316876,365060,17599
1602.55,1.318507,357543,17172
1605.55,1.326168,349495,16492
1608.55,1.324321,341154,16167
1612.54,1.333983,330877,15335
1615.53,1.323503,322904,15331
1618.51,1.313893,315116,15296
1621.49,1.327908,307217,14439
1624.47,1.327797,299481,14079
1627.44,1.316916,292112,14081
1630.41,1.315043,284245,13761
1634.36,1.309186,274079,13449
1637.32,1.322947,266916,12689
1640.27,1.325657,259612,12265
1643.22,1.313778,251804,12226
1646.16,1.312644,244348,11895
1649.1,1.305313,236703,11719
1652.04,1.313799,228171,11078
1655.95,1.298273,215408,10839
1658.88,1.279042,204937,10779
1661.8,1.283200,193395,10075
1664.72,1.254876,179728,9994
1667.63,1.242202,163642,9369
1670.54,1.232096,146312,8574
1673.44,1.193813,128451,8221
1677.31,1.163946,105080,7204
1680.21,1.188358,88906,5762
1683.1,1.129319,75033,5571
1685.99,1.113069,63520,4896
1688.87,1.096114,53714,4305
1691.75,1.121273,45653,3453
1694.62,1.127800,39137,2916
1697.49,1.142109,33776,2435
1701.31,1.135786,28175,2061

File: Column 1_078904_20241121_172748.csv
Method:,Column 1,,
Host Date-Time:,21/11/24 @ 17:27:48,,
Header Version:,1,,
System Temp (C):,36.95,,
Detector Temp (C):,36.36,,
Humidity (%):,0.43,,
Lamp PD:,3796,,
Shift Vector Coefficients:,-10.5391,0.0761263,-0.000134223,,
Pixel to Wavelength Coefficients:,1775.68,-0.916766,-0.000235065,,
Serial Number:,5510004,,
Scan Config Name:,Column 1,,
Scan Config Type:,Slew,,
Section 1,,
Start wavelength (nm):,900,,
End wavelength (nm):,1700,,
Pattern Pixel Width (nm):,   7.03,,,,
Exposure (ms):,  0.635,,,,
Digital Resolution:,228,,
Num Repeats:,6,,
PGA Gain:,64,,
Total Measurement Time in sec:,  2.716,,
Wavelength (nm),Absorbance (AU),Reference Signal (unitless),Sample Signal (unitless)
901.51,1.335619,108485,5009
905.376,1.323988,121306,5753
909.237,1.337802,131909,6060
913.095,1.318970,143299,6875
916.948,1.313553,156982,7626
922.079,1.327956,179937,8456
925.923,1.319038,200504,9618
929.762,1.327405,222660,10477
933.597,1.316449,244426,11795
937.427,1.307281,263972,13010
941.254,1.307496,281845,13884
945.076,1.318546,297271,14276
950.165,1.315077,315605,15278
953.978,1.317255,328029,15800
957.786,1.314463,340470,16505
961.59,1.308411,352317,17319
965.389,1.301672,363056,18126
969.185,1.302805,373162,18582
972.976,1.313782,382632,18578
976.763,1.307024,391202,19292
981.806,1.304287,400190,19860
985.583,1.304043,406088,20164
989.355,1.310581,410162,20062
993.124,1.305012,412868,20455
996.888,1.302251,414263,20655
1000.65,1.307004,415476,20490
1004.4,1.309153,415479,20389
1009.41,1.308235,414358,20377
1013.15,1.309508,412923,20247
1016.89,1.307586,411526,20268
1020.63,1.306055,409066,20218
1024.36,1.302396,406777,20275
1028.09,1.299965,404427,20271
1031.82,1.307794,401911,19785
1036.78,1.304367,398410,19768
1040.49,1.301649,396204,19782
1044.2,1.304299,394236,19564
1047.91,1.305777,392042,19389
1051.61,1.305828,389823,19277
1055.31,1.308447,388234,19083
1059,1.310934,387599,18943
1063.92,1.304829,386688,19166
1067.61,1.310361,386598,18919
1071.29,1.311902,387377,18890
1074.96,1.314143,388536,18849
1078.63,1.310666,389855,19065
1082.3,1.308075,391215,19246
1085.96,1.313438,393215,19107
1090.84,1.314984,396270,19187
1094.49,1.302383,398760,19876
1098.14,1.317573,400987,19300
1101.79,1.318510,403477,19378
1105.43,1.313457,406116,19733
1109.06,1.312734,407701,19843
1112.7,1.310888,409859,20033
1117.53,1.316870,412494,19886
1121.15,1.308941,414909,20371
1124.77,1.313509,416559,20238
1128.38,1.314040,418532,20309
1131.99,1.316136,419956,20280
1135.6,1.316031,421946,20381
1139.2,1.311064,423881,20710
1143.99,1.314849,426786,20671
1147.58,1.314340,428617,20784
1151.17,1.311891,431169,21026
1154.75,1.312971,433579,21091
1158.33,1.318275,436264,20964
1161.91,1.321784,439132,20932
1165.48,1.309305,442389,21702
1169.04,1.311575,446101,21770
1173.79,1.315559,451929,21853
1177.34,1.311913,456026,22237
1180.9,1.309958,461306,22596
1184.44,1.315089,467657,22638
1187.99,1.315194,473969,22938
1191.52,1.315455,479856,23209
1195.06,1.311704,487372,23777
1199.76,1.312575,497347,24215
1203.29,1.311958,504311,24589
1206.81,1.320200,511507,24471
1210.33,1.313505,519078,25219
1213.84,1.316155,527163,25456
1217.35,1.319267,534208,25612
1220.85,1.315418,540472,26143
1225.51,1.322569,549929,26166
1229.01,1.322096,556888,26526
1232.5,1.319075,562180,26965
1235.98,1.321729,567975,27077
1239.46,1.318446,574815,27611
1242.94,1.316414,582782,28125
1246.41,1.317534,591476,28471
1251.03,1.322335,604016,28755
1254.5,1.322005,612289,29171
1257.96,1.316616,619125,29865
1261.41,1.320129,624551,29884
1264.86,1.328773,629900,29546
1268.31,1.324886,634345,30022
1271.75,1.325953,638574,30148
1276.33,1.325914,642499,30336
1279.76,1.323951,645905,30635
1283.19,1.328807,648307,30407
1286.61,1.324308,650446,30825
1290.03,1.323787,652132,30942
1293.44,1.323958,653907,31014
1296.85,1.322836,655963,31192
1301.39,1.324687,657349,31125
1304.8,1.329285,657558,30807
1308.19,1.324119,658515,31221
1311.58,1.324810,658804,31185
1314.97,1.327279,659011,31018
1318.36,1.323028,658272,31288
1321.73,1.326333,658022,31039
1326.23,1.328421,657870,30883
1329.6,1.326394,656482,30962
1332.97,1.323236,654926,31114
1336.33,1.323097,653727,31067
1339.69,1.321232,652497,31142
1343.04,1.330196,649913,30385
1346.39,1.324386,647671,30688
1349.73,1.320405,645338,30859
1354.18,1.324875,641175,30346
1357.52,1.326034,638376,30133
1360.85,1.325740,635805,30032
1364.17,1.322558,633413,30139
1367.49,1.322318,631026,30042
1370.81,1.327349,628050,29556
1374.12,1.325317,625034,29552
1378.54,1.321026,620272,29618
1381.84,1.326182,616892,29109
1385.14,1.327042,613613,28897
1388.43,1.321881,611526,29143
1391.72,1.326545,610663,28791
1395.01,1.323623,610634,28984
1398.29,1.329854,611700,28621
1402.66,1.326391,614051,28961
1405.93,1.322635,616268,29318
1409.2,1.326817,617795,29109
1412.46,1.331455,618872,28850
1415.72,1.326093,619795,29252
1418.98,1.334841,620495,28701
1422.23,1.330635,621087,29008
1426.56,1.325435,621375,29371
1429.8,1.333286,621616,28856
1433.04,1.328542,622129,29197
1436.27,1.332156,621526,28927
1439.5,1.329651,621113,29075
1442.72,1.329576,620921,29071
1445.94,1.325684,620270,29302
1450.23,1.328775,618860,29028
1453.44,1.327943,617697,29029
1456.64,1.331220,616264,28744
1459.85,1.335570,614413,28372
1463.04,1.333697,612307,28397
1466.24,1.336971,610032,28079
1469.43,1.336774,607345,27968
1473.67,1.331932,603789,28116
1476.85,1.333272,601175,27908
1480.02,1.329849,597737,27968
1483.19,1.331547,594479,27707
1486.36,1.327463,591232,27816
1489.52,1.325896,587853,27757
1492.68,1.331527,583875,27214
1496.89,1.338057,578062,26541
1500.03,1.332488,574159,26702
1503.18,1.333059,570285,26487
1506.32,1.340568,565444,25812
1509.45,1.330429,560571,26194
1512.58,1.338446,555821,25497
1515.71,1.331665,550344,25643
1519.87,1.336639,543983,25058
1522.99,1.325916,538764,25438
1526.1,1.332366,533692,24827
1529.21,1.332643,527902,24542
1532.32,1.330684,521886,24372
1535.42,1.335960,515888,23801
1538.51,1.335089,509987,23576
1541.6,1.334479,503936,23329
1545.72,1.328400,494694,23224
1548.8,1.327312,488378,22985
1551.88,1.328480,481832,22616
1554.95,1.337033,474989,21860
1558.02,1.328959,467818,21934
1561.08,1.325668,460730,21766
1564.15,1.331826,454170,21154
1568.22,1.327497,444181,20896
1571.27,1.328993,436947,20485
1574.32,1.328593,429598,20159
1577.36,1.324518,422039,19991
1580.4,1.325936,414375,19564
1583.43,1.331112,406354,18958
1586.46,1.319550,398475,19092
1590.49,1.320720,388982,18587
1593.51,1.330563,380708,17784
1596.53,1.327460,372727,17536
1599.54,1.322414,365060,17376
1602.55,1.318103,357543,17188
1605.55,1.318727,349495,16777
1608.55,1.326854,341154,16073
1612.54,1.321587,330877,15779
1615.53,1.336470,322904,14880
1618.51,1.308167,315116,15499
1621.49,1.321726,307217,14646
1624.47,1.314762,299481,14508
1627.44,1.312741,292112,14217
1630.41,1.311272,284245,13881
1634.36,1.311777,274079,13369
1637.32,1.314306,266916,12944
1640.27,1.311994,259612,12657
1643.22,1.307536,251804,12403
1646.16,1.321161,244348,11664
1649.1,1.312902,236703,11516
1652.04,1.308965,228171,11202
1655.95,1.305179,215408,10668
1658.88,1.291176,204937,10482
1661.8,1.295840,193395,9786
1664.72,1.270809,179728,9634
1667.63,1.224089,163642,9768
1670.54,1.221390,146312,8788
1673.44,1.187624,128451,8339
1677.31,1.186274,105080,6843
1680.21,1.142955,88906,6397
1683.1,1.113851,75033,5773
1685.99,1.116542,63520,4857
1688.87,1.108600,53714,4183
1691.75,1.069631,45653,3889
1694.62,1.122324,39137,2953
1697.49,1.217915,33776,2045
1701.31,1.176863,28175,1875