Folder: textile_sorting_NIRSCAN_/ML/samples/unknown (part 101)

File: Column 1_078715_20241121_171841.csv
Method:,Column 1,,
Host Date-Time:,21/11/24 @ 17:18:41,,
Header Version:,1,,
System Temp (C):,35.59,,
Detector Temp (C):,34.42,,
Humidity (%):,1.56,,
Lamp PD:,3799,,
Shift Vector Coefficients:,-10.5391,0.0761263,-0.000134223,,
Pixel to Wavelength Coefficients:,1775.68,-0.916766,-0.000235065,,
Serial Number:,5510004,,
Scan Config Name:,Column 1,,
Scan Config Type:,Slew,,
Section 1,,
Start wavelength (nm):,900,,
End wavelength (nm):,1700,,
Pattern Pixel Width (nm):,   7.03,,,,
Exposure (ms):,  0.635,,,,
Digital Resolution:,228,,
Num Repeats:,6,,
PGA Gain:,64,,
Total Measurement Time in sec:,  2.720,,
Wavelength (nm),Absorbance (AU),Reference Signal (unitless),Sample Signal (unitless)
901.51,1.312900,108485,5278
905.376,1.301912,121306,6053
909.237,1.336299,131909,6081
913.095,1.345607,143299,6466
916.948,1.319343,156982,7525
922.079,1.316751,179937,8677
925.923,1.307146,200504,9885
929.762,1.329733,222660,10421
933.597,1.329380,244426,11449
937.427,1.326423,263972,12449
941.254,1.302210,281845,14054
945.076,1.304773,297271,14736
950.165,1.306772,315605,15573
953.978,1.322704,328029,15603
957.786,1.324875,340470,16114
961.59,1.310270,352317,17245
965.389,1.308116,363056,17859
969.185,1.308143,373162,18355
972.976,1.305401,382632,18940
976.763,1.306057,391202,19335
981.806,1.309191,400190,19637
985.583,1.302860,406088,20219
989.355,1.304263,410162,20356
993.124,1.312011,412868,20128
996.888,1.308989,414263,20337
1000.65,1.307916,415476,20447
1004.4,1.300883,415479,20781
1009.41,1.309345,414358,20325
1013.15,1.309273,412923,20258
1016.89,1.309110,411526,20197
1020.63,1.305840,409066,20228
1024.36,1.300600,406777,20359
1028.09,1.303839,404427,20091
1031.82,1.302579,401911,20024
1036.78,1.307366,398410,19632
1040.49,1.305796,396204,19594
1044.2,1.301577,394236,19687
1047.91,1.320100,392042,18760
1051.61,1.306911,389823,19229
1055.31,1.297725,388234,19560
1059,1.298682,387599,19485
1063.92,1.304308,386688,19189
1067.61,1.309215,386598,18969
1071.29,1.310616,387377,18946
1074.96,1.310335,388536,19015
1078.63,1.306337,389855,19256
1082.3,1.311610,391215,19090
1085.96,1.315465,393215,19018
1090.84,1.311962,396270,19321
1094.49,1.312261,398760,19429
1098.14,1.313764,400987,19470
1101.79,1.313940,403477,19583
1105.43,1.308860,406116,19943
1109.06,1.314203,407701,19776
1112.7,1.312213,409859,19972
1117.53,1.311682,412494,20125
1121.15,1.324480,414909,19655
1124.77,1.318386,416559,20012
1128.38,1.308452,418532,20572
1131.99,1.313042,419956,20425
1135.6,1.306359,421946,20840
1139.2,1.305977,423881,20954
1143.99,1.313904,426786,20716
1147.58,1.317612,428617,20628
1151.17,1.322724,431169,20508
1154.75,1.319068,433579,20797
1158.33,1.320019,436264,20880
1161.91,1.321100,439132,20965
1165.48,1.315391,442389,21400
1169.04,1.306813,446101,22010
1173.79,1.315957,451929,21833
1177.34,1.317357,456026,21960
1180.9,1.312753,461306,22451
1184.44,1.316146,467657,22583
1187.99,1.316484,473969,22870
1191.52,1.314165,479856,23278
1195.06,1.314452,487372,23627
1199.76,1.312593,497347,24214
1203.29,1.322198,504311,24016
1206.81,1.314768,511507,24779
1210.33,1.318545,519078,24928
1213.84,1.316752,527163,25421
1217.35,1.319013,534208,25627
1220.85,1.323381,540472,25668
1225.51,1.321873,549929,26208
1229.01,1.329460,556888,26080
1232.5,1.317804,562180,27044
1235.98,1.320655,567975,27144
1239.46,1.320211,574815,27499
1242.94,1.313796,582782,28295
1246.41,1.315374,591476,28613
1251.03,1.320030,604016,28908
1254.5,1.321678,612289,29193
1257.96,1.320589,619125,29593
1261.41,1.323089,624551,29681
1264.86,1.316441,629900,30397
1268.31,1.319995,634345,30362
1271.75,1.323869,638574,30293
1276.33,1.330173,642499,30040
1279.76,1.327138,645905,30411
1283.19,1.322610,648307,30844
1286.61,1.327022,650446,30633
1290.03,1.326081,652132,30779
1293.44,1.324982,653907,30941
1296.85,1.327540,655963,30856
1301.39,1.324380,657349,31147
1304.8,1.324323,657558,31161
1308.19,1.325624,658515,31113
1311.58,1.328503,658804,30921
1314.97,1.324919,659011,31187
1318.36,1.330405,658272,30761
1321.73,1.324016,658022,31205
1326.23,1.325477,657870,31093
1329.6,1.332411,656482,30536
1332.97,1.326431,654926,30886
1336.33,1.324119,653727,30994
1339.69,1.324311,652497,30922
1343.04,1.324361,649913,30796
1346.39,1.326912,647671,30510
1349.73,1.326728,645338,30413
1354.18,1.328367,641175,30103
1357.52,1.333418,638376,29625
1360.85,1.324599,635805,30111
1364.17,1.322299,633413,30157
1367.49,1.325161,631026,29846
1370.81,1.330845,628050,29319
1374.12,1.321615,625034,29805
1378.54,1.325063,620272,29344
1381.84,1.327482,616892,29022
1385.14,1.323644,613613,29124
1388.43,1.319518,611526,29302
1391.72,1.326741,610663,28778
1395.01,1.326751,610634,28776
1398.29,1.326453,611700,28846
1402.66,1.322762,614051,29204
1405.93,1.328767,616268,28907
1409.2,1.326593,617795,29124
1412.46,1.329353,618872,28990
1415.72,1.335063,619795,28654
1418.98,1.334524,620495,28722
1422.23,1.329349,621087,29094
1426.56,1.328685,621375,29152
1429.8,1.332339,621616,28919
1433.04,1.333328,622129,28877
1436.27,1.327482,621526,29240
1439.5,1.329591,621113,29079
1442.72,1.333719,620921,28795
1445.94,1.331638,620270,28903
1450.23,1.332487,618860,28781
1453.44,1.332878,617697,28701
1456.64,1.330028,616264,28823
1459.85,1.331685,614413,28627
1463.04,1.326222,612307,28890
1466.24,1.329792,610032,28547
1469.43,1.335100,607345,28076
1473.67,1.331253,603789,28160
1476.85,1.330063,601175,28115
1480.02,1.335161,597737,27628
1483.19,1.330107,594479,27799
1486.36,1.329278,591232,27700
1489.52,1.330505,587853,27464
1492.68,1.332278,583875,27167
1496.89,1.331722,578062,26931
1500.03,1.333857,574159,26618
1503.18,1.331619,570285,26575
1506.32,1.337316,565444,26006
1509.45,1.333357,560571,26018
1512.58,1.341060,555821,25344
1515.71,1.333924,550344,25510
1519.87,1.334288,543983,25194
1522.99,1.338069,538764,24736
1526.1,1.335897,533692,24626
1529.21,1.334630,527902,24430
1532.32,1.334191,521886,24176
1535.42,1.330142,515888,24122
1538.51,1.333728,509987,23650
1541.6,1.330090,503936,23566
1545.72,1.335241,494694,22861
1548.8,1.334033,488378,22632
1551.88,1.334201,481832,22320
1554.95,1.336994,474989,21862
1558.02,1.331899,467818,21786
1561.08,1.332222,460730,21440
1564.15,1.332401,454170,21126
1568.22,1.336760,444181,20455
1571.27,1.331758,436947,20355
1574.32,1.337759,429598,19738
1577.36,1.335518,422039,19491
1580.4,1.328653,414375,19442
1583.43,1.335695,406354,18759
1586.46,1.327817,398475,18732
1590.49,1.324994,388982,18405
1593.51,1.330001,380708,17807
1596.53,1.326446,372727,17577
1599.54,1.326735,365060,17204
1602.55,1.313854,357543,17357
1605.55,1.324014,349495,16574
1608.55,1.322097,341154,16250
1612.54,1.317206,330877,15939
1615.53,1.324751,322904,15287
1618.51,1.318545,315116,15133
1621.49,1.322320,307217,14626
1624.47,1.320548,299481,14316
1627.44,1.317811,292112,14052
1630.41,1.319261,284245,13628
1634.36,1.321633,274079,13069
1637.32,1.318588,266916,12817
1640.27,1.313093,259612,12625
1643.22,1.308482,251804,12376
1646.16,1.316274,244348,11796
1649.1,1.309596,236703,11604
1652.04,1.312429,228171,11113
1655.95,1.294364,215408,10937
1658.88,1.288862,204937,10538
1661.8,1.293362,193395,9842
1664.72,1.262637,179728,9817
1667.63,1.263043,163642,8930
1670.54,1.239040,146312,8438
1673.44,1.202079,128451,8066
1677.31,1.204749,105080,6558
1680.21,1.184755,88906,5810
1683.1,1.166831,75033,5110
1685.99,1.152700,63520,4469
1688.87,1.157216,53714,3740
1691.75,1.135333,45653,3343
1694.62,1.216558,39137,2377
1697.49,1.173540,33776,2265
1701.31,1.226887,28175,1671

File: Column 1_078716_20241121_171844.csv
Method:,Column 1,,
Host Date-Time:,21/11/24 @ 17:18:44,,
Header Version:,1,,
System Temp (C):,35.66,,
Detector Temp (C):,34.42,,
Humidity (%):,1.56,,
Lamp PD:,3800,,
Shift Vector Coefficients:,-10.5391,0.0761263,-0.000134223,,
Pixel to Wavelength Coefficients:,1775.68,-0.916766,-0.000235065,,
Serial Number:,5510004,,
Scan Config Name:,Column 1,,
Scan Config Type:,Slew,,
Section 1,,
Start wavelength (nm):,900,,
End wavelength (nm):,1700,,
Pattern Pixel Width (nm):,   7.03,,,,
Exposure (ms):,  0.635,,,,
Digital Resolution:,228,,
Num Repeats:,6,,
PGA Gain:,64,,
Total Measurement Time in sec:,  2.726,,
Wavelength (nm),Absorbance (AU),Reference Signal (unitless),Sample Signal (unitless)
901.51,1.313559,108485,5270
905.376,1.310242,121306,5938
909.237,1.325020,131909,6241
913.095,1.344869,143299,6477
916.948,1.326266,156982,7406
922.079,1.317803,179937,8656
925.923,1.331172,200504,9353
929.762,1.334131,222660,10316
933.597,1.326620,244426,11522
937.427,1.314280,263972,12802
941.254,1.315419,281845,13633
945.076,1.305599,297271,14708
950.165,1.321954,315605,15038
953.978,1.312009,328029,15992
957.786,1.314648,340470,16498
961.59,1.310170,352317,17249
965.389,1.309163,363056,17816
969.185,1.306655,373162,18418
972.976,1.303685,382632,19015
976.763,1.322725,391202,18607
981.806,1.308329,400190,19676
985.583,1.306701,406088,20041
989.355,1.311318,410162,20028
993.124,1.300891,412868,20650
996.888,1.305183,414263,20516
1000.65,1.314292,415476,20149
1004.4,1.309217,415479,20386
1009.41,1.306980,414358,20436
1013.15,1.303374,412923,20535
1016.89,1.304469,411526,20414
1020.63,1.314777,409066,19816
1024.36,1.316591,406777,19623
1028.09,1.308970,404427,19855
1031.82,1.312606,401911,19567
1036.78,1.308495,398410,19581
1040.49,1.305729,396204,19597
1044.2,1.312071,394236,19217
1047.91,1.318598,392042,18825
1051.61,1.304748,389823,19325
1055.31,1.312195,388234,18919
1059,1.306986,387599,19116
1063.92,1.302637,386688,19263
1067.61,1.310476,386598,18914
1071.29,1.306578,387377,19123
1074.96,1.316917,388536,18729
1078.63,1.314166,389855,18912
1082.3,1.311496,391215,19095
1085.96,1.318720,393215,18876
1090.84,1.316140,396270,19136
1094.49,1.319655,398760,19101
1098.14,1.311695,400987,19563
1101.79,1.311308,403477,19702
1105.43,1.306103,406116,20070
1109.06,1.317510,407701,19626
1112.7,1.314677,409859,19859
1117.53,1.319016,412494,19788
1121.15,1.322012,414909,19767
1124.77,1.310046,416559,20400
1128.38,1.316227,418532,20207
1131.99,1.311619,419956,20492
1135.6,1.314479,421946,20454
1139.2,1.310812,423881,20722
1143.99,1.314093,426786,20707
1147.58,1.324424,428617,20307
1151.17,1.311994,431169,21021
1154.75,1.313734,433579,21054
1158.33,1.321540,436264,20807
1161.91,1.309854,439132,21515
1165.48,1.326344,442389,20867
1169.04,1.315342,446101,21582
1173.79,1.313458,451929,21959
1177.34,1.314755,456026,22092
1180.9,1.313353,461306,22420
1184.44,1.313404,467657,22726
1187.99,1.322334,473969,22564
1191.52,1.319459,479856,22996
1195.06,1.319462,487372,23356
1199.76,1.316883,497347,23976
1203.29,1.315718,504311,24377
1206.81,1.323031,511507,24312
1210.33,1.323292,519078,24657
1213.84,1.315882,527163,25472
1217.35,1.324195,534208,25323
1220.85,1.321170,540472,25799
1225.51,1.316308,549929,26546
1229.01,1.323506,556888,26440
1232.5,1.318560,562180,26997
1235.98,1.321456,567975,27094
1239.46,1.320717,574815,27467
1242.94,1.315889,582782,28159
1246.41,1.323540,591476,28080
1251.03,1.327715,604016,28401
1254.5,1.323631,612289,29062
1257.96,1.320824,619125,29577
1261.41,1.326394,624551,29456
1264.86,1.323484,629900,29908
1268.31,1.321959,634345,30225
1271.75,1.323926,638574,30289
1276.33,1.323872,642499,30479
1279.76,1.327438,645905,30390
1283.19,1.323865,648307,30755
1286.61,1.316946,650446,31352
1290.03,1.332062,652132,30358
1293.44,1.324084,653907,31005
1296.85,1.327906,655963,30830
1301.39,1.328105,657349,30881
1304.8,1.326797,657558,30984
1308.19,1.327681,658515,30966
1311.58,1.324282,658804,31223
1314.97,1.325616,659011,31137
1318.36,1.330899,658272,30726
1321.73,1.323947,658022,31210
1326.23,1.328322,657870,30890
1329.6,1.329858,656482,30716
1332.97,1.334105,654926,30345
1336.33,1.333896,653727,30304
1339.69,1.328644,652497,30615
1343.04,1.328612,649913,30496
1346.39,1.323636,647671,30741
1349.73,1.329105,645338,30247
1354.18,1.325247,641175,30320
1357.52,1.323419,638376,30315
1360.85,1.330758,635805,29687
1364.17,1.326423,633413,29872
1367.49,1.326516,631026,29753
1370.81,1.330016,628050,29375
1374.12,1.324187,625034,29629
1378.54,1.323364,620272,29459
1381.84,1.326331,616892,29099
1385.14,1.325961,613613,28969
1388.43,1.325277,611526,28916
1391.72,1.329998,610663,28563
1395.01,1.322695,610634,29046
1398.29,1.334338,611700,28327
1402.66,1.325372,614051,29029
1405.93,1.329624,616268,28850
1409.2,1.329301,617795,28943
1412.46,1.331621,618872,28839
1415.72,1.326122,619795,29250
1418.98,1.325485,620495,29326
1422.23,1.327116,621087,29244
1426.56,1.332651,621375,28887
1429.8,1.332564,621616,28904
1433.04,1.329480,622129,29134
1436.27,1.335169,621526,28727
1439.5,1.333296,621113,28832
1442.72,1.326970,620921,29246
1445.94,1.329764,620270,29028
1450.23,1.333801,618860,28694
1453.44,1.339388,617697,28274
1456.64,1.328508,616264,28924
1459.85,1.331366,614413,28648
1463.04,1.325726,612307,28923
1466.24,1.337064,610032,28073
1469.43,1.336991,607345,27954
1473.67,1.334814,603789,27930
1476.85,1.334535,601175,27827
1480.02,1.338110,597737,27441
1483.19,1.333731,594479,27568
1486.36,1.338484,591232,27119
1489.52,1.335867,587853,27127
1492.68,1.335294,583875,26979
1496.89,1.333111,578062,26845
1500.03,1.332814,574159,26682
1503.18,1.339501,570285,26097
1506.32,1.335383,565444,26122
1509.45,1.334058,560571,25976
1512.58,1.337187,555821,25571
1515.71,1.333515,550344,25534
1519.87,1.328007,543983,25561
1522.99,1.334816,538764,24922
1526.1,1.336250,533692,24606
1529.21,1.337287,527902,24281
1532.32,1.336858,521886,24028
1535.42,1.334940,515888,23857
1538.51,1.339756,509987,23324
1541.6,1.336700,503936,23210
1545.72,1.330856,494694,23093
1548.8,1.330060,488378,22840
1551.88,1.332493,481832,22408
1554.95,1.336994,474989,21862
1558.02,1.334759,467818,21643
1561.08,1.334272,460730,21339
1564.15,1.332710,454170,21111
1568.22,1.340749,444181,20268
1571.27,1.337038,436947,20109
1574.32,1.327904,429598,20191
1577.36,1.327526,422039,19853
1580.4,1.324872,414375,19612
1583.43,1.328554,406354,19070
1586.46,1.322631,398475,18957
1590.49,1.331244,388982,18142
1593.51,1.331810,380708,17733
1596.53,1.327188,372727,17547
1599.54,1.327341,365060,17180
1602.55,1.327554,357543,16818
1605.55,1.326326,349495,16486
1608.55,1.320443,341154,16312
1612.54,1.323767,330877,15700
1615.53,1.329953,322904,15105
1618.51,1.324585,315116,14924
1621.49,1.330654,307217,14348
1624.47,1.313685,299481,14544
1627.44,1.328449,292112,13712
1630.41,1.324100,284245,13477
1634.36,1.317697,274079,13188
1637.32,1.316459,266916,12880
1640.27,1.310932,259612,12688
1643.22,1.303181,251804,12528
1646.16,1.308791,244348,12001
1649.1,1.314338,236703,11478
1652.04,1.309819,228171,11180
1655.95,1.301571,215408,10757
1658.88,1.289770,204937,10516
1661.8,1.294024,193395,9827
1664.72,1.265834,179728,9745
1667.63,1.259363,163642,9006
1670.54,1.239710,146312,8425
1673.44,1.253703,128451,7162
1677.31,1.239980,105080,6047
1680.21,1.224491,88906,5302
1683.1,1.152043,75033,5287
1685.99,1.136673,63520,4637
1688.87,1.160129,53714,3715
1691.75,1.148522,45653,3243
1694.62,1.185197,39137,2555
1697.49,1.251458,33776,1893
1701.31,1.257296,28175,1558

File: Column 1_078717_20241121_171847.csv
Method:,Column 1,,
Host Date-Time:,21/11/24 @ 17:18:47,,
Header Version:,1,,
System Temp (C):,35.74,,
Detector Temp (C):,34.44,,
Humidity (%):,1.57,,
Lamp PD:,3799,,
Shift Vector Coefficients:,-10.5391,0.0761263,-0.000134223,,
Pixel to Wavelength Coefficients:,1775.68,-0.916766,-0.000235065,,
Serial Number:,5510004,,
Scan Config Name:,Column 1,,
Scan Config Type:,Slew,,
Section 1,,
Start wavelength (nm):,900,,
End wavelength (nm):,1700,,
Pattern Pixel Width (nm):,   7.03,,,,
Exposure (ms):,  0.635,,,,
Digital Resolution:,228,,
Num Repeats:,6,,
PGA Gain:,64,,
Total Measurement Time in sec:,  2.728,,
Wavelength (nm),Absorbance (AU),Reference Signal (unitless),Sample Signal (unitless)
901.51,1.297303,108485,5471
905.376,1.307617,121306,5974
909.237,1.302775,131909,6569
913.095,1.304496,143299,7108
916.948,1.327441,156982,7386
922.079,1.325140,179937,8511
925.923,1.328764,200504,9405
929.762,1.314500,222660,10793
933.597,1.329266,244426,11452
937.427,1.327716,263972,12412
941.254,1.325930,281845,13307
945.076,1.317543,297271,14309
950.165,1.301974,315605,15746
953.978,1.309869,328029,16071
957.786,1.307675,340470,16765
961.59,1.303871,352317,17501
965.389,1.299235,363056,18228
969.185,1.306372,373162,18430
972.976,1.308554,382632,18803
976.763,1.298486,391202,19675
981.806,1.304900,400190,19832
985.583,1.307113,406088,20022
989.355,1.311058,410162,20040
993.124,1.303190,412868,20541
996.888,1.302651,414263,20636
1000.65,1.301884,415476,20733
1004.4,1.304408,415479,20613
1009.41,1.299542,414358,20789
1013.15,1.301517,412923,20623
1016.89,1.300003,411526,20625
1020.63,1.309030,409066,20080
1024.36,1.299513,406777,20410
1028.09,1.299558,404427,20290
1031.82,1.299553,401911,20164
1036.78,1.300627,398410,19939
1040.49,1.302528,396204,19742
1044.2,1.294900,394236,19992
1047.91,1.320795,392042,18730
1051.61,1.305603,389823,19287
1055.31,1.305747,388234,19202
1059,1.309881,387599,18989
1063.92,1.309202,386688,18974
1067.61,1.315581,386598,18693
1071.29,1.311029,387377,18928
1074.96,1.305881,388536,19211
1078.63,1.312790,389855,18972
1082.3,1.312315,391215,19059
1085.96,1.306963,393215,19394
1090.84,1.309362,396270,19437
1094.49,1.306885,398760,19671
1098.14,1.312117,400987,19544
1101.79,1.315962,403477,19492
1105.43,1.310059,406116,19888
1109.06,1.313129,407701,19825
1112.7,1.318720,409859,19675
1117.53,1.310712,412494,20170
1121.15,1.305395,414909,20538
1124.77,1.313187,416559,20253
1128.38,1.308727,418532,20559
1131.99,1.317272,419956,20227
1135.6,1.321133,421946,20143
1139.2,1.315427,423881,20503
1143.99,1.314954,426786,20666
1147.58,1.320421,428617,20495
1151.17,1.310324,431169,21102
1154.75,1.319946,433579,20755
1158.33,1.324451,436264,20668
1161.91,1.318889,439132,21072
1165.48,1.309044,442389,21715
1169.04,1.314758,446101,21611
1173.79,1.315798,451929,21841
1177.34,1.309246,456026,22374
1180.9,1.312811,461306,22448
1184.44,1.312278,467657,22785
1187.99,1.318520,473969,22763
1191.52,1.312304,479856,23378
1195.06,1.316978,487372,23490
1199.76,1.321417,497347,23727
1203.29,1.317539,504311,24275
1206.81,1.322281,511507,24354
1210.33,1.323433,519078,24649
1213.84,1.320114,527163,25225
1217.35,1.321903,534208,25457
1220.85,1.318469,540472,25960
1225.51,1.322403,549929,26176
1229.01,1.313376,556888,27064
1232.5,1.318528,562180,26999
1235.98,1.316943,567975,27377
1239.46,1.317001,574815,27703
1242.94,1.320572,582782,27857
1246.41,1.322150,591476,28170
1251.03,1.327761,604016,28398
1254.5,1.314829,612289,29657
1257.96,1.316470,619125,29875
1261.41,1.319810,624551,29906
1264.86,1.325741,629900,29753
1268.31,1.321514,634345,30256
1271.75,1.321282,638574,30474
1276.33,1.325614,642499,30357
1279.76,1.320154,645905,30904
1283.19,1.322878,648307,30825
1286.61,1.327164,650446,30623
1290.03,1.327948,652132,30647
1293.44,1.323161,653907,31071
1296.85,1.326499,655963,30930
1301.39,1.326981,657349,30961
1304.8,1.331574,657558,30645
1308.19,1.327302,658515,30993
1311.58,1.330332,658804,30791
1314.97,1.329089,659011,30889
1318.36,1.323931,658272,31223
1321.73,1.324197,658022,31192
1326.23,1.325408,657870,31098
1329.6,1.323751,656482,31151
1332.97,1.328955,654926,30707
1336.33,1.328980,653727,30649
1339.69,1.325506,652497,30837
1343.04,1.331241,649913,30312
1346.39,1.324244,647671,30698
1349.73,1.328287,645338,30304
1354.18,1.324046,641175,30404
1357.52,1.327840,638376,30008
1360.85,1.324065,635805,30148
1364.17,1.321134,633413,30238
1367.49,1.325948,631026,29792
1370.81,1.329470,628050,29412
1374.12,1.325596,625034,29533
1378.54,1.326768,620272,29229
1381.84,1.325377,616892,29163
1385.14,1.323808,613613,29113
1388.43,1.323089,611526,29062
1391.72,1.319928,610663,29233
1395.01,1.325982,610634,28827
1398.29,1.328339,611700,28721
1402.66,1.326316,614051,28966
1405.93,1.328992,616268,28892
1409.2,1.320949,617795,29505
1412.46,1.323239,618872,29401
1415.72,1.331155,619795,28913
1418.98,1.328726,620495,29108
1422.23,1.326240,621087,29303
1426.56,1.327183,621375,29253
1429.8,1.332114,621616,28934
1433.04,1.328245,622129,29217
1436.27,1.326755,621526,29289
1439.5,1.334095,621113,28779
1442.72,1.328756,620921,29126
1445.94,1.328792,620270,29093
1450.23,1.329404,618860,28986
1453.44,1.332954,617697,28696
1456.64,1.333978,616264,28562
1459.85,1.324150,614413,29128
1463.04,1.327155,612307,28828
1466.24,1.331377,610032,28443
1469.43,1.334575,607345,28110
1473.67,1.330682,603789,28197
1476.85,1.331300,601175,28035
1480.02,1.332091,597737,27824
1483.19,1.336449,594479,27396
1486.36,1.336487,591232,27244
1489.52,1.336893,587853,27063
1492.68,1.333992,583875,27060
1496.89,1.334277,578062,26773
1500.03,1.330217,574159,26842
1503.18,1.329418,570285,26710
1506.32,1.334619,565444,26168
1509.45,1.329369,560571,26258
1512.58,1.335002,555821,25700
1515.71,1.334656,550344,25467
1519.87,1.328518,543983,25531
1522.99,1.324927,538764,25496
1526.1,1.329577,533692,24987
1529.21,1.336179,527902,24343
1532.32,1.328587,521886,24490
1535.42,1.331892,515888,24025
1538.51,1.327909,509987,23969
1541.6,1.325853,503936,23797
1545.72,1.336421,494694,22799
1548.8,1.331603,488378,22759
1551.88,1.331254,481832,22472
1554.95,1.331329,474989,22149
1558.02,1.331720,467818,21795
1561.08,1.322566,460730,21922
1564.15,1.326947,454170,21393
1568.22,1.327996,444181,20872
1571.27,1.328717,436947,20498
1574.32,1.332467,429598,19980
1577.36,1.329983,422039,19741
1580.4,1.326136,414375,19555
1583.43,1.327053,406354,19136
1586.46,1.324882,398475,18859
1590.49,1.323839,388982,18454
1593.51,1.327399,380708,17914
1596.53,1.326965,372727,17556
1599.54,1.323666,365060,17326
1602.55,1.321629,357543,17049
1605.55,1.319089,349495,16763
1608.55,1.319486,341154,16348
1612.54,1.318406,330877,15895
1615.53,1.316841,322904,15568
1618.51,1.315315,315116,15246
1621.49,1.314609,307217,14888
1624.47,1.320699,299481,14311
1627.44,1.307640,292112,14385
1630.41,1.308683,284245,13964
1634.36,1.322965,274079,13029
1637.32,1.321478,266916,12732
1640.27,1.307251,259612,12796
1643.22,1.304187,251804,12499
1646.16,1.306014,244348,12078
1649.1,1.302211,236703,11803
1652.04,1.313016,228171,11098
1655.95,1.317274,215408,10375
1658.88,1.286151,204937,10604
1661.8,1.266706,193395,10465
1664.72,1.271350,179728,9622
1667.63,1.258688,163642,9020
1670.54,1.240897,146312,8402
1673.44,1.215087,128451,7828
1677.31,1.172162,105080,7069
1680.21,1.165313,88906,6076
1683.1,1.201494,75033,4718
1685.99,1.176057,63520,4235
1688.87,1.146209,53714,3836
1691.75,1.196772,45653,2902
1694.62,1.122618,39137,2951
1697.49,1.121047,33776,2556
1701.31,1.197254,28175,1789