Folder: textile_sorting_NIRSCAN_/ML/samples/unknown (part 105)

File: Column 1_078746_20241121_172011.csv
Method:,Column 1,,
Host Date-Time:,21/11/24 @ 17:20:11,,
Header Version:,1,,
System Temp (C):,36.36,,
Detector Temp (C):,34.72,,
Humidity (%):,1.17,,
Lamp PD:,3799,,
Shift Vector Coefficients:,-10.5391,0.0761263,-0.000134223,,
Pixel to Wavelength Coefficients:,1775.68,-0.916766,-0.000235065,,
Serial Number:,5510004,,
Scan Config Name:,Column 1,,
Scan Config Type:,Slew,,
Section 1,,
Start wavelength (nm):,900,,
End wavelength (nm):,1700,,
Pattern Pixel Width (nm):,   7.03,,,,
Exposure (ms):,  0.635,,,,
Digital Resolution:,228,,
Num Repeats:,6,,
PGA Gain:,64,,
Total Measurement Time in sec:,  2.724,,
Wavelength (nm),Absorbance (AU),Reference Signal (unitless),Sample Signal (unitless)
901.51,1.298416,108485,5457
905.376,1.309950,121306,5942
909.237,1.302445,131909,6574
913.095,1.299393,143299,7192
916.948,1.318479,156982,7540
922.079,1.329654,179937,8423
925.923,1.323943,200504,9510
929.762,1.323403,222660,10574
933.597,1.314649,244426,11844
937.427,1.305947,263972,13050
941.254,1.302458,281845,14046
945.076,1.298366,297271,14955
950.165,1.302608,315605,15723
953.978,1.314351,328029,15906
957.786,1.312861,340470,16566
961.59,1.310094,352317,17252
965.389,1.306514,363056,17925
969.185,1.304749,373162,18499
972.976,1.301475,382632,19112
976.763,1.293025,391202,19924
981.806,1.303566,400190,19893
985.583,1.306852,406088,20034
989.355,1.295205,410162,20785
993.124,1.308957,412868,20270
996.888,1.300677,414263,20730
1000.65,1.304320,415476,20617
1004.4,1.298798,415479,20881
1009.41,1.303656,414358,20593
1013.15,1.297931,412923,20794
1016.89,1.303746,411526,20448
1020.63,1.297863,409066,20603
1024.36,1.303017,406777,20246
1028.09,1.305181,404427,20029
1031.82,1.306326,401911,19852
1036.78,1.301739,398410,19888
1040.49,1.308085,396204,19491
1044.2,1.309143,394236,19347
1047.91,1.298272,392042,19727
1051.61,1.297991,389823,19628
1055.31,1.298636,388234,19519
1059,1.307349,387599,19100
1063.92,1.298441,386688,19450
1067.61,1.304841,386598,19161
1071.29,1.298612,387377,19477
1074.96,1.308034,388536,19116
1078.63,1.313523,389855,18940
1082.3,1.306768,391215,19304
1085.96,1.312076,393215,19167
1090.84,1.307044,396270,19541
1094.49,1.310699,398760,19499
1098.14,1.306948,400987,19778
1101.79,1.309636,403477,19778
1105.43,1.306991,406116,20029
1109.06,1.310203,407701,19959
1112.7,1.312213,409859,19972
1117.53,1.324916,412494,19521
1121.15,1.316793,414909,20006
1124.77,1.318495,416559,20007
1128.38,1.312503,418532,20381
1131.99,1.320613,419956,20072
1135.6,1.308574,421946,20734
1139.2,1.319384,423881,20317
1143.99,1.314639,426786,20681
1147.58,1.313693,428617,20815
1151.17,1.322872,431169,20501
1154.75,1.312601,433579,21109
1158.33,1.307452,436264,21493
1161.91,1.302488,439132,21883
1165.48,1.311330,442389,21601
1169.04,1.310280,446101,21835
1173.79,1.307487,451929,22263
1177.34,1.311503,456026,22258
1180.9,1.322021,461306,21977
1184.44,1.306579,467657,23086
1187.99,1.309271,473969,23253
1191.52,1.312824,479856,23350
1195.06,1.313919,487372,23656
1199.76,1.318425,497347,23891
1203.29,1.309878,504311,24707
1206.81,1.310287,511507,25036
1210.33,1.321342,519078,24768
1213.84,1.308645,527163,25900
1217.35,1.318521,534208,25656
1220.85,1.315119,540472,26161
1225.51,1.315997,549929,26565
1229.01,1.315709,556888,26919
1232.5,1.318673,562180,26990
1235.98,1.315724,567975,27454
1239.46,1.317535,574815,27669
1242.94,1.316089,582782,28146
1246.41,1.319170,591476,28364
1251.03,1.316142,604016,29168
1254.5,1.323004,612289,29104
1257.96,1.314787,619125,29991
1261.41,1.321177,624551,29812
1264.86,1.327613,629900,29625
1268.31,1.320110,634345,30354
1271.75,1.321809,638574,30437
1276.33,1.325886,642499,30338
1279.76,1.323483,645905,30668
1283.19,1.327353,648307,30509
1286.61,1.344391,650446,29432
1290.03,1.323956,652132,30930
1293.44,1.328279,653907,30707
1296.85,1.320850,655963,31335
1301.39,1.324003,657349,31174
1304.8,1.324169,657558,31172
1308.19,1.325024,658515,31156
1311.58,1.329023,658804,30884
1314.97,1.330300,659011,30803
1318.36,1.323541,658272,31251
1321.73,1.331088,658022,30701
1326.23,1.324821,657870,31140
1329.6,1.328602,656482,30805
1332.97,1.328517,654926,30738
1336.33,1.321701,653727,31167
1339.69,1.324227,652497,30928
1343.04,1.321423,649913,31005
1346.39,1.322240,647671,30840
1349.73,1.323314,645338,30653
1354.18,1.328713,641175,30079
1357.52,1.328926,638376,29933
1360.85,1.326101,635805,30007
1364.17,1.320933,633413,30252
1367.49,1.321596,631026,30092
1370.81,1.320757,628050,30008
1374.12,1.318074,625034,30049
1378.54,1.321481,620272,29587
1381.84,1.321478,616892,29426
1385.14,1.316266,613613,29623
1388.43,1.314010,611526,29676
1391.72,1.321730,610663,29112
1395.01,1.322545,610634,29056
1398.29,1.326619,611700,28835
1402.66,1.329385,614051,28762
1405.93,1.325593,616268,29119
1409.2,1.326668,617795,29119
1412.46,1.326545,618872,29178
1415.72,1.330165,619795,28979
1418.98,1.324435,620495,29397
1422.23,1.321406,621087,29631
1426.56,1.324726,621375,29419
1429.8,1.329540,621616,29106
1433.04,1.331348,622129,29009
1436.27,1.325097,621526,29401
1439.5,1.333989,621113,28786
1442.72,1.323038,620921,29512
1445.94,1.329868,620270,29021
1450.23,1.331251,618860,28863
1453.44,1.326927,617697,29097
1456.64,1.331597,616264,28719
1459.85,1.327007,614413,28937
1463.04,1.325201,612307,28958
1466.24,1.329336,610032,28577
1469.43,1.325024,607345,28735
1473.67,1.331021,603789,28175
1476.85,1.323684,601175,28531
1480.02,1.332981,597737,27767
1483.19,1.327832,594479,27945
1486.36,1.327635,591232,27805
1489.52,1.331883,587853,27377
1492.68,1.331081,583875,27242
1496.89,1.333580,578062,26816
1500.03,1.337264,574159,26410
1503.18,1.325856,570285,26930
1506.32,1.334072,565444,26201
1509.45,1.336052,560571,25857
1512.58,1.335289,555821,25683
1515.71,1.329756,550344,25756
1519.87,1.328807,543983,25514
1522.99,1.333372,538764,25005
1526.1,1.325873,533692,25201
1529.21,1.330296,527902,24675
1532.32,1.329670,521886,24429
1535.42,1.328435,515888,24217
1538.51,1.333343,509987,23671
1541.6,1.329905,503936,23576
1545.72,1.323491,494694,23488
1548.8,1.333745,488378,22647
1551.88,1.335624,481832,22247
1554.95,1.324385,474989,22506
1558.02,1.330665,467818,21848
1561.08,1.322071,460730,21947
1564.15,1.328655,454170,21309
1568.22,1.329935,444181,20779
1571.27,1.325740,436947,20639
1574.32,1.327303,429598,20219
1577.36,1.324996,422039,19969
1580.4,1.329122,414375,19421
1583.43,1.321797,406354,19369
1586.46,1.314034,398475,19336
1590.49,1.324687,388982,18418
1593.51,1.319948,380708,18224
1596.53,1.336064,372727,17192
1599.54,1.320668,365060,17446
1602.55,1.331002,357543,16685
1605.55,1.324958,349495,16538
1608.55,1.320390,341154,16314
1612.54,1.330317,330877,15465
1615.53,1.318798,322904,15498
1618.51,1.317342,315116,15175
1621.49,1.308871,307217,15086
1624.47,1.323714,299481,14212
1627.44,1.319794,292112,13988
1630.41,1.308465,284245,13971
1634.36,1.305360,274079,13568
1637.32,1.319165,266916,12800
1640.27,1.307251,259612,12796
1643.22,1.301900,251804,12565
1646.16,1.309624,244348,11978
1649.1,1.309072,236703,11618
1652.04,1.300442,228171,11424
1655.95,1.298954,215408,10822
1658.88,1.277473,204937,10818
1661.8,1.263193,193395,10550
1664.72,1.265656,179728,9749
1667.63,1.240397,163642,9408
1670.54,1.235555,146312,8506
1673.44,1.212652,128451,7872
1677.31,1.161841,105080,7239
1680.21,1.178668,88906,5892
1683.1,1.146980,75033,5349
1685.99,1.186855,63520,4131
1688.87,1.144288,53714,3853
1691.75,1.144523,45653,3273
1694.62,1.139116,39137,2841
1697.49,1.105526,33776,2649
1701.31,1.147317,28175,2007

File: Column 1_078747_20241121_172014.csv
Method:,Column 1,,
Host Date-Time:,21/11/24 @ 17:20:14,,
Header Version:,1,,
System Temp (C):,36.37,,
Detector Temp (C):,34.73,,
Humidity (%):,1.17,,
Lamp PD:,3799,,
Shift Vector Coefficients:,-10.5391,0.0761263,-0.000134223,,
Pixel to Wavelength Coefficients:,1775.68,-0.916766,-0.000235065,,
Serial Number:,5510004,,
Scan Config Name:,Column 1,,
Scan Config Type:,Slew,,
Section 1,,
Start wavelength (nm):,900,,
End wavelength (nm):,1700,,
Pattern Pixel Width (nm):,   7.03,,,,
Exposure (ms):,  0.635,,,,
Digital Resolution:,228,,
Num Repeats:,6,,
PGA Gain:,64,,
Total Measurement Time in sec:,  2.727,,
Wavelength (nm),Absorbance (AU),Reference Signal (unitless),Sample Signal (unitless)
901.51,1.284707,108485,5632
905.376,1.292964,121306,6179
909.237,1.300994,131909,6596
913.095,1.289897,143299,7351
916.948,1.305094,156982,7776
922.079,1.320673,179937,8599
925.923,1.305218,200504,9929
929.762,1.310894,222660,10883
933.597,1.317592,244426,11764
937.427,1.315911,263972,12754
941.254,1.310698,281845,13782
945.076,1.303008,297271,14796
950.165,1.306493,315605,15583
953.978,1.320013,328029,15700
957.786,1.308661,340470,16727
961.59,1.306534,352317,17394
965.389,1.299664,363056,18210
969.185,1.303975,373162,18532
972.976,1.309317,382632,18770
976.763,1.301899,391202,19521
981.806,1.299113,400190,20098
985.583,1.302474,406088,20237
989.355,1.304455,410162,20347
993.124,1.305352,412868,20439
996.888,1.302819,414263,20628
1000.65,1.310601,415476,20321
1004.4,1.302096,415479,20723
1009.41,1.302687,414358,20639
1013.15,1.303628,412923,20523
1016.89,1.306880,411526,20301
1020.63,1.296537,409066,20666
1024.36,1.304521,406777,20176
1028.09,1.297977,404427,20364
1031.82,1.307136,401911,19815
1036.78,1.304697,398410,19753
1040.49,1.296845,396204,20002
1044.2,1.306881,394236,19448
1047.91,1.303766,392042,19479
1051.61,1.307317,389823,19211
1055.31,1.305453,388234,19215
1059,1.303952,387599,19250
1063.92,1.306600,386688,19088
1067.61,1.301050,386598,19329
1071.29,1.306147,387377,19142
1074.96,1.309901,388536,19034
1078.63,1.309143,389855,19132
1082.3,1.317681,391215,18825
1085.96,1.308353,393215,19332
1090.84,1.309228,396270,19443
1094.49,1.306951,398760,19668
1098.14,1.309679,400987,19654
1101.79,1.304116,403477,20031
1105.43,1.306969,406116,20030
1109.06,1.311641,407701,19893
1112.7,1.313934,409859,19893
1117.53,1.314866,412494,19978
1121.15,1.306538,414909,20484
1124.77,1.312202,416559,20299
1128.38,1.311715,418532,20418
1131.99,1.314618,419956,20351
1135.6,1.314394,421946,20458
1139.2,1.319876,423881,20294
1143.99,1.311542,426786,20829
1147.58,1.307047,428617,21136
1151.17,1.303484,431169,21437
1154.75,1.314642,433579,21010
1158.33,1.310209,436264,21357
1161.91,1.307539,439132,21630
1165.48,1.311672,442389,21584
1169.04,1.306715,446101,22015
1173.79,1.316972,451929,21782
1177.34,1.310841,456026,22292
1180.9,1.315314,461306,22319
1184.44,1.312488,467657,22774
1187.99,1.315877,473969,22902
1191.52,1.309102,479856,23551
1195.06,1.319406,487372,23359
1199.76,1.316865,497347,23977
1203.29,1.311869,504311,24594
1206.81,1.311068,511507,24991
1210.33,1.311563,519078,25332
1213.84,1.322895,527163,25064
1217.35,1.314209,534208,25912
1220.85,1.316682,540472,26067
1225.51,1.325818,549929,25971
1229.01,1.316581,556888,26865
1232.5,1.311586,562180,27434
1235.98,1.317245,567975,27358
1239.46,1.318855,574815,27585
1242.94,1.317945,582782,28026
1246.41,1.321811,591476,28192
1251.03,1.321716,604016,28796
1254.5,1.324753,612289,28987
1257.96,1.323889,619125,29369
1261.41,1.317088,624551,30094
1264.86,1.321442,629900,30049
1268.31,1.321471,634345,30259
1271.75,1.325737,638574,30163
1276.33,1.322364,642499,30585
1279.76,1.323356,645905,30677
1283.19,1.326045,648307,30601
1286.61,1.322719,650446,30938
1290.03,1.322568,652132,31029
1293.44,1.323426,653907,31052
1296.85,1.321238,655963,31307
1301.39,1.321434,657349,31359
1304.8,1.320410,657558,31443
1308.19,1.322287,658515,31353
1311.58,1.326471,658804,31066
1314.97,1.322946,659011,31329
1318.36,1.330137,658272,30780
1321.73,1.328310,658022,30898
1326.23,1.326344,657870,31031
1329.6,1.323584,656482,31163
1332.97,1.320370,654926,31320
1336.33,1.328484,653727,30684
1339.69,1.322098,652497,31080
1343.04,1.324714,649913,30771
1346.39,1.320077,647671,30994
1349.73,1.318005,645338,31030
1354.18,1.319103,641175,30752
1357.52,1.323004,638376,30344
1360.85,1.316879,635805,30651
1364.17,1.322673,633413,30131
1367.49,1.325132,631026,29848
1370.81,1.324274,628050,29766
1374.12,1.321192,625034,29834
1378.54,1.316998,620272,29894
1381.84,1.323875,616892,29264
1385.14,1.321680,613613,29256
1388.43,1.316961,611526,29475
1391.72,1.324138,610663,28951
1395.01,1.329704,610634,28581
1398.29,1.323318,611700,29055
1402.66,1.324371,614051,29096
1405.93,1.328541,616268,28922
1409.2,1.325387,617795,29205
1412.46,1.324511,618872,29315
1415.72,1.322853,619795,29471
1418.98,1.319879,620495,29707
1422.23,1.330395,621087,29024
1426.56,1.326783,621375,29280
1429.8,1.330137,621616,29066
1433.04,1.329033,622129,29164
1436.27,1.330119,621526,29063
1439.5,1.325208,621113,29374
1442.72,1.325813,620921,29324
1445.94,1.328360,620270,29122
1450.23,1.329734,618860,28964
1453.44,1.325482,617697,29194
1456.64,1.332612,616264,28652
1459.85,1.334729,614413,28427
1463.04,1.333299,612307,28423
1466.24,1.335720,610032,28160
1469.43,1.329582,607345,28435
1473.67,1.324261,603789,28617
1476.85,1.332526,601175,27956
1480.02,1.324969,597737,28284
1483.19,1.336719,594479,27379
1486.36,1.330456,591232,27625
1489.52,1.333679,587853,27264
1492.68,1.328189,583875,27424
1496.89,1.332400,578062,26889
1500.03,1.333971,574159,26611
1503.18,1.326437,570285,26894
1506.32,1.333360,565444,26244
1509.45,1.336994,560571,25801
1512.58,1.327679,555821,26137
1515.71,1.332343,550344,25603
1519.87,1.332929,543983,25273
1522.99,1.332574,538764,25051
1526.1,1.324548,533692,25278
1529.21,1.328207,527902,24794
1532.32,1.330524,521886,24381
1535.42,1.330665,515888,24093
1538.51,1.330946,509987,23802
1541.6,1.329942,503936,23574
1545.72,1.329955,494694,23141
1548.8,1.326858,488378,23009
1551.88,1.324371,481832,22831
1554.95,1.329158,474989,22260
1558.02,1.342841,467818,21244
1561.08,1.333398,460730,21382
1564.15,1.330657,454170,21211
1568.22,1.329559,444181,20797
1571.27,1.328484,436947,20509
1574.32,1.331663,429598,20017
1577.36,1.328096,422039,19827
1580.4,1.321409,414375,19769
1583.43,1.328577,406354,19069
1586.46,1.320506,398475,19050
1590.49,1.323298,388982,18477
1593.51,1.317524,380708,18326
1596.53,1.319485,372727,17861
1599.54,1.319128,365060,17508
1602.55,1.320713,357543,17085
1605.55,1.321896,349495,16655
1608.55,1.316626,341154,16456
1612.54,1.333700,330877,15345
1615.53,1.331248,322904,15060
1618.51,1.313921,315116,15295
1621.49,1.314959,307217,14876
1624.47,1.316712,299481,14443
1627.44,1.318832,292112,14019
1630.41,1.319484,284245,13621
1634.36,1.303699,274079,13620
1637.32,1.306624,266916,13175
1640.27,1.311445,259612,12673
1643.22,1.302904,251804,12536
1646.16,1.301578,244348,12202
1649.1,1.301256,236703,11829
1652.04,1.296883,228171,11518
1655.95,1.286962,215408,11125
1658.88,1.286724,204937,10590
1661.8,1.283416,193395,10070
1664.72,1.267039,179728,9718
1667.63,1.246300,163642,9281
1670.54,1.233263,146312,8551
1673.44,1.201326,128451,8080
1677.31,1.192281,105080,6749
1680.21,1.166387,88906,6061
1683.1,1.151961,75033,5288
1685.99,1.176160,63520,4234
1688.87,1.102005,53714,4247
1691.75,1.168248,45653,3099
1694.62,1.193433,39137,2507
1697.49,1.164433,33776,2313
1701.31,1.146884,28175,2009

File: Column 1_078750_20241121_172023.csv
Method:,Column 1,,
Host Date-Time:,21/11/24 @ 17:20:23,,
Header Version:,1,,
System Temp (C):,36.48,,
Detector Temp (C):,34.81,,
Humidity (%):,1.27,,
Lamp PD:,3798,,
Shift Vector Coefficients:,-10.5391,0.0761263,-0.000134223,,
Pixel to Wavelength Coefficients:,1775.68,-0.916766,-0.000235065,,
Serial Number:,5510004,,
Scan Config Name:,Column 1,,
Scan Config Type:,Slew,,
Section 1,,
Start wavelength (nm):,900,,
End wavelength (nm):,1700,,
Pattern Pixel Width (nm):,   7.03,,,,
Exposure (ms):,  0.635,,,,
Digital Resolution:,228,,
Num Repeats:,6,,
PGA Gain:,64,,
Total Measurement Time in sec:,  2.664,,
Wavelength (nm),Absorbance (AU),Reference Signal (unitless),Sample Signal (unitless)
901.51,1.306691,108485,5354
905.376,1.327855,121306,5702
909.237,1.331399,131909,6150
913.095,1.356489,143299,6306
916.948,1.337373,156982,7219
922.079,1.338772,179937,8248
925.923,1.328580,200504,9409
929.762,1.326660,222660,10495
933.597,1.324626,244426,11575
937.427,1.324301,263972,12510
941.254,1.309691,281845,13814
945.076,1.324488,297271,14082
950.165,1.313064,315605,15349
953.978,1.308628,328029,16117
957.786,1.306770,340470,16800
961.59,1.314649,352317,17072
965.389,1.309627,363056,17797
969.185,1.318511,373162,17922
972.976,1.317280,382632,18429
976.763,1.309303,391202,19191
981.806,1.308904,400190,19650
985.583,1.315037,406088,19660
989.355,1.314626,410162,19876
993.124,1.306160,412868,20401
996.888,1.305056,414263,20522
1000.65,1.300796,415476,20785
1004.4,1.313649,415479,20179
1009.41,1.309987,414358,20295
1013.15,1.304136,412923,20499
1016.89,1.306880,411526,20301
1020.63,1.310937,409066,19992
1024.36,1.307675,406777,20030
1028.09,1.305007,404427,20037
1031.82,1.314652,401911,19475
1036.78,1.309806,398410,19522
1040.49,1.301715,396204,19779
1044.2,1.306368,394236,19471
1047.91,1.312231,392042,19103
1051.61,1.310380,389823,19076
1055.31,1.309267,388234,19047
1059,1.313948,387599,18812
1063.92,1.311911,386688,18856
1067.61,1.308826,386598,18986
1071.29,1.312017,387377,18885
1074.96,1.312327,388536,18928
1078.63,1.309711,389855,19107
1082.3,1.318073,391215,18808
1085.96,1.306784,393215,19402
1090.84,1.310212,396270,19399
1094.49,1.315289,398760,19294
1098.14,1.318835,400987,19244
1101.79,1.318846,403477,19363
1105.43,1.320736,406116,19405
1109.06,1.310247,407701,19957
1112.7,1.320467,409859,19596
1117.53,1.311682,412494,20125
1121.15,1.321244,414909,19802
1124.77,1.322288,416559,19833
1128.38,1.320221,418532,20022
1131.99,1.317981,419956,20194
1135.6,1.320831,421946,20157
1139.2,1.310289,423881,20747
1143.99,1.318774,426786,20485
1147.58,1.322887,428617,20379
1151.17,1.318866,431169,20691
1154.75,1.315387,433579,20974
1158.33,1.328186,436264,20491
1161.91,1.319797,439132,21028
1165.48,1.315188,442389,21410
1169.04,1.317520,446101,21474
1173.79,1.318010,451929,21730
1177.34,1.322830,456026,21685
1180.9,1.312386,461306,22470
1184.44,1.314859,467657,22650
1187.99,1.319112,473969,22732
1191.52,1.323462,479856,22785
1195.06,1.319871,487372,23334
1199.76,1.317064,497347,23966
1203.29,1.328280,504311,23682
1206.81,1.321177,511507,24416
1210.33,1.321061,519078,24784
1213.84,1.325257,527163,24928
1217.35,1.320643,534208,25531
1220.85,1.321036,540472,25807
1225.51,1.319444,549929,26355
1229.01,1.324724,556888,26366
1232.5,1.327992,562180,26417
1235.98,1.323142,567975,26989
1239.46,1.317880,574815,27647
1242.94,1.328803,582782,27334
1246.41,1.324826,591476,27997
1251.03,1.321445,604016,28814
1254.5,1.322184,612289,29159
1257.96,1.329126,619125,29017
1261.41,1.326542,624551,29446
1264.86,1.317385,629900,30331
1268.31,1.325045,634345,30011
1271.75,1.322466,638574,30391
1276.33,1.333656,642499,29800
1279.76,1.329242,645905,30264
1283.19,1.327282,648307,30514
1286.61,1.324139,650446,30837
1290.03,1.326957,652132,30717
1293.44,1.333085,653907,30369
1296.85,1.325980,655963,30967
1301.39,1.328062,657349,30884
1304.8,1.326152,657558,31030
1308.19,1.323368,658515,31275
1311.58,1.329431,658804,30855
1314.97,1.325616,659011,31137
1318.36,1.328475,658272,30898
1321.73,1.326921,658022,30997
1326.23,1.332447,657870,30598
1329.6,1.329787,656482,30721
1332.97,1.330272,654926,30614
1336.33,1.323699,653727,31024
1339.69,1.329411,652497,30561
1343.04,1.329539,649913,30431
1346.39,1.329353,647671,30339
1349.73,1.323314,645338,30653
1354.18,1.322549,641175,30509
1357.52,1.320392,638376,30527
1360.85,1.324455,635805,30121
1364.17,1.329179,633413,29683
1367.49,1.331109,631026,29440
1370.81,1.329913,628050,29382
1374.12,1.324069,625034,29637
1378.54,1.319431,620272,29727
1381.84,1.327826,616892,28999
1385.14,1.323763,613613,29116
1388.43,1.322835,611526,29079
1391.72,1.326379,610663,28802
1395.01,1.326766,610634,28775
1398.29,1.321066,611700,29206
1402.66,1.327848,614051,28864
1405.93,1.326893,616268,29032
1409.2,1.329376,617795,28938
1412.46,1.330658,618872,28903
1415.72,1.332629,619795,28815
1418.98,1.330820,620495,28968
1422.23,1.321553,621087,29621
1426.56,1.328760,621375,29147
1429.8,1.333467,621616,28844
1433.04,1.328408,622129,29206
1436.27,1.331886,621526,28945
1439.5,1.332092,621113,28912
1442.72,1.329606,620921,29069
1445.94,1.327049,620270,29210
1450.23,1.338335,618860,28396
1453.44,1.336403,617697,28469
1456.64,1.333082,616264,28621
1459.85,1.326752,614413,28954
1463.04,1.332841,612307,28453
1466.24,1.331927,610032,28407
1469.43,1.331864,607345,28286
1473.67,1.333665,603789,28004
1476.85,1.335675,601175,27754
1480.02,1.335239,597737,27623
1483.19,1.338945,594479,27239
1486.36,1.330173,591232,27643
1489.52,1.336524,587853,27086
1492.68,1.336648,583875,26895
1496.89,1.333402,578062,26827
1500.03,1.339176,574159,26294
1503.18,1.329483,570285,26706
1506.32,1.332781,565444,26279
1509.45,1.337129,560571,25793
1512.58,1.335746,555821,25656
1515.71,1.330313,550344,25723
1519.87,1.335860,543983,25103
1522.99,1.331241,538764,25128
1526.1,1.337629,533692,24528
1529.21,1.331318,527902,24617
1532.32,1.337582,521886,23988
1535.42,1.344399,515888,23343
1538.51,1.331786,509987,23756
1541.6,1.328765,503936,23638
1545.72,1.330499,494694,23112
1548.8,1.344305,488378,22103
1551.88,1.338936,481832,22078
1554.95,1.334774,474989,21974
1558.02,1.328524,467818,21956
1561.08,1.336006,460730,21254
1564.15,1.332936,454170,21100
1568.22,1.333040,444181,20631
1571.27,1.326815,436947,20588
1574.32,1.326101,429598,20275
1577.36,1.334428,422039,19540
1580.4,1.334703,414375,19173
1583.43,1.334031,406354,18831
1586.46,1.322082,398475,18981
1590.49,1.336277,388982,17933
1593.51,1.331418,380708,17749
1596.53,1.331366,372727,17379
1599.54,1.332938,365060,16960
1602.55,1.325827,357543,16885
1605.55,1.326616,349495,16475
1608.55,1.316362,341154,16466
1612.54,1.318871,330877,15878
1615.53,1.319022,322904,15490
1618.51,1.320040,315116,15081
1621.49,1.322023,307217,14636
1624.47,1.313685,299481,14544
1627.44,1.318337,292112,14035
1630.41,1.323295,284245,13502
1634.36,1.309735,274079,13432
1637.32,1.309933,266916,13075
1640.27,1.319016,259612,12454
1643.22,1.311687,251804,12285
1646.16,1.306770,244348,12057
1649.1,1.314678,236703,11469
1652.04,1.317856,228171,10975
1655.95,1.307956,215408,10600
1658.88,1.299585,204937,10281
1661.8,1.290284,193395,9912
1664.72,1.298303,179728,9043
1667.63,1.260909,163642,8974
1670.54,1.250091,146312,8226
1673.44,1.235824,128451,7463
1677.31,1.198829,105080,6648
1680.21,1.192219,88906,5711
1683.1,1.195370,75033,4785
1685.99,1.158177,63520,4413
1688.87,1.161886,53714,3700
1691.75,1.130681,45653,3379
1694.62,1.182993,39137,2568
1697.49,1.248713,33776,1905
1701.31,1.178487,28175,1868