Folder: textile_sorting_NIRSCAN_/ML/samples/unknown (part 73)

File: Column 1_078510_20241121_170613.csv
Method:,Column 1,,
Host Date-Time:,21/11/24 @ 17:6:13,,
Header Version:,1,,
System Temp (C):,34.66,,
Detector Temp (C):,33.83,,
Humidity (%):,2.05,,
Lamp PD:,3800,,
Shift Vector Coefficients:,-10.5391,0.0761263,-0.000134223,,
Pixel to Wavelength Coefficients:,1775.68,-0.916766,-0.000235065,,
Serial Number:,5510004,,
Scan Config Name:,Column 1,,
Scan Config Type:,Slew,,
Section 1,,
Start wavelength (nm):,900,,
End wavelength (nm):,1700,,
Pattern Pixel Width (nm):,   7.03,,,,
Exposure (ms):,  0.635,,,,
Digital Resolution:,228,,
Num Repeats:,6,,
PGA Gain:,64,,
Total Measurement Time in sec:,  2.726,,
Wavelength (nm),Absorbance (AU),Reference Signal (unitless),Sample Signal (unitless)
901.51,1.343758,108485,4916
905.376,1.342888,121306,5508
909.237,1.314094,131909,6400
913.095,1.321124,143299,6841
916.948,1.341058,156982,7158
922.079,1.340936,179937,8207
925.923,1.320395,200504,9588
929.762,1.312613,222660,10840
933.597,1.317703,244426,11761
937.427,1.310564,263972,12912
941.254,1.326714,281845,13283
945.076,1.324334,297271,14087
950.165,1.317700,315605,15186
953.978,1.310329,328029,16054
957.786,1.321760,340470,16230
961.59,1.314369,352317,17083
965.389,1.314017,363056,17618
969.185,1.314267,373162,18098
972.976,1.298644,382632,19237
976.763,1.313442,391202,19009
981.806,1.307888,400190,19696
985.583,1.312087,406088,19794
989.355,1.301074,410162,20506
993.124,1.318949,412868,19809
996.888,1.312915,414263,20154
1000.65,1.304405,415476,20613
1004.4,1.315202,415479,20107
1009.41,1.310693,414358,20262
1013.15,1.317343,412923,19885
1016.89,1.308981,411526,20203
1020.63,1.310047,409066,20033
1024.36,1.312494,406777,19809
1028.09,1.307638,404427,19916
1031.82,1.315836,401911,19422
1036.78,1.312797,398410,19388
1040.49,1.305907,396204,19589
1044.2,1.314973,394236,19089
1047.91,1.308699,392042,19259
1051.61,1.319444,389823,18682
1055.31,1.313207,388234,18875
1059,1.311898,387599,18901
1063.92,1.310463,386688,18919
1067.61,1.310660,386598,18906
1071.29,1.309426,387377,18998
1074.96,1.316917,388536,18729
1078.63,1.314694,389855,18889
1082.3,1.321667,391215,18653
1085.96,1.317181,393215,18943
1090.84,1.310346,396270,19393
1094.49,1.314884,398760,19312
1098.14,1.314546,400987,19435
1101.79,1.306944,403477,19901
1105.43,1.314647,406116,19679
1109.06,1.312363,407701,19860
1112.7,1.308855,409859,20127
1117.53,1.320291,412494,19730
1121.15,1.321880,414909,19773
1124.77,1.312630,416559,20279
1128.38,1.326756,418532,19723
1131.99,1.314042,419956,20378
1135.6,1.316117,421946,20377
1139.2,1.319833,423881,20296
1143.99,1.322650,426786,20303
1147.58,1.318244,428617,20598
1151.17,1.315354,431169,20859
1154.75,1.318671,433579,20816
1158.33,1.312677,436264,21236
1161.91,1.326520,439132,20705
1165.48,1.323420,442389,21008
1169.04,1.315221,446101,21588
1173.79,1.318871,451929,21687
1177.34,1.317931,456026,21931
1180.9,1.318223,461306,22170
1184.44,1.319970,467657,22385
1187.99,1.318902,473969,22743
1191.52,1.317856,479856,23081
1195.06,1.322916,487372,23171
1199.76,1.321252,497347,23736
1203.29,1.319925,504311,24142
1206.81,1.315944,511507,24712
1210.33,1.320116,519078,24838
1213.84,1.324266,527163,24985
1217.35,1.329007,534208,25044
1220.85,1.323940,540472,25635
1225.51,1.344352,549929,24886
1229.01,1.317990,556888,26778
1232.5,1.321141,562180,26837
1235.98,1.322323,567975,27040
1239.46,1.319485,574815,27545
1242.94,1.322071,582782,27761
1246.41,1.319936,591476,28314
1251.03,1.327761,604016,28398
1254.5,1.323422,612289,29076
1257.96,1.327841,619125,29103
1261.41,1.327738,624551,29365
1264.86,1.327789,629900,29613
1268.31,1.332769,634345,29482
1271.75,1.328597,638574,29965
1276.33,1.328053,642499,30187
1279.76,1.328540,645905,30313
1283.19,1.329264,648307,30375
1286.61,1.328926,650446,30499
1290.03,1.330805,652132,30446
1293.44,1.333729,653907,30324
1296.85,1.331101,655963,30604
1301.39,1.329584,657349,30776
1304.8,1.327245,657558,30952
1308.19,1.332234,658515,30643
1311.58,1.330968,658804,30746
1314.97,1.333768,659011,30558
1318.36,1.332528,658272,30611
1321.73,1.335053,658022,30422
1326.23,1.331313,657870,30678
1329.6,1.329575,656482,30736
1332.97,1.335927,654926,30218
1336.33,1.333195,653727,30353
1339.69,1.331448,652497,30418
1343.04,1.332460,649913,30227
1346.39,1.334668,647671,29970
1349.73,1.332304,645338,30025
1354.18,1.328785,641175,30074
1357.52,1.331298,638376,29770
1360.85,1.331578,635805,29631
1364.17,1.331497,633413,29525
1367.49,1.329799,631026,29529
1370.81,1.326703,628050,29600
1374.12,1.326612,625034,29464
1378.54,1.327973,620272,29148
1381.84,1.325213,616892,29174
1385.14,1.329362,613613,28743
1388.43,1.328866,611526,28678
1391.72,1.332881,610663,28374
1395.01,1.332753,610634,28381
1398.29,1.331526,611700,28511
1402.66,1.329657,614051,28744
1405.93,1.332054,616268,28689
1409.2,1.335512,617795,28532
1412.46,1.334673,618872,28637
1415.72,1.336307,619795,28572
1418.98,1.335159,620495,28680
1422.23,1.334499,621087,28751
1426.56,1.333072,621375,28859
1429.8,1.336125,621616,28668
1433.04,1.332832,622129,28910
1436.27,1.337200,621526,28593
1439.5,1.336213,621113,28639
1442.72,1.337217,620921,28564
1445.94,1.330018,620270,29011
1450.23,1.329659,618860,28969
1453.44,1.338023,617697,28363
1456.64,1.333128,616264,28618
1459.85,1.335877,614413,28352
1463.04,1.341163,612307,27913
1466.24,1.340839,610032,27830
1469.43,1.331526,607345,28308
1473.67,1.332519,603789,28078
1476.85,1.336882,601175,27677
1480.02,1.335397,597737,27613
1483.19,1.337942,594479,27302
1486.36,1.336009,591232,27274
1489.52,1.335403,587853,27156
1492.68,1.341112,583875,26620
1496.89,1.336065,578062,26663
1500.03,1.342142,574159,26115
1503.18,1.345180,570285,25758
1506.32,1.338972,565444,25907
1509.45,1.345596,560571,25295
1512.58,1.343448,555821,25205
1515.71,1.339492,550344,25185
1519.87,1.339177,543983,24912
1522.99,1.344757,538764,24358
1526.1,1.335650,533692,24640
1529.21,1.337788,527902,24253
1532.32,1.339305,521886,23893
1535.42,1.327486,515888,24270
1538.51,1.327927,509987,23968
1541.6,1.343451,503936,22852
1545.72,1.337756,494694,22729
1548.8,1.336053,488378,22527
1551.88,1.335410,481832,22258
1554.95,1.339924,474989,21715
1558.02,1.326806,467818,22043
1561.08,1.336783,460730,21216
1564.15,1.336553,454170,20925
1568.22,1.329789,444181,20786
1571.27,1.343544,436947,19810
1574.32,1.334296,429598,19896
1577.36,1.332986,422039,19605
1580.4,1.331184,414375,19329
1583.43,1.338319,406354,18646
1586.46,1.333300,398475,18497
1590.49,1.336155,388982,17938
1593.51,1.330148,380708,17801
1596.53,1.329670,372727,17447
1599.54,1.331150,365060,17030
1602.55,1.326342,357543,16865
1605.55,1.335376,349495,16146
1608.55,1.319805,341154,16336
1612.54,1.330963,330877,15442
1615.53,1.343088,322904,14655
1618.51,1.325780,315116,14883
1621.49,1.312920,307217,14946
1624.47,1.326719,299481,14114
1627.44,1.317410,292112,14065
1630.41,1.330986,284245,13265
1634.36,1.322398,274079,13046
1637.32,1.314709,266916,12932
1640.27,1.312200,259612,12651
1643.22,1.307221,251804,12412
1646.16,1.327500,244348,11495
1649.1,1.317947,236703,11383
1652.04,1.316710,228171,11004
1655.95,1.306606,215408,10633
1658.88,1.302382,204937,10215
1661.8,1.304038,193395,9603
1664.72,1.275067,179728,9540
1667.63,1.272831,163642,8731
1670.54,1.244635,146312,8330
1673.44,1.212322,128451,7878
1677.31,1.193247,105080,6734
1680.21,1.192371,88906,5709
1683.1,1.150321,75033,5308
1685.99,1.153965,63520,4456
1688.87,1.177419,53714,3570
1691.75,1.154455,45653,3199
1694.62,1.208055,39137,2424
1697.49,1.211799,33776,2074
1701.31,1.197496,28175,1788

File: Column 1_078511_20241121_170616.csv
Method:,Column 1,,
Host Date-Time:,21/11/24 @ 17:6:16,,
Header Version:,1,,
System Temp (C):,34.65,,
Detector Temp (C):,33.87,,
Humidity (%):,2.05,,
Lamp PD:,3800,,
Shift Vector Coefficients:,-10.5391,0.0761263,-0.000134223,,
Pixel to Wavelength Coefficients:,1775.68,-0.916766,-0.000235065,,
Serial Number:,5510004,,
Scan Config Name:,Column 1,,
Scan Config Type:,Slew,,
Section 1,,
Start wavelength (nm):,900,,
End wavelength (nm):,1700,,
Pattern Pixel Width (nm):,   7.03,,,,
Exposure (ms):,  0.635,,,,
Digital Resolution:,228,,
Num Repeats:,6,,
PGA Gain:,64,,
Total Measurement Time in sec:,  2.726,,
Wavelength (nm),Absorbance (AU),Reference Signal (unitless),Sample Signal (unitless)
901.51,1.328652,108485,5090
905.376,1.288698,121306,6240
909.237,1.311861,131909,6433
913.095,1.329715,143299,6707
916.948,1.317788,156982,7552
922.079,1.317202,179937,8668
925.923,1.312807,200504,9757
929.762,1.307594,222660,10966
933.597,1.323877,244426,11595
937.427,1.321360,263972,12595
941.254,1.309628,281845,13816
945.076,1.304743,297271,14737
950.165,1.302747,315605,15718
953.978,1.310329,328029,16054
957.786,1.319731,340470,16306
961.59,1.307209,352317,17367
965.389,1.318776,363056,17426
969.185,1.313715,373162,18121
972.976,1.314812,382632,18534
976.763,1.310981,391202,19117
981.806,1.311964,400190,19512
985.583,1.301831,406088,20267
989.355,1.307217,410162,20218
993.124,1.309536,412868,20243
996.888,1.309331,414263,20321
1000.65,1.307874,415476,20449
1004.4,1.308281,415479,20430
1009.41,1.302561,414358,20645
1013.15,1.299123,412923,20737
1016.89,1.307929,411526,20252
1020.63,1.301228,409066,20444
1024.36,1.310132,406777,19917
1028.09,1.299729,404427,20282
1031.82,1.313050,401911,19547
1036.78,1.306968,398410,19650
1040.49,1.311485,396204,19339
1044.2,1.309457,394236,19333
1047.91,1.299197,392042,19685
1051.61,1.303693,389823,19372
1055.31,1.307810,388234,19111
1059,1.320179,387599,18544
1063.92,1.308242,386688,19016
1067.61,1.302062,386598,19284
1071.29,1.305331,387377,19178
1074.96,1.305949,388536,19208
1078.63,1.311145,389855,19044
1082.3,1.309590,391215,19179
1085.96,1.307097,393215,19388
1090.84,1.306134,396270,19582
1094.49,1.310855,398760,19492
1098.14,1.308620,400987,19702
1101.79,1.315294,403477,19522
1105.43,1.316860,406116,19579
1109.06,1.317289,407701,19636
1112.7,1.319405,409859,19644
1117.53,1.313672,412494,20033
1121.15,1.314692,414909,20103
1124.77,1.317086,416559,20072
1128.38,1.321307,418532,19972
1131.99,1.324307,419956,19902
1135.6,1.316330,421946,20367
1139.2,1.316976,423881,20430
1143.99,1.310792,426786,20865
1147.58,1.310740,428617,20957
1151.17,1.316104,431169,20823
1154.75,1.320092,433579,20748
1158.33,1.321415,436264,20813
1161.91,1.317983,439132,21116
1165.48,1.312659,442389,21535
1169.04,1.315301,446101,21584
1173.79,1.316056,451929,21828
1177.34,1.311211,456026,22273
1180.9,1.317069,461306,22229
1184.44,1.316916,467657,22543
1187.99,1.317758,473969,22803
1191.52,1.318704,479856,23036
1195.06,1.317644,487372,23454
1199.76,1.320868,497347,23757
1203.29,1.313905,504311,24479
1206.81,1.314768,511507,24779
1210.33,1.326067,519078,24500
1213.84,1.323415,527163,25034
1217.35,1.321733,534208,25467
1220.85,1.322182,540472,25739
1225.51,1.323716,549929,26097
1229.01,1.323063,556888,26467
1232.5,1.325533,562180,26567
1235.98,1.331165,567975,26495
1239.46,1.319328,574815,27555
1242.94,1.324770,582782,27589
1246.41,1.316179,591476,28560
1251.03,1.323394,604016,28685
1254.5,1.320875,612289,29247
1257.96,1.323712,619125,29381
1261.41,1.323954,624551,29622
1264.86,1.326179,629900,29723
1268.31,1.325639,634345,29970
1271.75,1.325837,638574,30156
1276.33,1.330230,642499,30036
1279.76,1.327710,645905,30371
1283.19,1.325790,648307,30619
1286.61,1.327788,650446,30579
1290.03,1.331662,652132,30386
1293.44,1.331245,653907,30498
1296.85,1.328837,655963,30764
1301.39,1.326532,657349,30993
1304.8,1.331844,657558,30626
1308.19,1.321871,658515,31383
1311.58,1.328924,658804,30891
1314.97,1.335705,659011,30422
1318.36,1.332741,658272,30596
1321.73,1.329859,658022,30788
1326.23,1.329575,657870,30801
1329.6,1.328588,656482,30806
1332.97,1.328079,654926,30769
1336.33,1.328810,653727,30661
1339.69,1.330151,652497,30509
1343.04,1.330840,649913,30340
1346.39,1.325974,647671,30576
1349.73,1.329349,645338,30230
1354.18,1.326625,641175,30224
1357.52,1.330409,638376,29831
1360.85,1.323389,635805,30195
1364.17,1.329985,633413,29628
1367.49,1.324100,631026,29919
1370.81,1.324741,628050,29734
1374.12,1.330699,625034,29188
1378.54,1.330184,620272,29000
1381.84,1.318272,616892,29644
1385.14,1.326681,613613,28921
1388.43,1.326902,611526,28808
1391.72,1.326650,610663,28784
1395.01,1.323937,610634,28963
1398.29,1.328173,611700,28732
1402.66,1.325866,614051,28996
1405.93,1.326818,616268,29037
1409.2,1.331889,617795,28771
1412.46,1.328290,618872,29061
1415.72,1.334245,619795,28708
1418.98,1.333316,620495,28802
1422.23,1.326626,621087,29277
1426.56,1.330791,621375,29011
1429.8,1.333166,621616,28864
1433.04,1.331482,622129,29000
1436.27,1.333374,621526,28846
1439.5,1.333296,621113,28832
1442.72,1.337309,620921,28558
1445.94,1.328912,620270,29085
1450.23,1.333332,618860,28725
1453.44,1.333257,617697,28676
1456.64,1.333507,616264,28593
1459.85,1.333509,614413,28507
1463.04,1.336951,612307,28185
1466.24,1.334980,610032,28208
1469.43,1.334837,607345,28093
1473.67,1.329437,603789,28278
1476.85,1.335785,601175,27747
1480.02,1.332387,597737,27805
1483.19,1.336434,594479,27397
1486.36,1.330471,591232,27624
1489.52,1.334716,587853,27199
1492.68,1.339158,583875,26740
1496.89,1.330000,578062,27038
1500.03,1.339423,574159,26279
1503.18,1.342792,570285,25900
1506.32,1.334221,565444,26192
1509.45,1.334309,560571,25961
1512.58,1.337391,555821,25559
1515.71,1.340615,550344,25120
1519.87,1.330324,543983,25425
1522.99,1.328931,538764,25262
1526.1,1.340792,533692,24350
1529.21,1.333387,527902,24500
1532.32,1.333348,521886,24223
1535.42,1.337166,515888,23735
1538.51,1.330836,509987,23808
1541.6,1.333011,503936,23408
1545.72,1.330199,494694,23128
1548.8,1.335513,488378,22555
1551.88,1.334513,481832,22304
1554.95,1.332901,474989,22069
1558.02,1.330566,467818,21853
1561.08,1.334863,460730,21310
1564.15,1.329512,454170,21267
1568.22,1.330563,444181,20749
1571.27,1.321073,436947,20862
1574.32,1.337737,429598,19739
1577.36,1.328337,422039,19816
1580.4,1.338274,414375,19016
1583.43,1.324880,406354,19232
1586.46,1.325597,398475,18828
1590.49,1.333164,388982,18062
1593.51,1.319972,380708,18223
1596.53,1.333119,372727,17309
1599.54,1.334606,365060,16895
1602.55,1.322420,357543,17018
1605.55,1.315400,349495,16906
1608.55,1.322712,341154,16227
1612.54,1.322193,330877,15757
1615.53,1.330298,322904,15093
1618.51,1.322669,315116,14990
1621.49,1.320098,307217,14701
1624.47,1.314193,299481,14527
1627.44,1.311034,292112,14273
1630.41,1.318274,284245,13659
1634.36,1.300553,274079,13719
1637.32,1.314776,266916,12930
1640.27,1.314748,259612,12577
1643.22,1.309255,251804,12354
1646.16,1.318785,244348,11728
1649.1,1.316690,236703,11416
1652.04,1.309353,228171,11192
1655.95,1.298593,215408,10831
1658.88,1.294838,204937,10394
1661.8,1.266250,193395,10476
1664.72,1.277258,179728,9492
1667.63,1.269264,163642,8803
1670.54,1.230428,146312,8607
1673.44,1.226612,128451,7623
1677.31,1.193247,105080,6734
1680.21,1.185428,88906,5801
1683.1,1.177326,75033,4988
1685.99,1.135644,63520,4648
1688.87,1.146889,53714,3830
1691.75,1.135723,45653,3340
1694.62,1.198486,39137,2478
1697.49,1.112301,33776,2608
1701.31,1.169058,28175,1909

File: Column 1_078514_20241121_170625.csv
Method:,Column 1,,
Host Date-Time:,21/11/24 @ 17:6:25,,
Header Version:,1,,
System Temp (C):,34.7,,
Detector Temp (C):,33.84,,
Humidity (%):,1.91,,
Lamp PD:,3800,,
Shift Vector Coefficients:,-10.5391,0.0761263,-0.000134223,,
Pixel to Wavelength Coefficients:,1775.68,-0.916766,-0.000235065,,
Serial Number:,5510004,,
Scan Config Name:,Column 1,,
Scan Config Type:,Slew,,
Section 1,,
Start wavelength (nm):,900,,
End wavelength (nm):,1700,,
Pattern Pixel Width (nm):,   7.03,,,,
Exposure (ms):,  0.635,,,,
Digital Resolution:,228,,
Num Repeats:,6,,
PGA Gain:,64,,
Total Measurement Time in sec:,  2.668,,
Wavelength (nm),Absorbance (AU),Reference Signal (unitless),Sample Signal (unitless)
901.51,1.327800,108485,5100
905.376,1.354151,121306,5367
909.237,1.327953,131909,6199
913.095,1.328809,143299,6721
916.948,1.312813,156982,7639
922.079,1.328058,179937,8454
925.923,1.337157,200504,9225
929.762,1.322009,222660,10608
933.597,1.322829,244426,11623
937.427,1.320843,263972,12610
941.254,1.327696,281845,13253
945.076,1.318485,297271,14278
950.165,1.310075,315605,15455
953.978,1.307928,328029,16143
957.786,1.319758,340470,16305
961.59,1.322245,352317,16776
965.389,1.311829,363056,17707
969.185,1.310968,373162,18236
972.976,1.311846,382632,18661
976.763,1.315411,391202,18923
981.806,1.315002,400190,19376
985.583,1.309047,406088,19933
989.355,1.304092,410162,20364
993.124,1.304630,412868,20473
996.888,1.310572,414263,20263
1000.65,1.304152,415476,20625
1004.4,1.313542,415479,20184
1009.41,1.309944,414358,20297
1013.15,1.304815,412923,20467
1016.89,1.304937,411526,20392
1020.63,1.310221,409066,20025
1024.36,1.309893,406777,19928
1028.09,1.301166,404427,20215
1031.82,1.315724,401911,19427
1036.78,1.311589,398410,19442
1040.49,1.300662,396204,19827
1044.2,1.309502,394236,19331
1047.91,1.311050,392042,19155
1051.61,1.311178,389823,19041
1055.31,1.314866,388234,18803
1059,1.320039,387599,18550
1063.92,1.319392,386688,18534
1067.61,1.314931,386598,18721
1071.29,1.315596,387377,18730
1074.96,1.315528,388536,18789
1078.63,1.311373,389855,19034
1082.3,1.316552,391215,18874
1085.96,1.310719,393215,19227
1090.84,1.318096,396270,19050
1094.49,1.317795,398760,19183
1098.14,1.317056,400987,19323
1101.79,1.317458,403477,19425
1105.43,1.314162,406116,19701
1109.06,1.320597,407701,19487
1112.7,1.327415,409859,19285
1117.53,1.313954,412494,20020
1121.15,1.311721,414909,20241
1124.77,1.312074,416559,20305
1128.38,1.322352,418532,19924
1131.99,1.322543,419956,19983
1135.6,1.316138,421946,20376
1139.2,1.307243,423881,20893
1143.99,1.321155,426786,20373
1147.58,1.316414,428617,20685
1151.17,1.324273,431169,20435
1154.75,1.316693,433579,20911
1158.33,1.318130,436264,20971
1161.91,1.316792,439132,21174
1165.48,1.320083,442389,21170
1169.04,1.320341,446101,21335
1173.79,1.316534,451929,21804
1177.34,1.317614,456026,21947
1180.9,1.314789,461306,22346
1184.44,1.320203,467657,22373
1187.99,1.320969,473969,22635
1191.52,1.323843,479856,22765
1195.06,1.329298,487372,22833
1199.76,1.323747,497347,23600
1203.29,1.325593,504311,23829
1206.81,1.313281,511507,24864
1210.33,1.326279,519078,24488
1213.84,1.320079,527163,25227
1217.35,1.325071,534208,25272
1220.85,1.324754,540472,25587
1225.51,1.324316,549929,26061
1229.01,1.329244,556888,26093
1232.5,1.320010,562180,26907
1235.98,1.322949,567975,27001
1239.46,1.319769,574815,27527
1242.94,1.317806,582782,28035
1246.41,1.324903,591476,27992
1251.03,1.328143,604016,28373
1254.5,1.326645,612289,28861
1257.96,1.328991,619125,29026
1261.41,1.328938,624551,29284
1264.86,1.327745,629900,29616
1268.31,1.324221,634345,30068
1271.75,1.329163,638574,29926
1276.33,1.332027,642499,29912
1279.76,1.330147,645905,30201
1283.19,1.333200,648307,30101
1286.61,1.329652,650446,30448
1290.03,1.329509,652132,30537
1293.44,1.334461,653907,30273
1296.85,1.328202,655963,30809
1301.39,1.323433,657349,31215
1304.8,1.326895,657558,30977
1308.19,1.326141,658515,31076
1311.58,1.334870,658804,30471
1314.97,1.328260,659011,30948
1318.36,1.332485,658272,30614
1321.73,1.324796,658022,31149
1326.23,1.333883,657870,30497
1329.6,1.332738,656482,30513
1332.97,1.334649,654926,30307
1336.33,1.337436,653727,30058
1339.69,1.335406,652497,30142
1343.04,1.330983,649913,30330
1346.39,1.335596,647671,29906
1349.73,1.326500,645338,30429
1354.18,1.331916,641175,29858
1357.52,1.334740,638376,29535
1360.85,1.334637,635805,29423
1364.17,1.334419,633413,29327
1367.49,1.325088,631026,29851
1370.81,1.328290,628050,29492
1374.12,1.329214,625034,29288
1378.54,1.324959,620272,29351
1381.84,1.327272,616892,29036
1385.14,1.326922,613613,28905
1388.43,1.331738,611526,28489
1391.72,1.331140,610663,28488
1395.01,1.331592,610634,28457
1398.29,1.321602,611700,29170
1402.66,1.327758,614051,28870
1405.93,1.332327,616268,28671
1409.2,1.329766,617795,28912
1412.46,1.335053,618872,28612
1415.72,1.333504,619795,28757
1418.98,1.329772,620495,29038
1422.23,1.338551,621087,28484
1426.56,1.332651,621375,28887
1429.8,1.336216,621616,28662
1433.04,1.332172,622129,28954
1436.27,1.334837,621526,28749
1439.5,1.332303,621113,28898
1442.72,1.335079,620921,28705
1445.94,1.332269,620270,28861
1450.23,1.340282,618860,28269
1453.44,1.339066,617697,28295
1456.64,1.336189,616264,28417
1459.85,1.340884,614413,28027
1463.04,1.337445,612307,28153
1466.24,1.339593,610032,27910
1469.43,1.335456,607345,28053
1473.67,1.333200,603789,28034
1476.85,1.340474,601175,27449
1480.02,1.337130,597737,27503
1483.19,1.332866,594479,27623
1486.36,1.334198,591232,27388
1489.52,1.333615,587853,27268
1492.68,1.339679,583875,26708
1496.89,1.337844,578062,26554
1500.03,1.341893,574159,26130
1503.18,1.341503,570285,25977
1506.32,1.334155,565444,26196
1509.45,1.342653,560571,25467
1512.58,1.335661,555821,25661
1515.71,1.341983,550344,25041
1519.87,1.334806,543983,25164
1522.99,1.342463,538764,24487
1526.1,1.337398,533692,24541
1529.21,1.336554,527902,24322
1532.32,1.340160,521886,23846
1535.42,1.343284,515888,23403
1538.51,1.333581,509987,23658
1541.6,1.330145,503936,23563
1545.72,1.332533,494694,23004
1548.8,1.334917,488378,22586
1551.88,1.331177,481832,22476
1554.95,1.332940,474989,22067
1558.02,1.340801,467818,21344
1561.08,1.332343,460730,21434
1564.15,1.342088,454170,20660
1568.22,1.328433,444181,20851
1571.27,1.331608,436947,20362
1574.32,1.338177,429598,19719
1577.36,1.324975,422039,19970
1580.4,1.337932,414375,19031
1583.43,1.329968,406354,19008
1586.46,1.324491,398475,18876
1590.49,1.327763,388982,18288
1593.51,1.327957,380708,17891
1596.53,1.330941,372727,17396
1599.54,1.328683,365060,17127
1602.55,1.332776,357543,16617
1605.55,1.326879,349495,16465
1608.55,1.321109,341154,16287
1612.54,1.322607,330877,15742
1615.53,1.327058,322904,15206
1618.51,1.327300,315116,14831
1621.49,1.324284,307217,14560
1624.47,1.311689,299481,14611
1627.44,1.324162,292112,13848
1630.41,1.313499,284245,13810
1634.36,1.337161,274079,12610
1637.32,1.320184,266916,12770
1640.27,1.311960,259612,12658
1643.22,1.313423,251804,12236
1646.16,1.311805,244348,11918
1649.1,1.308998,236703,11620
1652.04,1.308384,228171,11217
1655.95,1.292027,215408,10996
1658.88,1.292920,204937,10440
1661.8,1.291600,193395,9882
1664.72,1.298447,179728,9040
1667.63,1.263920,163642,8912
1670.54,1.248405,146312,8258
1673.44,1.228438,128451,7591
1677.31,1.200138,105080,6628
1680.21,1.166387,88906,6061
1683.1,1.216859,75033,4554
1685.99,1.139115,63520,4611
1688.87,1.265747,53714,2913
1691.75,1.185690,45653,2977
1694.62,1.133346,39137,2879
1697.49,1.190949,33776,2176
1701.31,1.269738,28175,1514