Folder: textile_sorting_NIRSCAN_/ML/samples/unknown (part 59)

File: Column 1_078401_20241121_170052.csv
Method:,Column 1,,
Host Date-Time:,21/11/24 @ 17:0:52,,
Header Version:,1,,
System Temp (C):,34.7,,
Detector Temp (C):,33.88,,
Humidity (%):,2.45,,
Lamp PD:,3803,,
Shift Vector Coefficients:,-10.5391,0.0761263,-0.000134223,,
Pixel to Wavelength Coefficients:,1775.68,-0.916766,-0.000235065,,
Serial Number:,5510004,,
Scan Config Name:,Column 1,,
Scan Config Type:,Slew,,
Section 1,,
Start wavelength (nm):,900,,
End wavelength (nm):,1700,,
Pattern Pixel Width (nm):,   7.03,,,,
Exposure (ms):,  0.635,,,,
Digital Resolution:,228,,
Num Repeats:,6,,
PGA Gain:,64,,
Total Measurement Time in sec:,  2.727,,
Wavelength (nm),Absorbance (AU),Reference Signal (unitless),Sample Signal (unitless)
901.51,1.331048,108485,5062
905.376,1.351489,121306,5400
909.237,1.325996,131909,6227
913.095,1.326104,143299,6763
916.948,1.328206,156982,7373
922.079,1.318808,179937,8636
925.923,1.329319,200504,9393
929.762,1.312333,222660,10847
933.597,1.324589,244426,11576
937.427,1.322015,263972,12576
941.254,1.320836,281845,13464
945.076,1.317756,297271,14302
950.165,1.327769,315605,14838
953.978,1.322955,328029,15594
957.786,1.321680,340470,16233
961.59,1.322012,352317,16785
965.389,1.314461,363056,17600
969.185,1.310492,373162,18256
972.976,1.310591,382632,18715
976.763,1.314036,391202,18983
981.806,1.310498,400190,19578
985.583,1.307894,406088,19986
989.355,1.309176,410162,20127
993.124,1.309644,412868,20238
996.888,1.313864,414263,20110
1000.65,1.306792,415476,20500
1004.4,1.308706,415479,20410
1009.41,1.304374,414358,20559
1013.15,1.311400,412923,20159
1016.89,1.316331,411526,19864
1020.63,1.306378,409066,20203
1024.36,1.312911,406777,19790
1028.09,1.309934,404427,19811
1031.82,1.312118,401911,19589
1036.78,1.310162,398410,19506
1040.49,1.311642,396204,19332
1044.2,1.315725,394236,19056
1047.91,1.306809,392042,19343
1051.61,1.312983,389823,18962
1055.31,1.313874,388234,18846
1059,1.315358,387599,18751
1063.92,1.316356,386688,18664
1067.61,1.317630,386598,18605
1071.29,1.314716,387377,18768
1074.96,1.318752,388536,18650
1078.63,1.315615,389855,18849
1082.3,1.316736,391215,18866
1085.96,1.317663,393215,18922
1090.84,1.312546,396270,19295
1094.49,1.323515,398760,18932
1098.14,1.314278,400987,19447
1101.79,1.318398,403477,19383
1105.43,1.322373,406116,19332
1109.06,1.320931,407701,19472
1112.7,1.319626,409859,19634
1117.53,1.317351,412494,19864
1121.15,1.319449,414909,19884
1124.77,1.318386,416559,20012
1128.38,1.314040,418532,20309
1131.99,1.311895,419956,20479
1135.6,1.323034,421946,20055
1139.2,1.322495,423881,20172
1143.99,1.320410,426786,20408
1147.58,1.325409,428617,20261
1151.17,1.315854,431169,20835
1154.75,1.319026,433579,20799
1158.33,1.314829,436264,21131
1161.91,1.326142,439132,20723
1165.48,1.320166,442389,21166
1169.04,1.321115,446101,21297
1173.79,1.315023,451929,21880
1177.34,1.321351,456026,21759
1180.9,1.323386,461306,21908
1184.44,1.321253,467657,22319
1187.99,1.323317,473969,22513
1191.52,1.315979,479856,23181
1195.06,1.318719,487372,23396
1199.76,1.330218,497347,23251
1203.29,1.322976,504311,23973
1206.81,1.321586,511507,24393
1210.33,1.323169,519078,24664
1213.84,1.326147,527163,24877
1217.35,1.320336,534208,25549
1220.85,1.321372,540472,25787
1225.51,1.327393,549929,25877
1229.01,1.323424,556888,26445
1232.5,1.324879,562180,26607
1235.98,1.326357,567975,26790
1239.46,1.322047,574815,27383
1242.94,1.326695,582782,27467
1246.41,1.318191,591476,28428
1251.03,1.330753,604016,28203
1254.5,1.329605,612289,28665
1257.96,1.326395,619125,29200
1261.41,1.333110,624551,29004
1264.86,1.332552,629900,29290
1268.31,1.326538,634345,29908
1271.75,1.329075,638574,29932
1276.33,1.332390,642499,29887
1279.76,1.328511,645905,30315
1283.19,1.326755,648307,30551
1286.61,1.328897,650446,30501
1290.03,1.327324,652132,30691
1293.44,1.328731,653907,30675
1296.85,1.336140,655963,30251
1301.39,1.332643,657349,30560
1304.8,1.333677,657558,30497
1308.19,1.331880,658515,30668
1311.58,1.331137,658804,30734
1314.97,1.332590,659011,30641
1318.36,1.327647,658272,30957
1321.73,1.332108,658022,30629
1326.23,1.331285,657870,30680
1329.6,1.334993,656482,30355
1332.97,1.328022,654926,30773
1336.33,1.331111,653727,30499
1339.69,1.336936,652497,30036
1343.04,1.331958,649913,30262
1346.39,1.333553,647671,30047
1349.73,1.332637,645338,30002
1354.18,1.329494,641175,30025
1357.52,1.327594,638376,30025
1360.85,1.330407,635805,29711
1364.17,1.335843,633413,29231
1367.49,1.326779,631026,29735
1370.81,1.327275,628050,29561
1374.12,1.328532,625034,29334
1378.54,1.326620,620272,29239
1381.84,1.332948,616892,28659
1385.14,1.330952,613613,28638
1388.43,1.332974,611526,28408
1391.72,1.327768,610663,28710
1395.01,1.326072,610634,28821
1398.29,1.331252,611700,28529
1402.66,1.332188,614051,28577
1405.93,1.337600,616268,28325
1409.2,1.332902,617795,28704
1412.46,1.332963,618872,28750
1415.72,1.337357,619795,28503
1418.98,1.333406,620495,28796
1422.23,1.335089,621087,28712
1426.56,1.337413,621375,28572
1429.8,1.338647,621616,28502
1433.04,1.331078,622129,29027
1436.27,1.333856,621526,28814
1439.5,1.338997,621113,28456
1442.72,1.332575,620921,28871
1445.94,1.333581,620270,28774
1450.23,1.337434,618860,28455
1453.44,1.336480,617697,28464
1456.64,1.332430,616264,28664
1459.85,1.335479,614413,28378
1463.04,1.339594,612307,28014
1466.24,1.341714,610032,27774
1469.43,1.339219,607345,27811
1473.67,1.342501,603789,27440
1476.85,1.337746,601175,27622
1480.02,1.333263,597737,27749
1483.19,1.335341,594479,27466
1486.36,1.332899,591232,27470
1489.52,1.342627,587853,26708
1492.68,1.342010,583875,26565
1496.89,1.341194,578062,26350
1500.03,1.341345,574159,26163
1503.18,1.335757,570285,26323
1506.32,1.340888,565444,25793
1509.45,1.340153,560571,25614
1512.58,1.336424,555821,25616
1515.71,1.338390,550344,25249
1519.87,1.338376,543983,24958
1522.99,1.337455,538764,24771
1526.1,1.338107,533692,24501
1529.21,1.335342,527902,24390
1532.32,1.343121,521886,23684
1535.42,1.337825,515888,23699
1538.51,1.341360,509987,23238
1541.6,1.337337,503936,23176
1545.72,1.343624,494694,22424
1548.8,1.330212,488378,22832
1551.88,1.335136,481832,22272
1554.95,1.337908,474989,21816
1558.02,1.336146,467818,21574
1561.08,1.328912,460730,21604
1564.15,1.329124,454170,21286
1568.22,1.334685,444181,20553
1571.27,1.341750,436947,19892
1574.32,1.339633,429598,19653
1577.36,1.329060,422039,19783
1580.4,1.340059,414375,18938
1583.43,1.328827,406354,19058
1586.46,1.333887,398475,18472
1590.49,1.336398,388982,17928
1593.51,1.327545,380708,17908
1596.53,1.330517,372727,17413
1599.54,1.327063,365060,17191
1602.55,1.334662,357543,16545
1605.55,1.325116,349495,16532
1608.55,1.328451,341154,16014
1612.54,1.322607,330877,15742
1615.53,1.339252,322904,14785
1618.51,1.329620,315116,14752
1621.49,1.321252,307217,14662
1624.47,1.326442,299481,14123
1627.44,1.316731,292112,14087
1630.41,1.325455,284245,13435
1634.36,1.322066,274079,13056
1637.32,1.324799,266916,12635
1640.27,1.325268,259612,12276
1643.22,1.323186,251804,11964
1646.16,1.322130,244348,11638
1649.1,1.307952,236703,11648
1652.04,1.313094,228171,11096
1655.95,1.291948,215408,10998
1658.88,1.307557,204937,10094
1661.8,1.295485,193395,9794
1664.72,1.274840,179728,9545
1667.63,1.264505,163642,8900
1670.54,1.282983,146312,7626
1673.44,1.235359,128451,7471
1677.31,1.208006,105080,6509
1680.21,1.204560,88906,5551
1683.1,1.175761,75033,5006
1685.99,1.175340,63520,4242
1688.87,1.192520,53714,3448
1691.75,1.148656,45653,3242
1694.62,1.197436,39137,2484
1697.49,1.259329,33776,1859
1701.31,1.118639,28175,2144

File: Column 1_078402_20241121_170055.csv
Method:,Column 1,,
Host Date-Time:,21/11/24 @ 17:0:55,,
Header Version:,1,,
System Temp (C):,34.69,,
Detector Temp (C):,33.88,,
Humidity (%):,2.45,,
Lamp PD:,3802,,
Shift Vector Coefficients:,-10.5391,0.0761263,-0.000134223,,
Pixel to Wavelength Coefficients:,1775.68,-0.916766,-0.000235065,,
Serial Number:,5510004,,
Scan Config Name:,Column 1,,
Scan Config Type:,Slew,,
Section 1,,
Start wavelength (nm):,900,,
End wavelength (nm):,1700,,
Pattern Pixel Width (nm):,   7.03,,,,
Exposure (ms):,  0.635,,,,
Digital Resolution:,228,,
Num Repeats:,6,,
PGA Gain:,64,,
Total Measurement Time in sec:,  2.727,,
Wavelength (nm),Absorbance (AU),Reference Signal (unitless),Sample Signal (unitless)
901.51,1.307828,108485,5340
905.376,1.293245,121306,6175
909.237,1.329497,131909,6177
913.095,1.335779,143299,6614
916.948,1.320847,156982,7499
922.079,1.297561,179937,9069
925.923,1.329088,200504,9398
929.762,1.308188,222660,10951
933.597,1.328811,244426,11464
937.427,1.316423,263972,12739
941.254,1.318135,281845,13548
945.076,1.317270,297271,14318
950.165,1.316530,315605,15227
953.978,1.307041,328029,16176
957.786,1.304861,340470,16874
961.59,1.298053,352317,17737
965.389,1.317159,363056,17491
969.185,1.304679,373162,18502
972.976,1.308116,382632,18822
976.763,1.303794,391202,19436
981.806,1.309368,400190,19629
985.583,1.298139,406088,20440
989.355,1.306488,410162,20252
993.124,1.310696,412868,20189
996.888,1.305777,414263,20488
1000.65,1.304594,415476,20604
1004.4,1.300528,415479,20798
1009.41,1.306746,414358,20447
1013.15,1.298035,412923,20789
1016.89,1.305108,411526,20384
1020.63,1.301376,409066,20437
1024.36,1.313196,406777,19777
1028.09,1.308358,404427,19883
1031.82,1.299704,401911,20157
1036.78,1.299257,398410,20002
1040.49,1.304070,396204,19672
1044.2,1.309996,394236,19309
1047.91,1.312663,392042,19084
1051.61,1.308404,389823,19163
1055.31,1.303987,388234,19280
1059,1.322504,387599,18445
1063.92,1.309935,386688,18942
1067.61,1.312040,386598,18846
1071.29,1.311098,387377,18925
1074.96,1.313176,388536,18891
1078.63,1.302878,389855,19410
1082.3,1.307331,391215,19279
1085.96,1.312870,393215,19132
1090.84,1.311153,396270,19357
1094.49,1.302820,398760,19856
1098.14,1.321756,400987,19115
1101.79,1.313518,403477,19602
1105.43,1.312007,406116,19799
1109.06,1.318596,407701,19577
1112.7,1.315575,409859,19818
1117.53,1.311639,412494,20127
1121.15,1.325453,414909,19611
1124.77,1.320845,416559,19899
1128.38,1.317023,418532,20170
1131.99,1.325596,419956,19843
1135.6,1.315776,421946,20393
1139.2,1.312261,423881,20653
1143.99,1.306504,426786,21072
1147.58,1.314487,428617,20777
1151.17,1.318866,431169,20691
1154.75,1.319904,433579,20757
1158.33,1.313536,436264,21194
1161.91,1.311978,439132,21410
1165.48,1.315533,442389,21393
1169.04,1.325295,446101,21093
1173.79,1.315003,451929,21881
1177.34,1.310665,456026,22301
1180.9,1.319400,461306,22110
1184.44,1.308804,467657,22968
1187.99,1.320126,473969,22679
1191.52,1.324168,479856,22748
1195.06,1.321699,487372,23236
1199.76,1.317898,497347,23920
1203.29,1.326560,504311,23776
1206.81,1.327141,511507,24083
1210.33,1.318110,519078,24953
1213.84,1.313943,527163,25586
1217.35,1.316310,534208,25787
1220.85,1.320514,540472,25838
1225.51,1.315801,549929,26577
1229.01,1.320136,556888,26646
1232.5,1.318560,562180,26997
1235.98,1.324496,567975,26905
1239.46,1.320606,574815,27474
1242.94,1.323575,582782,27665
1246.41,1.322027,591476,28178
1251.03,1.325153,604016,28569
1254.5,1.324603,612289,28997
1257.96,1.332808,619125,28772
1261.41,1.324584,624551,29579
1264.86,1.322904,629900,29948
1268.31,1.324886,634345,30022
1271.75,1.324730,638574,30233
1276.33,1.330071,642499,30047
1279.76,1.323993,645905,30632
1283.19,1.326329,648307,30581
1286.61,1.325098,650446,30769
1290.03,1.329694,652132,30524
1293.44,1.327840,653907,30738
1296.85,1.329119,655963,30744
1301.39,1.331295,657349,30655
1304.8,1.327723,657558,30918
1308.19,1.326392,658515,31058
1311.58,1.329839,658804,30826
1314.97,1.332221,659011,30667
1318.36,1.330109,658272,30782
1321.73,1.325787,658022,31078
1326.23,1.333556,657870,30520
1329.6,1.331303,656482,30614
1332.97,1.328559,654926,30735
1336.33,1.330144,653727,30567
1339.69,1.331120,652497,30441
1343.04,1.329140,649913,30459
1346.39,1.327924,647671,30439
1349.73,1.325958,645338,30467
1354.18,1.323446,641175,30446
1357.52,1.330671,638376,29813
1360.85,1.322512,635805,30256
1364.17,1.318756,633413,30404
1367.49,1.329064,631026,29579
1370.81,1.323559,628050,29815
1374.12,1.332220,625034,29086
1378.54,1.327661,620272,29169
1381.84,1.320564,616892,29488
1385.14,1.331604,613613,28595
1388.43,1.320230,611526,29254
1391.72,1.327088,610663,28755
1395.01,1.329506,610634,28594
1398.29,1.328263,611700,28726
1402.66,1.331611,614051,28615
1405.93,1.332706,616268,28646
1409.2,1.329661,617795,28919
1412.46,1.335068,618872,28611
1415.72,1.333504,619795,28757
1418.98,1.340170,620495,28351
1422.23,1.333323,621087,28829
1426.56,1.329969,621375,29066
1429.8,1.330361,621616,29051
1433.04,1.332157,622129,28955
1436.27,1.332486,621526,28905
1439.5,1.332934,621113,28856
1442.72,1.331793,620921,28923
1445.94,1.334049,620270,28743
1450.23,1.332260,618860,28796
1453.44,1.333378,617697,28668
1456.64,1.333902,616264,28567
1459.85,1.332444,614413,28577
1463.04,1.331105,612307,28567
1466.24,1.335458,610032,28177
1469.43,1.333757,607345,28163
1473.67,1.335406,603789,27892
1476.85,1.330851,601175,28064
1480.02,1.337920,597737,27453
1483.19,1.333637,594479,27574
1486.36,1.330377,591232,27630
1489.52,1.329699,587853,27515
1492.68,1.335600,583875,26960
1496.89,1.340042,578062,26420
1500.03,1.339523,574159,26273
1503.18,1.337327,570285,26228
1506.32,1.335383,565444,26122
1509.45,1.326961,560571,26404
1512.58,1.330179,555821,25987
1515.71,1.341757,550344,25054
1519.87,1.338550,543983,24948
1522.99,1.336439,538764,24829
1526.1,1.335333,533692,24658
1529.21,1.330490,527902,24664
1532.32,1.341949,521886,23748
1535.42,1.333703,515888,23925
1538.51,1.336621,509987,23493
1541.6,1.329279,503936,23610
1545.72,1.327093,494694,23294
1548.8,1.329870,488378,22850
1551.88,1.328461,481832,22617
1554.95,1.339025,474989,21760
1558.02,1.336730,467818,21545
1561.08,1.334720,460730,21317
1564.15,1.331354,454170,21177
1568.22,1.337653,444181,20413
1571.27,1.327765,436947,20543
1574.32,1.335236,429598,19853
1577.36,1.330093,422039,19736
1580.4,1.328608,414375,19444
1583.43,1.329694,406354,19020
1586.46,1.328745,398475,18692
1590.49,1.327835,388982,18285
1593.51,1.323538,380708,18074
1596.53,1.319923,372727,17843
1599.54,1.336306,365060,16829
1602.55,1.324774,357543,16926
1605.55,1.332080,349495,16269
1608.55,1.326908,341154,16071
1612.54,1.320900,330877,15804
1615.53,1.315309,322904,15623
1618.51,1.339385,315116,14424
1621.49,1.316744,307217,14815
1624.47,1.312076,299481,14598
1627.44,1.306795,292112,14413
1630.41,1.318656,284245,13647
1634.36,1.317598,274079,13191
1637.32,1.308408,266916,13121
1640.27,1.299714,259612,13020
1643.22,1.305858,251804,12451
1646.16,1.315685,244348,11812
1649.1,1.312751,236703,11520
1652.04,1.289370,228171,11719
1655.95,1.314645,215408,10438
1658.88,1.302850,204937,10204
1661.8,1.281522,193395,10114
1664.72,1.266458,179728,9731
1667.63,1.253757,163642,9123
1670.54,1.239865,146312,8422
1673.44,1.222247,128451,7700
1677.31,1.205942,105080,6540
1680.21,1.198114,88906,5634
1683.1,1.179596,75033,4962
1685.99,1.184026,63520,4158
1688.87,1.151792,53714,3787
1691.75,1.194682,45653,2916
1694.62,1.170984,39137,2640
1697.49,1.204738,33776,2108
1701.31,1.200910,28175,1774

File: Column 1_078406_20241121_170107.csv
Method:,Column 1,,
Host Date-Time:,21/11/24 @ 17:1:7,,
Header Version:,1,,
System Temp (C):,34.65,,
Detector Temp (C):,33.81,,
Humidity (%):,2.25,,
Lamp PD:,3802,,
Shift Vector Coefficients:,-10.5391,0.0761263,-0.000134223,,
Pixel to Wavelength Coefficients:,1775.68,-0.916766,-0.000235065,,
Serial Number:,5510004,,
Scan Config Name:,Column 1,,
Scan Config Type:,Slew,,
Section 1,,
Start wavelength (nm):,900,,
End wavelength (nm):,1700,,
Pattern Pixel Width (nm):,   7.03,,,,
Exposure (ms):,  0.635,,,,
Digital Resolution:,228,,
Num Repeats:,6,,
PGA Gain:,64,,
Total Measurement Time in sec:,  2.726,,
Wavelength (nm),Absorbance (AU),Reference Signal (unitless),Sample Signal (unitless)
901.51,1.310112,108485,5312
905.376,1.326942,121306,5714
909.237,1.317843,131909,6345
913.095,1.305046,143299,7099
916.948,1.332765,156982,7296
922.079,1.335049,179937,8319
925.923,1.328072,200504,9420
929.762,1.330818,222660,10395
933.597,1.335107,244426,11299
937.427,1.315707,263972,12760
941.254,1.307496,281845,13884
945.076,1.313736,297271,14435
950.165,1.326308,315605,14888
953.978,1.316953,328029,15811
957.786,1.310404,340470,16660
961.59,1.312366,352317,17162
965.389,1.319225,363056,17408
969.185,1.309969,373162,18278
972.976,1.311009,382632,18697
976.763,1.309213,391202,19195
981.806,1.309523,400190,19622
985.583,1.308112,406088,19976
989.355,1.306402,410162,20256
993.124,1.308187,412868,20306
996.888,1.311796,414263,20206
1000.65,1.309534,415476,20371
1004.4,1.309451,415479,20375
1009.41,1.306555,414358,20456
1013.15,1.305176,412923,20450
1016.89,1.314302,411526,19957
1020.63,1.312875,409066,19903
1024.36,1.309958,406777,19925
1028.09,1.315094,404427,19577
1031.82,1.316574,401911,19389
1036.78,1.311522,398410,19445
1040.49,1.306705,396204,19553
1044.2,1.302084,394236,19664
1047.91,1.315494,392042,18960
1051.61,1.317334,389823,18773
1055.31,1.306109,388234,19186
1059,1.309446,387599,19008
1063.92,1.309545,386688,18959
1067.61,1.313518,386598,18782
1071.29,1.308125,387377,19055
1074.96,1.314812,388536,18820
1078.63,1.315292,389855,18863
1082.3,1.312703,391215,19042
1085.96,1.315602,393215,19012
1090.84,1.321690,396270,18893
1094.49,1.318565,398760,19149
1098.14,1.314434,400987,19440
1101.79,1.306551,403477,19919
1105.43,1.317637,406116,19544
1109.06,1.316670,407701,19664
1112.7,1.323224,409859,19472
1117.53,1.317482,412494,19858
1121.15,1.321770,414909,19778
1124.77,1.309834,416559,20410
1128.38,1.321285,418532,19973
1131.99,1.320440,419956,20080
1135.6,1.313312,421946,20509
1139.2,1.326822,423881,19972
1143.99,1.321390,426786,20362
1147.58,1.319575,428617,20535
1151.17,1.319706,431169,20651
1154.75,1.315656,433579,20961
1158.33,1.328716,436264,20466
1161.91,1.315645,439132,21230
1165.48,1.319366,442389,21205
1169.04,1.310837,446101,21807
1173.79,1.315539,451929,21854
1177.34,1.322630,456026,21695
1180.9,1.313935,461306,22390
1184.44,1.319118,467657,22429
1187.99,1.322122,473969,22575
1191.52,1.326446,479856,22629
1195.06,1.323929,487372,23117
1199.76,1.318771,497347,23872
1203.29,1.319081,504311,24189
1206.81,1.317405,511507,24629
1210.33,1.333107,519078,24106
1213.84,1.323935,527163,25004
1217.35,1.327570,534208,25127
1220.85,1.322587,540472,25715
1225.51,1.322885,549929,26147
1229.01,1.325845,556888,26298
1232.5,1.321336,562180,26825
1235.98,1.325838,567975,26822
1239.46,1.324911,574815,27203
1242.94,1.320385,582782,27869
1246.41,1.324996,591476,27986
1251.03,1.326356,604016,28490
1254.5,1.322705,612289,29124
1257.96,1.326693,619125,29180
1261.41,1.324952,624551,29554
1264.86,1.328229,629900,29583
1268.31,1.325393,634345,29987
1271.75,1.330456,638574,29837
1276.33,1.328096,642499,30184
1279.76,1.327667,645905,30374
1283.19,1.331889,648307,30192
1286.61,1.335396,650446,30048
1290.03,1.329282,652132,30553
1293.44,1.333500,653907,30340
1296.85,1.330052,655963,30678
1301.39,1.327500,657349,30924
1304.8,1.333919,657558,30480
1308.19,1.331215,658515,30715
1311.58,1.332553,658804,30634
1314.97,1.333058,659011,30608
1318.36,1.336375,658272,30341
1321.73,1.335753,658022,30373
1326.23,1.330479,657870,30737
1329.6,1.332382,656482,30538
1332.97,1.327458,654926,30813
1336.33,1.329718,653727,30597
1339.69,1.331519,652497,30413
1343.04,1.328441,649913,30508
1346.39,1.333698,647671,30037
1349.73,1.329062,645338,30250
1354.18,1.331451,641175,29890
1357.52,1.325242,638376,30188
1360.85,1.332106,635805,29595
1364.17,1.331159,633413,29548
1367.49,1.330888,631026,29455
1370.81,1.333251,628050,29157
1374.12,1.327187,625034,29425
1378.54,1.331729,620272,28897
1381.84,1.328801,616892,28934
1385.14,1.328381,613613,28808
1388.43,1.330870,611526,28546
1391.72,1.323778,610663,28975
1395.01,1.327702,610634,28713
1398.29,1.326860,611700,28819
1402.66,1.333863,614051,28467
1405.93,1.327027,616268,29023
1409.2,1.325744,617795,29181
1412.46,1.331440,618872,28851
1415.72,1.333746,619795,28741
1418.98,1.331120,620495,28948
1422.23,1.334787,621087,28732
1426.56,1.330297,621375,29044
1429.8,1.334718,621616,28761
1433.04,1.331542,622129,28996
1436.27,1.329357,621526,29114
1439.5,1.334155,621113,28775
1442.72,1.339947,620921,28385
1445.94,1.334744,620270,28697
1450.23,1.336093,618860,28543
1453.44,1.331338,617697,28803
1456.64,1.334785,616264,28509
1459.85,1.340187,614413,28072
1463.04,1.336074,612307,28242
1466.24,1.339219,610032,27934
1469.43,1.333002,607345,28212
1473.67,1.331361,603789,28153
1476.85,1.333708,601175,27880
1480.02,1.336893,597737,27518
1483.19,1.336338,594479,27403
1486.36,1.332725,591232,27481
1489.52,1.333663,587853,27265
1492.68,1.342976,583875,26506
1496.89,1.341474,578062,26333
1500.03,1.341594,574159,26148
1503.18,1.336186,570285,26297
1506.32,1.342676,565444,25687
1509.45,1.339713,560571,25640
1512.58,1.335712,555821,25658
1515.71,1.336194,550344,25377
1519.87,1.345127,543983,24573
1522.99,1.338069,538764,24736
1526.1,1.336426,533692,24596
1529.21,1.339277,527902,24170
1532.32,1.340652,521886,23819
1535.42,1.338706,515888,23651
1538.51,1.340371,509987,23291
1541.6,1.335896,503936,23253
1545.72,1.341460,494694,22536
1548.8,1.337617,488378,22446
1551.88,1.334163,481832,22322
1554.95,1.332016,474989,22114
1558.02,1.340638,467818,21352
1561.08,1.341227,460730,21000
1564.15,1.336594,454170,20923
1568.22,1.333313,444181,20618
1571.27,1.332719,436947,20310
1574.32,1.323304,429598,20406
1577.36,1.337528,422039,19401
1580.4,1.324142,414375,19645
1583.43,1.330060,406354,19004
1586.46,1.330771,398475,18605
1590.49,1.335720,388982,17956
1593.51,1.333454,380708,17666
1596.53,1.325558,372727,17613
1599.54,1.327088,365060,17190
1602.55,1.328977,357543,16763
1605.55,1.333390,349495,16220
1608.55,1.334183,341154,15804
1612.54,1.323629,330877,15705
1615.53,1.312704,322904,15717
1618.51,1.324935,315116,14912
1621.49,1.310689,307217,15023
1624.47,1.329126,299481,14036
1627.44,1.319545,292112,13996
1630.41,1.328472,284245,13342
1634.36,1.330903,274079,12793
1637.32,1.329465,266916,12500
1640.27,1.303600,259612,12904
1643.22,1.328445,251804,11820
1646.16,1.303361,244348,12152
1649.1,1.299680,236703,11872
1652.04,1.293466,228171,11609
1655.95,1.290175,215408,11043
1658.88,1.301957,204937,10225
1661.8,1.292965,193395,9851
1664.72,1.275979,179728,9520
1667.63,1.249682,163642,9209
1670.54,1.249195,146312,8243
1673.44,1.224509,128451,7660
1677.31,1.225918,105080,6246
1680.21,1.168542,88906,6031
1683.1,1.206866,75033,4660
1685.99,1.183400,63520,4164
1688.87,1.177298,53714,3571
1691.75,1.160470,45653,3155
1694.62,1.190842,39137,2522
1697.49,1.171436,33776,2276
1701.31,1.169058,28175,1909