Folder: textile_sorting_NIRSCAN_/ML/samples/unknown (part 81)

File: Column 1_078572_20241121_170917.csv
Method:,Column 1,,
Host Date-Time:,21/11/24 @ 17:9:17,,
Header Version:,1,,
System Temp (C):,36.23,,
Detector Temp (C):,34.54,,
Humidity (%):,1.17,,
Lamp PD:,3798,,
Shift Vector Coefficients:,-10.5391,0.0761263,-0.000134223,,
Pixel to Wavelength Coefficients:,1775.68,-0.916766,-0.000235065,,
Serial Number:,5510004,,
Scan Config Name:,Column 1,,
Scan Config Type:,Slew,,
Section 1,,
Start wavelength (nm):,900,,
End wavelength (nm):,1700,,
Pattern Pixel Width (nm):,   7.03,,,,
Exposure (ms):,  0.635,,,,
Digital Resolution:,228,,
Num Repeats:,6,,
PGA Gain:,64,,
Total Measurement Time in sec:,  2.728,,
Wavelength (nm),Absorbance (AU),Reference Signal (unitless),Sample Signal (unitless)
901.51,1.309376,108485,5321
905.376,1.311047,121306,5927
909.237,1.319214,131909,6325
913.095,1.316639,143299,6912
916.948,1.331279,156982,7321
922.079,1.330945,179937,8398
925.923,1.315262,200504,9702
929.762,1.314017,222660,10805
933.597,1.310816,244426,11949
937.427,1.325274,263972,12482
941.254,1.312910,281845,13712
945.076,1.324920,297271,14068
950.165,1.313658,315605,15328
953.978,1.320760,328029,15673
957.786,1.300405,340470,17048
961.59,1.304044,352317,17494
965.389,1.303160,363056,18064
969.185,1.312949,373162,18153
972.976,1.301134,382632,19127
976.763,1.300899,391202,19566
981.806,1.314218,400190,19411
985.583,1.303075,406088,20209
989.355,1.305395,410162,20303
993.124,1.302746,412868,20562
996.888,1.297255,414263,20894
1000.65,1.299482,415476,20848
1004.4,1.302789,415479,20690
1009.41,1.305919,414358,20486
1013.15,1.304582,412923,20478
1016.89,1.303046,411526,20481
1020.63,1.305561,409066,20241
1024.36,1.308739,406777,19981
1028.09,1.306266,404427,19979
1031.82,1.307223,401911,19811
1036.78,1.306371,398410,19677
1040.49,1.308575,396204,19469
1044.2,1.306457,394236,19467
1047.91,1.305822,392042,19387
1051.61,1.308223,389823,19171
1055.31,1.306789,388234,19156
1059,1.306668,387599,19130
1063.92,1.320424,386688,18490
1067.61,1.304071,386598,19195
1071.29,1.317898,387377,18631
1074.96,1.304257,388536,19283
1078.63,1.312653,389855,18978
1082.3,1.304882,391215,19388
1085.96,1.318559,393215,18883
1090.84,1.309094,396270,19449
1094.49,1.309876,398760,19536
1098.14,1.302774,400987,19969
1101.79,1.304897,403477,19995
1105.43,1.314426,406116,19689
1109.06,1.316913,407701,19653
1112.7,1.312888,409859,19941
1117.53,1.316259,412494,19914
1121.15,1.318511,414909,19927
1124.77,1.312523,416559,20284
1128.38,1.314211,418532,20301
1131.99,1.310329,419956,20553
1135.6,1.310505,421946,20642
1139.2,1.322151,423881,20188
1143.99,1.309524,426786,20926
1147.58,1.319532,428617,20537
1151.17,1.315021,431169,20875
1154.75,1.312930,433579,21093
1158.33,1.317530,436264,21000
1161.91,1.311816,439132,21418
1165.48,1.309545,442389,21690
1169.04,1.317177,446101,21491
1173.79,1.315142,451929,21874
1177.34,1.310568,456026,22306
1180.9,1.310939,461306,22545
1184.44,1.317089,467657,22534
1187.99,1.307537,473969,23346
1191.52,1.318666,479856,23038
1195.06,1.319574,487372,23350
1199.76,1.322388,497347,23674
1203.29,1.314739,504311,24432
1206.81,1.311868,511507,24945
1210.33,1.317640,519078,24980
1213.84,1.318378,527163,25326
1217.35,1.321187,534208,25499
1220.85,1.324975,540472,25574
1225.51,1.318884,549929,26389
1229.01,1.311790,556888,27163
1232.5,1.317195,562180,27082
1235.98,1.318835,567975,27258
1239.46,1.324512,574815,27228
1242.94,1.322212,582782,27752
1246.41,1.311566,591476,28865
1251.03,1.320136,604016,28901
1254.5,1.317665,612289,29464
1257.96,1.328423,619125,29064
1261.41,1.322227,624551,29740
1264.86,1.329096,629900,29524
1268.31,1.321988,634345,30223
1271.75,1.324701,638574,30235
1276.33,1.322421,642499,30581
1279.76,1.322154,645905,30762
1283.19,1.333286,648307,30095
1286.61,1.321695,650446,31011
1290.03,1.324026,652132,30925
1293.44,1.321932,653907,31159
1296.85,1.331413,655963,30582
1301.39,1.326560,657349,30991
1304.8,1.325020,657558,31111
1308.19,1.323799,658515,31244
1311.58,1.324212,658804,31228
1314.97,1.324404,659011,31224
1318.36,1.331805,658272,30662
1321.73,1.322252,658022,31332
1326.23,1.330380,657870,30744
1329.6,1.326576,656482,30949
1332.97,1.327205,654926,30831
1336.33,1.328315,653727,30696
1339.69,1.325746,652497,30820
1343.04,1.328100,649913,30532
1346.39,1.326628,647671,30530
1349.73,1.328717,645338,30274
1354.18,1.321000,641175,30618
1357.52,1.323605,638376,30302
1360.85,1.321208,635805,30347
1364.17,1.320545,633413,30279
1367.49,1.328081,631026,29646
1370.81,1.317887,628050,30207
1374.12,1.328769,625034,29318
1378.54,1.318745,620272,29774
1381.84,1.322719,616892,29342
1385.14,1.324285,613613,29081
1388.43,1.324721,611526,28953
1391.72,1.319913,610663,29234
1395.01,1.318750,610634,29311
1398.29,1.323632,611700,29034
1402.66,1.323924,614051,29126
1405.93,1.326175,616268,29080
1409.2,1.326191,617795,29151
1412.46,1.328649,618872,29037
1415.72,1.327237,619795,29175
1418.98,1.328890,620495,29097
1422.23,1.323183,621087,29510
1426.56,1.330327,621375,29042
1429.8,1.332159,621616,28931
1433.04,1.328631,622129,29191
1436.27,1.326088,621526,29334
1439.5,1.327594,621113,29213
1442.72,1.328860,620921,29119
1445.94,1.327347,620270,29190
1450.23,1.331251,618860,28863
1453.44,1.334136,617697,28618
1456.64,1.327114,616264,29017
1459.85,1.327052,614413,28934
1463.04,1.330831,612307,28585
1466.24,1.328471,610032,28634
1469.43,1.334204,607345,28134
1473.67,1.330513,603789,28208
1476.85,1.329445,601175,28155
1480.02,1.333701,597737,27721
1483.19,1.332756,594479,27630
1486.36,1.332346,591232,27505
1489.52,1.335387,587853,27157
1492.68,1.333976,583875,27061
1496.89,1.332061,578062,26910
1500.03,1.336393,574159,26463
1503.18,1.332502,570285,26521
1506.32,1.332963,565444,26268
1509.45,1.336624,560571,25823
1512.58,1.328761,555821,26072
1515.71,1.332089,550344,25618
1519.87,1.328569,543983,25528
1522.99,1.331431,538764,25117
1526.1,1.337575,533692,24531
1529.21,1.330085,527902,24687
1532.32,1.331112,521886,24348
1535.42,1.328238,515888,24228
1538.51,1.331183,509987,23789
1541.6,1.334275,503936,23340
1545.72,1.321793,494694,23580
1548.8,1.335148,488378,22574
1551.88,1.323364,481832,22884
1554.95,1.332232,474989,22103
1558.02,1.329593,467818,21902
1561.08,1.326427,460730,21728
1564.15,1.338404,454170,20836
1568.22,1.338718,444181,20363
1571.27,1.338033,436947,20063
1574.32,1.334755,429598,19875
1577.36,1.326871,422039,19883
1580.4,1.326602,414375,19534
1583.43,1.327371,406354,19122
1586.46,1.333159,398475,18503
1590.49,1.323345,388982,18475
1593.51,1.325030,380708,18012
1596.53,1.316360,372727,17990
1599.54,1.324368,365060,17298
1602.55,1.326806,357543,16847
1605.55,1.328385,349495,16408
1608.55,1.318902,341154,16370
1612.54,1.330036,330877,15475
1615.53,1.327487,322904,15191
1618.51,1.315885,315116,15226
1621.49,1.321578,307217,14651
1624.47,1.316021,299481,14466
1627.44,1.314057,292112,14174
1630.41,1.311930,284245,13860
1634.36,1.320604,274079,13100
1637.32,1.303831,266916,13260
1640.27,1.307556,259612,12787
1643.22,1.309572,251804,12345
1646.16,1.314510,244348,11844
1649.1,1.306724,236703,11681
1652.04,1.300518,228171,11422
1655.95,1.291435,215408,11011
1658.88,1.290224,204937,10505
1661.8,1.282812,193395,10084
1664.72,1.273250,179728,9580
1667.63,1.257342,163642,9048
1670.54,1.235759,146312,8502
1673.44,1.217033,128451,7793
1677.31,1.202042,105080,6599
1680.21,1.184083,88906,5819
1683.1,1.157499,75033,5221
1685.99,1.104288,63520,4996
1688.87,1.172701,53714,3609
1691.75,1.166569,45653,3111
1694.62,1.190842,39137,2522
1697.49,1.217490,33776,2047
1701.31,1.202627,28175,1767

File: Column 1_078573_20241121_170920.csv
Method:,Column 1,,
Host Date-Time:,21/11/24 @ 17:9:20,,
Header Version:,1,,
System Temp (C):,36.22,,
Detector Temp (C):,34.54,,
Humidity (%):,1.17,,
Lamp PD:,3799,,
Shift Vector Coefficients:,-10.5391,0.0761263,-0.000134223,,
Pixel to Wavelength Coefficients:,1775.68,-0.916766,-0.000235065,,
Serial Number:,5510004,,
Scan Config Name:,Column 1,,
Scan Config Type:,Slew,,
Section 1,,
Start wavelength (nm):,900,,
End wavelength (nm):,1700,,
Pattern Pixel Width (nm):,   7.03,,,,
Exposure (ms):,  0.635,,,,
Digital Resolution:,228,,
Num Repeats:,6,,
PGA Gain:,64,,
Total Measurement Time in sec:,  2.729,,
Wavelength (nm),Absorbance (AU),Reference Signal (unitless),Sample Signal (unitless)
901.51,1.311586,108485,5294
905.376,1.304069,121306,6023
909.237,1.315658,131909,6377
913.095,1.312823,143299,6973
916.948,1.323344,156982,7456
922.079,1.310638,179937,8800
925.923,1.341082,200504,9142
929.762,1.321395,222660,10623
933.597,1.311762,244426,11923
937.427,1.315095,263972,12778
941.254,1.318713,281845,13530
945.076,1.315484,297271,14377
950.165,1.308700,315605,15504
953.978,1.303299,328029,16316
957.786,1.300049,340470,17062
961.59,1.296514,352317,17800
965.389,1.303617,363056,18045
969.185,1.302268,373162,18605
972.976,1.298779,382632,19231
976.763,1.297692,391202,19711
981.806,1.293979,400190,20337
985.583,1.304992,406088,20120
989.355,1.295540,410162,20769
993.124,1.292704,412868,21043
996.888,1.295781,414263,20965
1000.65,1.300942,415476,20778
1004.4,1.311695,415479,20270
1009.41,1.314461,414358,20087
1013.15,1.301433,412923,20627
1016.89,1.307672,411526,20264
1020.63,1.300760,409066,20466
1024.36,1.288587,406777,20930
1028.09,1.306027,404427,19990
1031.82,1.305342,401911,19897
1036.78,1.306371,398410,19677
1040.49,1.305552,396204,19605
1044.2,1.302991,394236,19623
1047.91,1.299396,392042,19676
1051.61,1.300143,389823,19531
1055.31,1.298725,388234,19515
1059,1.301522,387599,19358
1063.92,1.309385,386688,18966
1067.61,1.299122,386598,19415
1071.29,1.307373,387377,19088
1074.96,1.306040,388536,19204
1078.63,1.302564,389855,19424
1082.3,1.308459,391215,19229
1085.96,1.307187,393215,19384
1090.84,1.312299,396270,19306
1094.49,1.308345,398760,19605
1098.14,1.310011,400987,19639
1101.79,1.307446,403477,19878
1105.43,1.313501,406116,19731
1109.06,1.311161,407701,19915
1112.7,1.312561,409859,19956
1117.53,1.315671,412494,19941
1121.15,1.313527,414909,20157
1124.77,1.302952,416559,20736
1128.38,1.305989,418532,20689
1131.99,1.316072,419956,20283
1135.6,1.310400,421946,20647
1139.2,1.302838,423881,21106
1143.99,1.308860,426786,20958
1147.58,1.310388,428617,20974
1151.17,1.312035,431169,21019
1154.75,1.309199,433579,21275
1158.33,1.314973,436264,21124
1161.91,1.305775,439132,21718
1165.48,1.305360,442389,21900
1169.04,1.307208,446101,21990
1173.79,1.302675,451929,22511
1177.34,1.308451,456026,22415
1180.9,1.305788,461306,22814
1184.44,1.315800,467657,22601
1187.99,1.314797,473969,22959
1191.52,1.313792,479856,23298
1195.06,1.310245,487372,23857
1199.76,1.323398,497347,23619
1203.29,1.311058,504311,24640
1206.81,1.309264,511507,25095
1210.33,1.321500,519078,24759
1213.84,1.320493,527163,25203
1217.35,1.319623,534208,25591
1220.85,1.316665,540472,26068
1225.51,1.331761,549929,25618
1229.01,1.320984,556888,26594
1232.5,1.314812,562180,27231
1235.98,1.319154,567975,27238
1239.46,1.315436,574815,27803
1242.94,1.312907,582782,28353
1246.41,1.315753,591476,28588
1251.03,1.317514,604016,29076
1254.5,1.314741,612289,29663
1257.96,1.323298,619125,29409
1261.41,1.322753,624551,29704
1264.86,1.319538,629900,30181
1268.31,1.323442,634345,30122
1271.75,1.321866,638574,30433
1276.33,1.316791,642499,30980
1279.76,1.323639,645905,30657
1283.19,1.320391,648307,31002
1286.61,1.325437,650446,30745
1290.03,1.321268,652132,31122
1293.44,1.315609,653907,31616
1296.85,1.325392,655963,31009
1301.39,1.327163,657349,30948
1304.8,1.320024,657558,31471
1308.19,1.322938,658515,31306
1311.58,1.327535,658804,30990
1314.97,1.322005,659011,31397
1318.36,1.320964,658272,31437
1321.73,1.326543,658022,31024
1326.23,1.323818,657870,31212
1329.6,1.323319,656482,31182
1332.97,1.321162,654926,31263
1336.33,1.322510,653727,31109
1339.69,1.327681,652497,30683
1343.04,1.326000,649913,30680
1346.39,1.319531,647671,31033
1349.73,1.321603,645338,30774
1354.18,1.319640,641175,30714
1357.52,1.323906,638376,30281
1360.85,1.322082,635805,30286
1364.17,1.327573,633413,29793
1367.49,1.324434,631026,29896
1370.81,1.319024,628050,30128
1374.12,1.321323,625034,29825
1378.54,1.319358,620272,29732
1381.84,1.323579,616892,29284
1385.14,1.321412,613613,29274
1388.43,1.318748,611526,29354
1391.72,1.313045,610663,29700
1395.01,1.319952,610634,29230
1398.29,1.324081,611700,29004
1402.66,1.325133,614051,29045
1405.93,1.326579,616268,29053
1409.2,1.324303,617795,29278
1412.46,1.324392,618872,29323
1415.72,1.325811,619795,29271
1418.98,1.326984,620495,29225
1422.23,1.325027,621087,29385
1426.56,1.323988,621375,29469
1429.8,1.323509,621616,29513
1433.04,1.320087,622129,29771
1436.27,1.325215,621526,29393
1439.5,1.329995,621113,29052
1442.72,1.326703,620921,29264
1445.94,1.322759,620270,29500
1450.23,1.328910,618860,29019
1453.44,1.332682,617697,28714
1456.64,1.333173,616264,28615
1459.85,1.330821,614413,28684
1463.04,1.329557,612307,28669
1466.24,1.332463,610032,28372
1469.43,1.329918,607345,28413
1473.67,1.319837,603789,28910
1476.85,1.327629,601175,28273
1480.02,1.324310,597737,28327
1483.19,1.325987,594479,28064
1486.36,1.332015,591232,27526
1489.52,1.328124,587853,27615
1492.68,1.325411,583875,27600
1496.89,1.326257,578062,27272
1500.03,1.326528,574159,27071
1503.18,1.323203,570285,27095
1506.32,1.332318,565444,26307
1509.45,1.331342,560571,26139
1512.58,1.327812,555821,26129
1515.71,1.341151,550344,25089
1519.87,1.335981,543983,25096
1522.99,1.331137,538764,25134
1526.1,1.329959,533692,24965
1529.21,1.323919,527902,25040
1532.32,1.327082,521886,24575
1535.42,1.327700,515888,24258
1538.51,1.327583,509987,23987
1541.6,1.325470,503936,23818
1545.72,1.324231,494694,23448
1548.8,1.331660,488378,22756
1551.88,1.331544,481832,22457
1554.95,1.332193,474989,22105
1558.02,1.335844,467818,21589
1561.08,1.330826,460730,21509
1564.15,1.330760,454170,21206
1568.22,1.317694,444181,21373
1571.27,1.325677,436947,20642
1574.32,1.331880,429598,20007
1577.36,1.327111,422039,19872
1580.4,1.318933,414375,19882
1583.43,1.322560,406354,19335
1586.46,1.326220,398475,18801
1590.49,1.316928,388982,18750
1593.51,1.325416,380708,17996
1596.53,1.317811,372727,17930
1599.54,1.315152,365060,17669
1602.55,1.326600,357543,16855
1605.55,1.320568,349495,16706
1608.55,1.319592,341154,16344
1612.54,1.311629,330877,16145
1615.53,1.314781,322904,15642
1618.51,1.308840,315116,15475
1621.49,1.316538,307217,14822
1624.47,1.307872,299481,14740
1627.44,1.305651,292112,14451
1630.41,1.295904,284245,14381
1634.36,1.324668,274079,12978
1637.32,1.313200,266916,12977
1640.27,1.301586,259612,12964
1643.22,1.309150,251804,12357
1646.16,1.288018,244348,12589
1649.1,1.298438,236703,11906
1652.04,1.289592,228171,11713
1655.95,1.283617,215408,11211
1658.88,1.283741,204937,10663
1661.8,1.274833,193395,10271
1664.72,1.263212,179728,9804
1667.63,1.246628,163642,9274
1670.54,1.221736,146312,8781
1673.44,1.194183,128451,8214
1677.31,1.191060,105080,6768
1680.21,1.153051,88906,6250
1683.1,1.137265,75033,5470
1685.99,1.146333,63520,4535
1688.87,1.104775,53714,4220
1691.75,1.112557,45653,3523
1694.62,1.100806,39137,3103
1697.49,1.161252,33776,2330
1701.31,1.102534,28175,2225

File: Column 1_078575_20241121_170926.csv
Method:,Column 1,,
Host Date-Time:,21/11/24 @ 17:9:26,,
Header Version:,1,,
System Temp (C):,36.27,,
Detector Temp (C):,34.57,,
Humidity (%):,1.17,,
Lamp PD:,3798,,
Shift Vector Coefficients:,-10.5391,0.0761263,-0.000134223,,
Pixel to Wavelength Coefficients:,1775.68,-0.916766,-0.000235065,,
Serial Number:,5510004,,
Scan Config Name:,Column 1,,
Scan Config Type:,Slew,,
Section 1,,
Start wavelength (nm):,900,,
End wavelength (nm):,1700,,
Pattern Pixel Width (nm):,   7.03,,,,
Exposure (ms):,  0.635,,,,
Digital Resolution:,228,,
Num Repeats:,6,,
PGA Gain:,64,,
Total Measurement Time in sec:,  2.677,,
Wavelength (nm),Absorbance (AU),Reference Signal (unitless),Sample Signal (unitless)
901.51,1.320286,108485,5189
905.376,1.324895,121306,5741
909.237,1.327393,131909,6207
913.095,1.306087,143299,7082
916.948,1.312870,156982,7638
922.079,1.335729,179937,8306
925.923,1.325040,200504,9486
929.762,1.325296,222660,10528
933.597,1.325227,244426,11559
937.427,1.330208,263972,12341
941.254,1.332938,281845,13094
945.076,1.304449,297271,14747
950.165,1.306744,315605,15574
953.978,1.310302,328029,16055
957.786,1.319598,340470,16311
961.59,1.297222,352317,17771
965.389,1.307412,363056,17888
969.185,1.304163,373162,18524
972.976,1.301225,382632,19123
976.763,1.304376,391202,19410
981.806,1.304462,400190,19852
985.583,1.311341,406088,19828
989.355,1.303368,410162,20398
993.124,1.298103,412868,20783
996.888,1.300635,414263,20732
1000.65,1.316020,415476,20069
1004.4,1.303734,415479,20645
1009.41,1.304226,414358,20566
1013.15,1.298537,412923,20765
1016.89,1.308595,411526,20221
1020.63,1.307260,409066,20162
1024.36,1.303189,406777,20238
1028.09,1.300265,404427,20257
1031.82,1.300157,401911,20136
1036.78,1.292300,398410,20325
1040.49,1.307150,396204,19533
1044.2,1.306971,394236,19444
1047.91,1.310212,392042,19192
1051.61,1.306504,389823,19247
1055.31,1.307538,388234,19123
1059,1.308739,387599,19039
1063.92,1.305079,386688,19155
1067.61,1.307935,386598,19025
1071.29,1.303410,387377,19263
1074.96,1.317613,388536,18699
1078.63,1.307647,389855,19198
1082.3,1.316506,391215,18876
1085.96,1.318720,393215,18876
1090.84,1.313222,396270,19265
1094.49,1.304178,398760,19794
1098.14,1.311695,400987,19563
1101.79,1.310956,403477,19718
1105.43,1.321319,406116,19379
1109.06,1.306735,407701,20119
1112.7,1.312061,409859,19979
1117.53,1.312503,412494,20087
1121.15,1.320696,414909,19827
1124.77,1.315876,416559,20128
1128.38,1.322679,418532,19909
1131.99,1.315045,419956,20331
1135.6,1.316735,421946,20348
1139.2,1.318616,423881,20353
1143.99,1.308198,426786,20990
1147.58,1.322375,428617,20403
1151.17,1.324273,431169,20435
1154.75,1.313919,433579,21045
1158.33,1.315920,436264,21078
1161.91,1.326394,439132,20711
1165.48,1.308625,442389,21736
1169.04,1.311156,446101,21791
1173.79,1.315063,451929,21878
1177.34,1.313635,456026,22149
1180.9,1.314013,461306,22386
1184.44,1.314668,467657,22660
1187.99,1.315403,473969,22927
1191.52,1.319912,479856,22972
1195.06,1.319816,487372,23337
1199.76,1.314751,497347,24094
1203.29,1.320735,504311,24097
1206.81,1.339079,511507,23430
1210.33,1.318214,519078,24947
1213.84,1.317488,527163,25378
1217.35,1.322723,534208,25409
1220.85,1.314571,540472,26194
1225.51,1.316733,549929,26520
1229.01,1.321474,556888,26564
1232.5,1.322438,562180,26757
1235.98,1.315945,567975,27440
1239.46,1.318525,574815,27606
1242.94,1.315072,582782,28212
1246.41,1.318558,591476,28404
1251.03,1.318725,604016,28995
1254.5,1.325758,612289,28920
1257.96,1.317154,619125,29828
1261.41,1.323250,624551,29670
1264.86,1.324196,629900,29859
1268.31,1.323197,634345,30139
1271.75,1.324428,638574,30254
1276.33,1.322748,642499,30558
1279.76,1.315472,645905,31239
1283.19,1.322680,648307,30839
1286.61,1.322326,650446,30966
1290.03,1.322330,652132,31046
1293.44,1.327911,653907,30733
1296.85,1.323965,655963,31111
1301.39,1.328316,657349,30866
1304.8,1.324853,657558,31123
1308.19,1.325484,658515,31123
1311.58,1.328685,658804,30908
1314.97,1.325142,659011,31171
1318.36,1.325115,658272,31138
1321.73,1.325159,658022,31123
1326.23,1.335752,657870,30366
1329.6,1.326183,656482,30977
1332.97,1.329337,654926,30680
1336.33,1.327212,653727,30774
1339.69,1.323932,652497,30949
1343.04,1.325901,649913,30687
1346.39,1.320736,647671,30947
1349.73,1.327772,645338,30340
1354.18,1.325405,641175,30309
1357.52,1.330642,638376,29815
1360.85,1.325523,635805,30047
1364.17,1.323106,633413,30101
1367.49,1.322738,631026,30013
1370.81,1.326468,628050,29616
1374.12,1.321483,625034,29814
1378.54,1.324693,620272,29369
1381.84,1.327542,616892,29018
1385.14,1.316882,613613,29581
1388.43,1.320764,611526,29218
1391.72,1.324123,610663,28952
1395.01,1.323069,610634,29021
1398.29,1.320427,611700,29249
1402.66,1.318986,614051,29459
1405.93,1.323480,616268,29261
1409.2,1.327908,617795,29036
1412.46,1.319723,618872,29640
1415.72,1.327446,619795,29161
1418.98,1.330610,620495,28982
1422.23,1.328097,621087,29178
1426.56,1.334399,621375,28771
1429.8,1.331439,621616,28979
1433.04,1.317832,622129,29926
1436.27,1.325999,621526,29340
1439.5,1.328443,621113,29156
1442.72,1.328457,620921,29146
1445.94,1.330722,620270,28964
1450.23,1.329269,618860,28995
1453.44,1.332138,617697,28750
1456.64,1.330495,616264,28792
1459.85,1.331654,614413,28629
1463.04,1.329936,612307,28644
1466.24,1.332218,610032,28388
1469.43,1.325402,607345,28710
1473.67,1.337622,603789,27750
1476.85,1.327245,601175,28298
1480.02,1.329058,597737,28019
1483.19,1.319337,594479,28497
1486.36,1.332346,591232,27505
1489.52,1.330094,587853,27490
1492.68,1.332486,583875,27154
1496.89,1.330659,578062,26997
1500.03,1.329700,574159,26874
1503.18,1.335971,570285,26310
1506.32,1.331675,565444,26346
1509.45,1.329485,560571,26251
1512.58,1.330329,555821,25978
1515.71,1.332072,550344,25619
1519.87,1.334081,543983,25206
1522.99,1.333320,538764,25008
1526.1,1.332244,533692,24834
1529.21,1.334986,527902,24410
1532.32,1.337383,521886,23999
1535.42,1.337899,515888,23695
1538.51,1.340688,509987,23274
1541.6,1.333048,503936,23406
1545.72,1.321977,494694,23570
1548.8,1.328201,488378,22938
1551.88,1.329268,481832,22575
1554.95,1.335764,474989,21924
1558.02,1.328089,467818,21978
1561.08,1.333134,460730,21395
1564.15,1.325791,454170,21450
1568.22,1.323278,444181,21100
1571.27,1.334991,436947,20204
1574.32,1.327775,429598,20197
1577.36,1.326500,422039,19900
1580.4,1.334205,414375,19195
1583.43,1.332213,406354,18910
1586.46,1.324675,398475,18868
1590.49,1.329930,388982,18197
1593.51,1.322314,380708,18125
1596.53,1.327361,372727,17540
1599.54,1.323215,365060,17344
1602.55,1.315182,357543,17304
1605.55,1.306828,349495,17243
1608.55,1.324133,341154,16174
1612.54,1.314950,330877,16022
1615.53,1.330269,322904,15094
1618.51,1.314745,315116,15266
1621.49,1.319213,307217,14731
1624.47,1.327150,299481,14100
1627.44,1.315377,292112,14131
1630.41,1.320090,284245,13602
1634.36,1.306706,274079,13526
1637.32,1.299205,266916,13402
1640.27,1.314679,259612,12579
1643.22,1.302211,251804,12556
1646.16,1.296377,244348,12349
1649.1,1.309222,236703,11614
1652.04,1.308461,228171,11215
1655.95,1.296274,215408,10889
1658.88,1.296848,204937,10346
1661.8,1.287445,193395,9977
1664.72,1.274931,179728,9543
1667.63,1.249965,163642,9203
1670.54,1.238629,146312,8446
1673.44,1.219492,128451,7749
1677.31,1.189267,105080,6796
1680.21,1.152149,88906,6263
1683.1,1.172047,75033,5049
1685.99,1.159260,63520,4402
1688.87,1.153056,53714,3776
1691.75,1.142141,45653,3291
1694.62,1.134252,39137,2873
1697.49,1.156986,33776,2353
1701.31,1.195799,28175,1795