Folder: textile_sorting_NIRSCAN_/ML/samples/unknown (part 22)

File: Column 1_078146_20241121_164743.csv
Method:,Column 1,,
Host Date-Time:,21/11/24 @ 16:47:43,,
Header Version:,1,,
System Temp (C):,33.16,,
Detector Temp (C):,29.15,,
Humidity (%):,3.22,,
Lamp PD:,3805,,
Shift Vector Coefficients:,-10.5391,0.0761263,-0.000134223,,
Pixel to Wavelength Coefficients:,1775.68,-0.916766,-0.000235065,,
Serial Number:,5510004,,
Scan Config Name:,Column 1,,
Scan Config Type:,Slew,,
Section 1,,
Start wavelength (nm):,900,,
End wavelength (nm):,1700,,
Pattern Pixel Width (nm):,   7.03,,,,
Exposure (ms):,  0.635,,,,
Digital Resolution:,228,,
Num Repeats:,6,,
PGA Gain:,64,,
Total Measurement Time in sec:,  2.672,,
Wavelength (nm),Absorbance (AU),Reference Signal (unitless),Sample Signal (unitless)
901.51,1.319784,108485,5195
905.376,1.311781,121306,5917
909.237,1.326763,131909,6216
913.095,1.296985,143299,7232
916.948,1.315379,156982,7594
922.079,1.307442,179937,8865
925.923,1.300562,200504,10036
929.762,1.307040,222660,10980
933.597,1.320779,244426,11678
937.427,1.305748,263972,13056
941.254,1.313734,281845,13686
945.076,1.315092,297271,14390
950.165,1.311849,315605,15392
953.978,1.307229,328029,16169
957.786,1.315755,340470,16456
961.59,1.311986,352317,17177
965.389,1.303232,363056,18061
969.185,1.308214,373162,18352
972.976,1.296864,382632,19316
976.763,1.307880,391202,19254
981.806,1.304922,400190,19831
985.583,1.307286,406088,20014
989.355,1.299700,410162,20571
993.124,1.303147,412868,20543
996.888,1.301789,414263,20677
1000.65,1.309768,415476,20360
1004.4,1.307919,415479,20447
1009.41,1.295363,414358,20990
1013.15,1.300193,412923,20686
1016.89,1.302771,411526,20494
1020.63,1.305283,409066,20254
1024.36,1.311683,406777,19846
1028.09,1.312550,404427,19692
1031.82,1.307904,401911,19780
1036.78,1.315021,398410,19289
1040.49,1.303673,396204,19690
1044.2,1.308716,394236,19366
1047.91,1.303677,392042,19483
1051.61,1.303491,389823,19381
1055.31,1.309974,388234,19016
1059,1.313971,387599,18811
1063.92,1.308379,386688,19010
1067.61,1.314444,386598,18742
1071.29,1.307829,387377,19068
1074.96,1.314904,388536,18816
1078.63,1.313065,389855,18960
1082.3,1.315517,391215,18919
1085.96,1.300539,393215,19683
1090.84,1.310458,396270,19388
1094.49,1.308478,398760,19599
1098.14,1.312584,400987,19523
1101.79,1.315228,403477,19525
1105.43,1.309383,406116,19919
1109.06,1.313896,407701,19790
1112.7,1.312953,409859,19938
1117.53,1.317023,412494,19879
1121.15,1.320630,414909,19830
1124.77,1.319103,416559,19979
1128.38,1.311099,418532,20447
1131.99,1.311619,419956,20492
1135.6,1.321176,421946,20141
1139.2,1.309807,423881,20770
1143.99,1.313548,426786,20733
1147.58,1.315407,428617,20733
1151.17,1.318174,431169,20724
1154.75,1.315014,433579,20992
1158.33,1.318565,436264,20950
1161.91,1.324344,439132,20809
1165.48,1.318527,442389,21246
1169.04,1.316067,446101,21546
1173.79,1.314012,451929,21931
1177.34,1.313773,456026,22142
1180.9,1.324001,461306,21877
1184.44,1.311193,467657,22842
1187.99,1.318368,473969,22771
1191.52,1.328600,479856,22517
1195.06,1.318942,487372,23384
1199.76,1.316665,497347,23988
1203.29,1.319512,504311,24165
1206.81,1.317987,511507,24596
1210.33,1.321236,519078,24774
1213.84,1.320975,527163,25175
1217.35,1.321272,534208,25494
1220.85,1.321659,540472,25770
1225.51,1.318620,549929,26405
1229.01,1.328047,556888,26165
1232.5,1.327926,562180,26421
1235.98,1.323432,567975,26971
1239.46,1.316954,574815,27706
1242.94,1.318100,582782,28016
1246.41,1.326006,591476,27921
1251.03,1.327104,604016,28441
1254.5,1.326419,612289,28876
1257.96,1.329186,619125,29013
1261.41,1.329650,624551,29236
1264.86,1.324225,629900,29857
1268.31,1.329452,634345,29708
1271.75,1.324328,638574,30261
1276.33,1.324870,642499,30409
1279.76,1.326111,645905,30483
1283.19,1.327794,648307,30478
1286.61,1.333910,650446,30151
1290.03,1.328160,652132,30632
1293.44,1.325234,653907,30923
1296.85,1.331130,655963,30602
1301.39,1.331734,657349,30624
1304.8,1.327245,657558,30952
1308.19,1.332830,658515,30601
1311.58,1.330022,658804,30813
1314.97,1.331613,659011,30710
1318.36,1.331748,658272,30666
1321.73,1.330141,658022,30768
1326.23,1.335638,657870,30374
1329.6,1.332041,656482,30562
1332.97,1.331622,654926,30519
1336.33,1.332909,653727,30373
1339.69,1.330877,652497,30458
1343.04,1.334375,649913,30094
1346.39,1.334726,647671,29966
1349.73,1.326029,645338,30462
1354.18,1.324675,641175,30360
1357.52,1.328042,638376,29994
1360.85,1.329385,635805,29781
1364.17,1.327252,633413,29815
1367.49,1.330977,631026,29449
1370.81,1.328570,628050,29473
1374.12,1.315940,625034,30197
1378.54,1.329481,620272,29047
1381.84,1.322054,616892,29387
1385.14,1.329272,613613,28749
1388.43,1.334168,611526,28330
1391.72,1.320003,610663,29228
1395.01,1.329202,610634,28614
1398.29,1.326679,611700,28831
1402.66,1.329703,614051,28741
1405.93,1.333829,616268,28572
1409.2,1.327609,617795,29056
1412.46,1.335827,618872,28561
1415.72,1.330450,619795,28960
1418.98,1.332382,620495,28864
1422.23,1.330769,621087,28999
1426.56,1.333268,621375,28846
1429.8,1.334854,621616,28752
1433.04,1.330824,622129,29044
1436.27,1.335971,621526,28674
1439.5,1.331777,621113,28933
1442.72,1.328294,620921,29157
1445.94,1.332119,620270,28871
1450.23,1.339392,618860,28327
1453.44,1.335504,617697,28528
1456.64,1.335379,616264,28470
1459.85,1.335984,614413,28345
1463.04,1.330922,612307,28579
1466.24,1.336847,610032,28087
1469.43,1.329140,607345,28464
1473.67,1.339017,603789,27661
1476.85,1.339984,601175,27480
1480.02,1.338855,597737,27394
1483.19,1.336227,594479,27410
1486.36,1.336742,591232,27228
1489.52,1.340664,587853,26829
1492.68,1.342419,583875,26540
1496.89,1.330981,578062,26977
1500.03,1.336098,574159,26481
1503.18,1.357232,570285,25053
1506.32,1.336165,565444,26075
1509.45,1.333273,560571,26023
1512.58,1.331769,555821,25892
1515.71,1.334247,550344,25491
1519.87,1.332019,543983,25326
1522.99,1.337613,538764,24762
1526.1,1.338834,533692,24460
1529.21,1.342414,527902,23996
1532.32,1.331880,521886,24305
1535.42,1.334376,515888,23888
1538.51,1.337972,509987,23420
1541.6,1.340742,503936,22995
1545.72,1.340440,494694,22589
1548.8,1.334974,488378,22583
1551.88,1.332338,481832,22416
1554.95,1.335170,474989,21954
1558.02,1.338245,467818,21470
1561.08,1.333886,460730,21358
1564.15,1.335289,454170,20986
1568.22,1.332998,444181,20633
1571.27,1.324521,436947,20697
1574.32,1.332076,429598,19998
1577.36,1.337305,422039,19411
1580.4,1.338183,414375,19020
1583.43,1.336645,406354,18718
1586.46,1.331309,398475,18582
1590.49,1.335623,388982,17960
1593.51,1.331663,380708,17739
1596.53,1.332492,372727,17334
1599.54,1.328505,365060,17134
1602.55,1.338114,357543,16414
1605.55,1.319504,349495,16747
1608.55,1.330571,341154,15936
1612.54,1.325430,330877,15640
1615.53,1.320173,322904,15449
1618.51,1.321280,315116,15038
1621.49,1.319478,307217,14722
1624.47,1.328878,299481,14044
1627.44,1.332554,292112,13583
1630.41,1.323584,284245,13493
1634.36,1.321866,274079,13062
1637.32,1.323187,266916,12682
1640.27,1.324844,259612,12288
1643.22,1.313352,251804,12238
1646.16,1.317195,244348,11771
1649.1,1.313279,236703,11506
1652.04,1.315646,228171,11031
1655.95,1.304528,215408,10684
1658.88,1.292338,204937,10454
1661.8,1.300077,193395,9691
1664.72,1.292104,179728,9173
1667.63,1.288686,163642,8418
1670.54,1.270964,146312,7840
1673.44,1.278791,128451,6760
1677.31,1.250227,105080,5906
1680.21,1.268686,88906,4789
1683.1,1.260988,75033,4114
1685.99,1.221758,63520,3812
1688.87,1.263665,53714,2927
1691.75,1.291927,45653,2331
1694.62,1.282745,39137,2041
1697.49,1.220257,33776,2034
1701.31,1.274352,28175,1498

File: Column 1_078148_20241121_164749.csv
Method:,Column 1,,
Host Date-Time:,21/11/24 @ 16:47:49,,
Header Version:,1,,
System Temp (C):,33.17,,
Detector Temp (C):,29.17,,
Humidity (%):,3.22,,
Lamp PD:,3805,,
Shift Vector Coefficients:,-10.5391,0.0761263,-0.000134223,,
Pixel to Wavelength Coefficients:,1775.68,-0.916766,-0.000235065,,
Serial Number:,5510004,,
Scan Config Name:,Column 1,,
Scan Config Type:,Slew,,
Section 1,,
Start wavelength (nm):,900,,
End wavelength (nm):,1700,,
Pattern Pixel Width (nm):,   7.03,,,,
Exposure (ms):,  0.635,,,,
Digital Resolution:,228,,
Num Repeats:,6,,
PGA Gain:,64,,
Total Measurement Time in sec:,  2.726,,
Wavelength (nm),Absorbance (AU),Reference Signal (unitless),Sample Signal (unitless)
901.51,1.347841,108485,4870
905.376,1.311047,121306,5927
909.237,1.310445,131909,6454
913.095,1.317394,143299,6900
916.948,1.331161,156982,7323
922.079,1.330170,179937,8413
925.923,1.318181,200504,9637
929.762,1.328942,222660,10440
933.597,1.325302,244426,11557
937.427,1.323156,263972,12543
941.254,1.329305,281845,13204
945.076,1.315877,297271,14364
950.165,1.313319,315605,15340
953.978,1.318632,328029,15750
957.786,1.319652,340470,16309
961.59,1.321598,352317,16801
965.389,1.310482,363056,17762
969.185,1.308593,373162,18336
972.976,1.311893,382632,18659
976.763,1.308715,391202,19217
981.806,1.307954,400190,19693
985.583,1.309374,406088,19918
989.355,1.299320,410162,20589
993.124,1.311364,412868,20158
996.888,1.307689,414263,20398
1000.65,1.311714,415476,20269
1004.4,1.312725,415479,20222
1009.41,1.315543,414358,20037
1013.15,1.313452,412923,20064
1016.89,1.304576,411526,20409
1020.63,1.318718,409066,19637
1024.36,1.318410,406777,19541
1028.09,1.310768,404427,19773
1031.82,1.310171,401911,19677
1036.78,1.312238,398410,19413
1040.49,1.320218,396204,18954
1044.2,1.312772,394236,19186
1047.91,1.314213,392042,19016
1051.61,1.317010,389823,18787
1055.31,1.319347,388234,18610
1059,1.309538,387599,19004
1063.92,1.313758,386688,18776
1067.61,1.312548,386598,18824
1071.29,1.317711,387377,18639
1074.96,1.316870,388536,18731
1078.63,1.314326,389855,18905
1082.3,1.325831,391215,18475
1085.96,1.319803,393215,18829
1090.84,1.319787,396270,18976
1094.49,1.311971,398760,19442
1098.14,1.318609,400987,19254
1101.79,1.327179,403477,18995
1105.43,1.320490,406116,19416
1109.06,1.316670,407701,19664
1112.7,1.323313,409859,19468
1117.53,1.321172,412494,19690
1121.15,1.321332,414909,19798
1124.77,1.317281,416559,20063
1128.38,1.319116,418532,20073
1131.99,1.319554,419956,20121
1135.6,1.319068,421946,20239
1139.2,1.333572,423881,19664
1143.99,1.328638,426786,20025
1147.58,1.328809,428617,20103
1151.17,1.324103,431169,20443
1154.75,1.321938,433579,20660
1158.33,1.322083,436264,20781
1161.91,1.327276,439132,20669
1165.48,1.322573,442389,21049
1169.04,1.325007,446101,21107
1173.79,1.320054,451929,21628
1177.34,1.320812,456026,21786
1180.9,1.321507,461306,22003
1184.44,1.322012,467657,22280
1187.99,1.320778,473969,22645
1191.52,1.322986,479856,22810
1195.06,1.319518,487372,23353
1199.76,1.316738,497347,23984
1203.29,1.323738,504311,23931
1206.81,1.322942,511507,24317
1210.33,1.329108,519078,24329
1213.84,1.324370,527163,24979
1217.35,1.332035,534208,24870
1220.85,1.320918,540472,25814
1225.51,1.330543,549929,25690
1229.01,1.331262,556888,25972
1232.5,1.320899,562180,26852
1235.98,1.322274,567975,27043
1239.46,1.326944,574815,27076
1242.94,1.320151,582782,27884
1246.41,1.324515,591476,28017
1251.03,1.328541,604016,28347
1254.5,1.327504,612289,28804
1257.96,1.331226,619125,28877
1261.41,1.331720,624551,29097
1264.86,1.324735,629900,29822
1268.31,1.328663,634345,29762
1271.75,1.329351,638574,29913
1276.33,1.331360,642499,29958
1279.76,1.328454,645905,30319
1283.19,1.334616,648307,30003
1286.61,1.335497,650446,30041
1290.03,1.332678,652132,30315
1293.44,1.332243,653907,30428
1296.85,1.331726,655963,30560
1301.39,1.333098,657349,30528
1304.8,1.331730,657558,30634
1308.19,1.336450,658515,30347
1311.58,1.332496,658804,30638
1314.97,1.334863,659011,30481
1318.36,1.332684,658272,30600
1321.73,1.339357,658022,30122
1326.23,1.337113,657870,30271
1329.6,1.338526,656482,30109
1332.97,1.339984,654926,29937
1336.33,1.336167,653727,30146
1339.69,1.333064,652497,30305
1343.04,1.335285,649913,30031
1346.39,1.332427,647671,30125
1349.73,1.328087,645338,30318
1354.18,1.328800,641175,30073
1357.52,1.329870,638376,29868
1360.85,1.334416,635805,29438
1364.17,1.330161,633413,29616
1367.49,1.330991,631026,29448
1370.81,1.329012,628050,29443
1374.12,1.332474,625034,29069
1378.54,1.331519,620272,28911
1381.84,1.330304,616892,28834
1385.14,1.332273,613613,28551
1388.43,1.328700,611526,28689
1391.72,1.328419,610663,28667
1395.01,1.337183,610634,28093
1398.29,1.333786,611700,28363
1402.66,1.327517,614051,28886
1405.93,1.326175,616268,29080
1409.2,1.334645,617795,28589
1412.46,1.334658,618872,28638
1415.72,1.330510,619795,28956
1418.98,1.336433,620495,28596
1422.23,1.337775,621087,28535
1426.56,1.329744,621375,29081
1429.8,1.334341,621616,28786
1433.04,1.341803,622129,28319
1436.27,1.340202,621526,28396
1439.5,1.336881,621113,28595
1442.72,1.341972,620921,28253
1445.94,1.333218,620270,28798
1450.23,1.339193,618860,28340
1453.44,1.330028,617697,28890
1456.64,1.336204,616264,28416
1459.85,1.341613,614413,27980
1463.04,1.338309,612307,28097
1466.24,1.338195,610032,28000
1469.43,1.341960,607345,27636
1473.67,1.338735,603789,27679
1476.85,1.340332,601175,27458
1480.02,1.338696,597737,27404
1483.19,1.334835,594479,27498
1486.36,1.333754,591232,27416
1489.52,1.338936,587853,26936
1492.68,1.342632,583875,26527
1496.89,1.342729,578062,26257
1500.03,1.338054,574159,26362
1503.18,1.347971,570285,25593
1506.32,1.340467,565444,25818
1509.45,1.343114,560571,25440
1512.58,1.339589,555821,25430
1515.71,1.334793,550344,25459
1519.87,1.345322,543983,24562
1522.99,1.340375,538764,24605
1526.1,1.337646,533692,24527
1529.21,1.336054,527902,24350
1532.32,1.343983,521886,23637
1535.42,1.342190,515888,23462
1538.51,1.344154,509987,23089
1541.6,1.339328,503936,23070
1545.72,1.338789,494694,22675
1548.8,1.330593,488378,22812
1551.88,1.343762,481832,21834
1554.95,1.340204,474989,21701
1558.02,1.341881,467818,21291
1561.08,1.344716,460730,20832
1564.15,1.338884,454170,20813
1568.22,1.336209,444181,20481
1571.27,1.339920,436947,19976
1574.32,1.335236,429598,19853
1577.36,1.331813,422039,19658
1580.4,1.344253,414375,18756
1583.43,1.337342,406354,18688
1586.46,1.339233,398475,18246
1590.49,1.339534,388982,17799
1593.51,1.329538,380708,17826
1596.53,1.334828,372727,17241
1599.54,1.337779,365060,16772
1602.55,1.337030,357543,16455
1605.55,1.331840,349495,16278
1608.55,1.324751,341154,16151
1612.54,1.331667,330877,15417
1615.53,1.325576,322904,15258
1618.51,1.325430,315116,14895
1621.49,1.330382,307217,14357
1624.47,1.329559,299481,14022
1627.44,1.325324,292112,13811
1630.41,1.329972,284245,13296
1634.36,1.329142,274079,12845
1637.32,1.330056,266916,12483
1640.27,1.329927,259612,12145
1643.22,1.323077,251804,11967
1646.16,1.318304,244348,11741
1649.1,1.329978,236703,11072
1652.04,1.332709,228171,10606
1655.95,1.309516,215408,10562
1658.88,1.313405,204937,9959
1661.8,1.294732,193395,9811
1664.72,1.294907,179728,9114
1667.63,1.299340,163642,8214
1670.54,1.273464,146312,7795
1673.44,1.277700,128451,6777
1677.31,1.313524,105080,5105
1680.21,1.280638,88906,4659
1683.1,1.217145,75033,4551
1685.99,1.254030,63520,3539
1688.87,1.349695,53714,2401
1691.75,1.230687,45653,2684
1694.62,1.332278,39137,1821
1697.49,1.259563,33776,1858
1701.31,1.260935,28175,1545

File: Column 1_078149_20241121_164752.csv
Method:,Column 1,,
Host Date-Time:,21/11/24 @ 16:47:52,,
Header Version:,1,,
System Temp (C):,33.2,,
Detector Temp (C):,29.23,,
Humidity (%):,3.22,,
Lamp PD:,3805,,
Shift Vector Coefficients:,-10.5391,0.0761263,-0.000134223,,
Pixel to Wavelength Coefficients:,1775.68,-0.916766,-0.000235065,,
Serial Number:,5510004,,
Scan Config Name:,Column 1,,
Scan Config Type:,Slew,,
Section 1,,
Start wavelength (nm):,900,,
End wavelength (nm):,1700,,
Pattern Pixel Width (nm):,   7.03,,,,
Exposure (ms):,  0.635,,,,
Digital Resolution:,228,,
Num Repeats:,6,,
PGA Gain:,64,,
Total Measurement Time in sec:,  2.728,,
Wavelength (nm),Absorbance (AU),Reference Signal (unitless),Sample Signal (unitless)
901.51,1.333974,108485,5028
905.376,1.331834,121306,5650
909.237,1.355874,131909,5813
913.095,1.327390,143299,6743
916.948,1.312586,156982,7643
922.079,1.315252,179937,8707
925.923,1.331683,200504,9342
929.762,1.329858,222660,10418
933.597,1.327638,244426,11495
937.427,1.328346,263972,12394
941.254,1.315738,281845,13623
945.076,1.319124,297271,14257
950.165,1.321232,315605,15063
953.978,1.315554,328029,15862
957.786,1.318907,340470,16337
961.59,1.316638,352317,16994
965.389,1.304243,363056,18019
969.185,1.317736,373162,17954
972.976,1.314133,382632,18563
976.763,1.309258,391202,19193
981.806,1.316147,400190,19325
985.583,1.315523,406088,19638
989.355,1.306316,410162,20260
993.124,1.315368,412868,19973
996.888,1.308882,414263,20342
1000.65,1.314530,415476,20138
1004.4,1.318454,415479,19957
1009.41,1.310886,414358,20253
1013.15,1.317169,412923,19893
1016.89,1.313194,411526,20008
1020.63,1.313049,409066,19895
1024.36,1.319879,406777,19475
1028.09,1.316739,404427,19503
1031.82,1.309862,401911,19691
1036.78,1.314368,398410,19318
1040.49,1.313962,396204,19229
1044.2,1.313474,394236,19155
1047.91,1.311708,392042,19126
1051.61,1.312068,389823,19002
1055.31,1.315814,388234,18762
1059,1.311990,387599,18897
1063.92,1.312741,386688,18820
1067.61,1.314281,386598,18749
1071.29,1.323009,387377,18413
1074.96,1.312028,388536,18941
1078.63,1.319736,389855,18671
1082.3,1.318489,391215,18790
1085.96,1.325374,393215,18589
1090.84,1.321759,396270,18890
1094.49,1.324020,398760,18910
1098.14,1.322461,400987,19084
1101.79,1.323219,403477,19169
1105.43,1.317948,406116,19530
1109.06,1.314115,407701,19780
1112.7,1.328068,409859,19256
1117.53,1.326052,412494,19470
1121.15,1.316706,414909,20010
1124.77,1.326800,416559,19628
1128.38,1.323378,418532,19877
1131.99,1.315601,419956,20305
1135.6,1.323598,421946,20029
1139.2,1.324178,423881,20094
1143.99,1.321859,426786,20340
1147.58,1.317276,428617,20644
1151.17,1.321857,431169,20549
1154.75,1.327523,433579,20396
1158.33,1.320393,436264,20862
1161.91,1.324657,439132,20794
1165.48,1.317690,442389,21287
1169.04,1.329744,446101,20878
1173.79,1.319933,451929,21634
1177.34,1.322110,456026,21721
1180.9,1.323604,461306,21897
1184.44,1.318344,467657,22469
1187.99,1.322835,473969,22538
1191.52,1.319006,479856,23020
1195.06,1.324267,487372,23099
1199.76,1.324595,497347,23554
1203.29,1.323611,504311,23938
1206.81,1.332220,511507,23803
1210.33,1.330664,519078,24242
1213.84,1.320579,527163,25198
1217.35,1.330448,534208,24961
1220.85,1.330202,540472,25268
1225.51,1.321674,549929,26220
1229.01,1.328579,556888,26133
1232.5,1.329293,562180,26338
1235.98,1.325320,567975,26854
1239.46,1.322222,574815,27372
1242.94,1.328898,582782,27328
1246.41,1.330006,591476,27665
1251.03,1.331570,604016,28150
1254.5,1.335385,612289,28286
1257.96,1.327915,619125,29098
1261.41,1.331974,624551,29080
1264.86,1.336200,629900,29045
1268.31,1.328561,634345,29769
1271.75,1.330340,638574,29845
1276.33,1.328816,642499,30134
1279.76,1.333960,645905,29937
1283.19,1.335166,648307,29965
1286.61,1.327263,650446,30616
1290.03,1.331733,652132,30381
1293.44,1.339612,653907,29916
1296.85,1.335508,655963,30295
1301.39,1.332046,657349,30602
1304.8,1.333549,657558,30506
1308.19,1.338300,658515,30218
1311.58,1.333901,658804,30539
1314.97,1.333512,659011,30576
1318.36,1.330815,658272,30732
1321.73,1.334311,658022,30474
1326.23,1.337128,657870,30270
1329.6,1.337245,656482,30198
1332.97,1.337857,654926,30084
1336.33,1.329675,653727,30600
1339.69,1.330649,652497,30474
1343.04,1.335662,649913,30005
1346.39,1.331391,647671,30197
1349.73,1.334697,645338,29860
1354.18,1.333592,641175,29743
1357.52,1.333242,638376,29637
1360.85,1.328554,635805,29838
1364.17,1.327966,633413,29766
1367.49,1.330785,631026,29462
1370.81,1.331557,628050,29271
1374.12,1.334045,625034,28964
1378.54,1.333265,620272,28795
1381.84,1.339283,616892,28244
1385.14,1.332380,613613,28544
1388.43,1.327143,611526,28792
1391.72,1.329071,610663,28624
1395.01,1.332340,610634,28408
1398.29,1.330567,611700,28574
1402.66,1.330550,614051,28685
1405.93,1.334377,616268,28536
1409.2,1.333553,617795,28661
1412.46,1.336985,618872,28485
1415.72,1.333882,619795,28732
1418.98,1.338442,620495,28464
1422.23,1.339987,621087,28390
1426.56,1.333765,621375,28813
1429.8,1.341199,621616,28335
1433.04,1.340165,622129,28426
1436.27,1.337686,621526,28561
1439.5,1.341169,621113,28314
1442.72,1.342510,620921,28218
1445.94,1.336686,620270,28569
1450.23,1.335242,618860,28599
1453.44,1.338989,617697,28300
1456.64,1.336663,616264,28386
1459.85,1.342545,614413,27920
1463.04,1.343221,612307,27781
1466.24,1.339889,610032,27891
1469.43,1.336898,607345,27960
1473.67,1.338766,603789,27677
1476.85,1.339305,601175,27523
1480.02,1.334140,597737,27693
1483.19,1.338866,594479,27244
1486.36,1.343073,591232,26834
1489.52,1.345057,587853,26559
1492.68,1.342664,583875,26525
1496.89,1.346500,578062,26030
1500.03,1.334575,574159,26574
1503.18,1.334718,570285,26386
1506.32,1.339694,565444,25864
1509.45,1.345527,560571,25299
1512.58,1.340820,555821,25358
1515.71,1.341792,550344,25052
1519.87,1.336743,543983,25052
1522.99,1.342481,538764,24486
1526.1,1.335967,533692,24622
1529.21,1.339708,527902,24146
1532.32,1.338814,521886,23920
1535.42,1.343729,515888,23379
1538.51,1.342614,509987,23171
1541.6,1.341044,503936,22979
1545.72,1.340940,494694,22563
1548.8,1.339790,488378,22334
1551.88,1.338995,481832,22075
1554.95,1.344993,474989,21463
1558.02,1.333938,467818,21684
1561.08,1.337336,460730,21189
1564.15,1.339824,454170,20768
1568.22,1.344278,444181,20104
1571.27,1.340442,436947,19952
1574.32,1.346853,429598,19329
1577.36,1.340538,422039,19267
1580.4,1.342751,414375,18821
1583.43,1.338389,406354,18643
1586.46,1.344960,398475,18007
1590.49,1.337052,388982,17901
1593.51,1.334118,380708,17639
1596.53,1.333445,372727,17296
1599.54,1.334426,365060,16902
1602.55,1.328148,357543,16795
1605.55,1.334597,349495,16175
1608.55,1.327367,341154,16054
1612.54,1.327517,330877,15565
1615.53,1.327401,322904,15194
1618.51,1.328091,315116,14804
1621.49,1.336014,307217,14172
1624.47,1.320973,299481,14302
1627.44,1.331979,292112,13601
1630.41,1.326815,284245,13393
1634.36,1.333252,274079,12724
1637.32,1.324662,266916,12639
1640.27,1.326011,259612,12255
1643.22,1.322968,251804,11970
1646.16,1.319712,244348,11703
1649.1,1.321471,236703,11291
1652.04,1.316434,228171,11011
1655.95,1.307833,215408,10603
1658.88,1.314409,204937,9936
1661.8,1.295751,193395,9788
1664.72,1.321888,179728,8565
1667.63,1.304125,163642,8124
1670.54,1.296577,146312,7391
1673.44,1.266940,128451,6947
1677.31,1.247076,105080,5949
1680.21,1.271689,88906,4756
1683.1,1.246251,75033,4256
1685.99,1.305843,63520,3141
1688.87,1.300981,53714,2686
1691.75,1.362366,45653,1982
1694.62,1.198837,39137,2476
1697.49,1.330501,33776,1578
1701.31,1.514357,28175,862