Folder: textile_sorting_NIRSCAN_/ML/samples/unknown (part 119)

File: Column 1_078882_20241121_172644.csv
Method:,Column 1,,
Host Date-Time:,21/11/24 @ 17:26:44,,
Header Version:,1,,
System Temp (C):,37.49,,
Detector Temp (C):,36.21,,
Humidity (%):,0.98,,
Lamp PD:,3796,,
Shift Vector Coefficients:,-10.5391,0.0761263,-0.000134223,,
Pixel to Wavelength Coefficients:,1775.68,-0.916766,-0.000235065,,
Serial Number:,5510004,,
Scan Config Name:,Column 1,,
Scan Config Type:,Slew,,
Section 1,,
Start wavelength (nm):,900,,
End wavelength (nm):,1700,,
Pattern Pixel Width (nm):,   7.03,,,,
Exposure (ms):,  0.635,,,,
Digital Resolution:,228,,
Num Repeats:,6,,
PGA Gain:,64,,
Total Measurement Time in sec:,  2.728,,
Wavelength (nm),Absorbance (AU),Reference Signal (unitless),Sample Signal (unitless)
901.51,1.321208,108485,5178
905.376,1.359524,121306,5301
909.237,1.350085,131909,5891
913.095,1.341862,143299,6522
916.948,1.320731,156982,7501
922.079,1.325957,179937,8495
925.923,1.311740,200504,9781
929.762,1.340834,222660,10158
933.597,1.325791,244426,11544
937.427,1.322257,263972,12569
941.254,1.325898,281845,13308
945.076,1.324457,297271,14083
950.165,1.312640,315605,15364
953.978,1.322315,328029,15617
957.786,1.319785,340470,16304
961.59,1.317969,352317,16942
965.389,1.311020,363056,17740
969.185,1.311516,373162,18213
972.976,1.308924,382632,18787
976.763,1.308399,391202,19231
981.806,1.313682,400190,19435
985.583,1.300355,406088,20336
989.355,1.307755,410162,20193
993.124,1.317570,412868,19872
996.888,1.302987,414263,20620
1000.65,1.313001,415476,20209
1004.4,1.300402,415479,20804
1009.41,1.310286,414358,20281
1013.15,1.309380,412923,20253
1016.89,1.310726,411526,20122
1020.63,1.299341,409066,20533
1024.36,1.304478,406777,20178
1028.09,1.303817,404427,20092
1031.82,1.302948,401911,20007
1036.78,1.308296,398410,19590
1040.49,1.308977,396204,19451
1044.2,1.306257,394236,19476
1047.91,1.307528,392042,19311
1051.61,1.318979,389823,18702
1055.31,1.311874,388234,18933
1059,1.317215,387599,18671
1063.92,1.309339,386688,18968
1067.61,1.307798,386598,19031
1071.29,1.313745,387377,18810
1074.96,1.312786,388536,18908
1078.63,1.304514,389855,19337
1082.3,1.317981,391215,18812
1085.96,1.312189,393215,19162
1090.84,1.312456,396270,19299
1094.49,1.313335,398760,19381
1098.14,1.316921,400987,19329
1101.79,1.310780,403477,19726
1105.43,1.319061,406116,19480
1109.06,1.313435,407701,19811
1112.7,1.316408,409859,19780
1117.53,1.312503,412494,20087
1121.15,1.325033,414909,19630
1124.77,1.320104,416559,19933
1128.38,1.306914,418532,20645
1131.99,1.315280,419956,20320
1135.6,1.316692,421946,20350
1139.2,1.315787,423881,20486
1143.99,1.315353,426786,20647
1147.58,1.322695,428617,20388
1151.17,1.320254,431169,20625
1154.75,1.307528,433579,21357
1158.33,1.314316,436264,21156
1161.91,1.320459,439132,20996
1165.48,1.310126,442389,21661
1169.04,1.321462,446101,21280
1173.79,1.314805,451929,21891
1177.34,1.316587,456026,21999
1180.9,1.317656,461306,22199
1184.44,1.309088,467657,22953
1187.99,1.329495,473969,22195
1191.52,1.319761,479856,22980
1195.06,1.318070,487372,23431
1199.76,1.315346,497347,24061
1203.29,1.321565,504311,24051
1206.81,1.315399,511507,24743
1210.33,1.326545,519078,24473
1213.84,1.318241,527163,25334
1217.35,1.320116,534208,25562
1220.85,1.321103,540472,25803
1225.51,1.320764,549929,26275
1229.01,1.325994,556888,26289
1232.5,1.321757,562180,26799
1235.98,1.326405,567975,26787
1239.46,1.318147,574815,27630
1242.94,1.320431,582782,27866
1246.41,1.326489,591476,27890
1251.03,1.323969,604016,28647
1254.5,1.326254,612289,28887
1257.96,1.321471,619125,29533
1261.41,1.324863,624551,29560
1264.86,1.324822,629900,29816
1268.31,1.326248,634345,29928
1271.75,1.330689,638574,29821
1276.33,1.330173,642499,30040
1279.76,1.330795,645905,30156
1283.19,1.325350,648307,30650
1286.61,1.330695,650446,30375
1290.03,1.329339,652132,30549
1293.44,1.326500,653907,30833
1296.85,1.325826,655963,30978
1301.39,1.326406,657349,31002
1304.8,1.331376,657558,30659
1308.19,1.323243,658515,31284
1311.58,1.330586,658804,30773
1314.97,1.332462,659011,30650
1318.36,1.328798,658272,30875
1321.73,1.329647,658022,30803
1326.23,1.324821,657870,31140
1329.6,1.330778,656482,30651
1332.97,1.333319,654926,30400
1336.33,1.327241,653727,30772
1339.69,1.333781,652497,30255
1343.04,1.329996,649913,30399
1346.39,1.329153,647671,30353
1349.73,1.332029,645338,30044
1354.18,1.324174,641175,30395
1357.52,1.326712,638376,30086
1360.85,1.327871,635805,29885
1364.17,1.335309,633413,29267
1367.49,1.323404,631026,29967
1370.81,1.326908,628050,29586
1374.12,1.321454,625034,29816
1378.54,1.330754,620272,28962
1381.84,1.326674,616892,29076
1385.14,1.328608,613613,28793
1388.43,1.328155,611526,28725
1391.72,1.328935,610663,28633
1395.01,1.330038,610634,28559
1398.29,1.329793,611700,28625
1402.66,1.325477,614051,29022
1405.93,1.333358,616268,28603
1409.2,1.329631,617795,28921
1412.46,1.336710,618872,28503
1415.72,1.328474,619795,29092
1418.98,1.331450,620495,28926
1422.23,1.335543,621087,28682
1426.56,1.336244,621375,28649
1429.8,1.332204,621616,28928
1433.04,1.330465,622129,29068
1436.27,1.332051,621526,28934
1439.5,1.332528,621113,28883
1442.72,1.340575,620921,28344
1445.94,1.336975,620270,28550
1450.23,1.329254,618860,28996
1453.44,1.331896,617697,28766
1456.64,1.332521,616264,28658
1459.85,1.331912,614413,28612
1463.04,1.339873,612307,27996
1466.24,1.334780,610032,28221
1469.43,1.334528,607345,28113
1473.67,1.341000,603789,27535
1476.85,1.327214,601175,28300
1480.02,1.338047,597737,27445
1483.19,1.335199,594479,27475
1486.36,1.339510,591232,27055
1489.52,1.334492,587853,27213
1492.68,1.331001,583875,27247
1496.89,1.342746,578062,26256
1500.03,1.332928,574159,26675
1503.18,1.345534,570285,25737
1506.32,1.334536,565444,26173
1509.45,1.331757,560571,26114
1512.58,1.333686,555821,25778
1515.71,1.339165,550344,25204
1519.87,1.333565,543983,25236
1522.99,1.342428,538764,24489
1526.1,1.339705,533692,24411
1529.21,1.332184,527902,24568
1532.32,1.345991,521886,23528
1535.42,1.329548,515888,24155
1538.51,1.333728,509987,23650
1541.6,1.327755,503936,23693
1545.72,1.344263,494694,22391
1548.8,1.338024,488378,22425
1551.88,1.331544,481832,22457
1554.95,1.337968,474989,21813
1558.02,1.344069,467818,21184
1561.08,1.330423,460730,21529
1564.15,1.337842,454170,20863
1568.22,1.333735,444181,20598
1571.27,1.330692,436947,20405
1574.32,1.332315,429598,19987
1577.36,1.332631,422039,19621
1580.4,1.337453,414375,19052
1583.43,1.334400,406354,18815
1586.46,1.329559,398475,18657
1590.49,1.330168,388982,18187
1593.51,1.327133,380708,17925
1596.53,1.332567,372727,17331
1599.54,1.330665,365060,17049
1602.55,1.332071,357543,16644
1605.55,1.321505,349495,16670
1608.55,1.321990,341154,16254
1612.54,1.331667,330877,15417
1615.53,1.329263,322904,15129
1618.51,1.327710,315116,14817
1621.49,1.326557,307217,14484
1624.47,1.308049,299481,14734
1627.44,1.319390,292112,14001
1630.41,1.331051,284245,13263
1634.36,1.328466,274079,12865
1637.32,1.318995,266916,12805
1640.27,1.311994,259612,12657
1643.22,1.317094,251804,12133
1646.16,1.310968,244348,11941
1649.1,1.316310,236703,11426
1652.04,1.296620,228171,11525
1655.95,1.296473,215408,10884
1658.88,1.288862,204937,10538
1661.8,1.285751,193395,10016
1664.72,1.266637,179728,9727
1667.63,1.255044,163642,9096
1670.54,1.225561,146312,8704
1673.44,1.225985,128451,7634
1677.31,1.182419,105080,6904
1680.21,1.137356,88906,6480
1683.1,1.146736,75033,5352
1685.99,1.156311,63520,4432
1688.87,1.162003,53714,3699
1691.75,1.147586,45653,3250
1694.62,1.144810,39137,2804
1697.49,1.113301,33776,2602
1701.31,1.203612,28175,1763

File: Column 1_078884_20241121_172650.csv
Method:,Column 1,,
Host Date-Time:,21/11/24 @ 17:26:50,,
Header Version:,1,,
System Temp (C):,37.53,,
Detector Temp (C):,36.18,,
Humidity (%):,0.88,,
Lamp PD:,3796,,
Shift Vector Coefficients:,-10.5391,0.0761263,-0.000134223,,
Pixel to Wavelength Coefficients:,1775.68,-0.916766,-0.000235065,,
Serial Number:,5510004,,
Scan Config Name:,Column 1,,
Scan Config Type:,Slew,,
Section 1,,
Start wavelength (nm):,900,,
End wavelength (nm):,1700,,
Pattern Pixel Width (nm):,   7.03,,,,
Exposure (ms):,  0.635,,,,
Digital Resolution:,228,,
Num Repeats:,6,,
PGA Gain:,64,,
Total Measurement Time in sec:,  2.724,,
Wavelength (nm),Absorbance (AU),Reference Signal (unitless),Sample Signal (unitless)
901.51,1.299851,108485,5439
905.376,1.306528,121306,5989
909.237,1.329919,131909,6171
913.095,1.304068,143299,7115
916.948,1.317271,156982,7561
922.079,1.354480,179937,7955
925.923,1.332195,200504,9331
929.762,1.332199,222660,10362
933.597,1.326657,244426,11521
937.427,1.330348,263972,12337
941.254,1.329042,281845,13212
945.076,1.320956,297271,14197
950.165,1.314027,315605,15315
953.978,1.321620,328029,15642
957.786,1.315860,340470,16452
961.59,1.313227,352317,17128
965.389,1.309334,363056,17809
969.185,1.312997,373162,18151
972.976,1.314953,382632,18528
976.763,1.308512,391202,19226
981.806,1.304703,400190,19841
985.583,1.304302,406088,20152
989.355,1.310711,410162,20056
993.124,1.308529,412868,20290
996.888,1.310465,414263,20268
1000.65,1.308831,415476,20404
1004.4,1.301992,415479,20728
1009.41,1.305643,414358,20499
1013.15,1.305877,412923,20417
1016.89,1.302622,411526,20501
1020.63,1.307605,409066,20146
1024.36,1.308957,406777,19971
1028.09,1.301360,404427,20206
1031.82,1.304644,401911,19929
1036.78,1.301128,398410,19916
1040.49,1.303629,396204,19692
1044.2,1.315747,394236,19055
1047.91,1.306450,392042,19359
1051.61,1.304591,389823,19332
1055.31,1.315907,388234,18758
1059,1.318426,387599,18619
1063.92,1.304852,386688,19165
1067.61,1.306863,386598,19072
1071.29,1.314901,387377,18760
1074.96,1.319242,388536,18629
1078.63,1.304851,389855,19322
1082.3,1.311200,391215,19108
1085.96,1.312325,393215,19156
1090.84,1.320497,396270,18945
1094.49,1.313246,398760,19385
1098.14,1.318925,400987,19240
1101.79,1.317413,403477,19427
1105.43,1.316217,406116,19608
1109.06,1.318751,407701,19570
1112.7,1.309676,409859,20089
1117.53,1.317067,412494,19877
1121.15,1.320652,414909,19829
1124.77,1.309153,416559,20442
1128.38,1.312056,418532,20402
1131.99,1.322174,419956,20000
1135.6,1.313885,421946,20482
1139.2,1.316402,423881,20457
1143.99,1.320218,426786,20417
1147.58,1.317381,428617,20639
1151.17,1.322068,431169,20539
1154.75,1.312786,433579,21100
1158.33,1.314521,436264,21146
1161.91,1.323718,439132,20839
1165.48,1.314823,442389,21428
1169.04,1.316147,446101,21542
1173.79,1.313576,451929,21953
1177.34,1.317397,456026,21958
1180.9,1.313373,461306,22419
1184.44,1.317494,467657,22513
1187.99,1.310955,473969,23163
1191.52,1.323843,479856,22765
1195.06,1.320896,487372,23279
1199.76,1.316141,497347,24017
1203.29,1.312417,504311,24563
1206.81,1.313298,511507,24863
1210.33,1.317032,519078,25015
1213.84,1.327231,527163,24815
1217.35,1.318742,534208,25643
1220.85,1.322283,540472,25733
1225.51,1.319856,549929,26330
1229.01,1.324740,556888,26365
1232.5,1.318512,562180,27000
1235.98,1.319569,567975,27212
1239.46,1.316876,574815,27711
1242.94,1.324015,582782,27637
1246.41,1.321857,591476,28189
1251.03,1.327272,604016,28430
1254.5,1.324813,612289,28983
1257.96,1.319885,619125,29641
1261.41,1.321293,624551,29804
1264.86,1.324880,629900,29812
1268.31,1.322017,634345,30221
1271.75,1.323855,638574,30294
1276.33,1.324642,642499,30425
1279.76,1.328626,645905,30307
1283.19,1.328407,648307,30435
1286.61,1.324858,650446,30786
1290.03,1.328146,652132,30633
1293.44,1.326782,653907,30813
1296.85,1.328456,655963,30791
1301.39,1.323168,657349,31234
1304.8,1.324992,657558,31113
1308.19,1.328973,658515,30874
1311.58,1.326793,658804,31043
1314.97,1.320527,659011,31504
1318.36,1.322833,658272,31302
1321.73,1.327776,658022,30936
1326.23,1.330917,657870,30706
1329.6,1.337058,656482,30211
1332.97,1.328375,654926,30748
1336.33,1.325326,653727,30908
1339.69,1.328729,652497,30609
1343.04,1.328755,649913,30486
1346.39,1.324796,647671,30659
1349.73,1.328502,645338,30289
1354.18,1.324746,641175,30355
1357.52,1.324193,638376,30261
1360.85,1.320279,635805,30412
1364.17,1.326234,633413,29885
1367.49,1.325219,631026,29842
1370.81,1.329337,628050,29421
1374.12,1.328325,625034,29348
1378.54,1.319081,620272,29751
1381.84,1.324380,616892,29230
1385.14,1.330300,613613,28681
1388.43,1.326149,611526,28858
1391.72,1.329709,610663,28582
1395.01,1.325906,610634,28832
1398.29,1.325731,611700,28894
1402.66,1.323551,614051,29151
1405.93,1.332690,616268,28647
1409.2,1.332902,617795,28704
1412.46,1.335721,618872,28568
1415.72,1.330060,619795,28986
1418.98,1.334569,620495,28719
1422.23,1.329842,621087,29061
1426.56,1.329625,621375,29089
1429.8,1.337187,621616,28598
1433.04,1.334820,622129,28778
1436.27,1.329626,621526,29096
1439.5,1.325281,621113,29369
1442.72,1.329442,620921,29080
1445.94,1.333007,620270,28812
1450.23,1.331176,618860,28868
1453.44,1.332259,617697,28742
1456.64,1.332779,616264,28641
1459.85,1.328857,614413,28814
1463.04,1.327456,612307,28808
1466.24,1.333459,610032,28307
1469.43,1.330347,607345,28385
1473.67,1.334317,603789,27962
1476.85,1.332324,601175,27969
1480.02,1.333357,597737,27743
1483.19,1.331500,594479,27710
1486.36,1.332488,591232,27496
1489.52,1.332915,587853,27312
1492.68,1.339532,583875,26717
1496.89,1.335187,578062,26717
1500.03,1.332814,574159,26682
1503.18,1.334850,570285,26378
1506.32,1.331016,565444,26386
1509.45,1.336540,560571,25828
1512.58,1.328794,555821,26070
1515.71,1.339768,550344,25169
1519.87,1.339421,543983,24898
1522.99,1.333928,538764,24973
1526.1,1.330882,533692,24912
1529.21,1.336054,527902,24350
1532.32,1.330542,521886,24380
1535.42,1.336526,515888,23770
1538.51,1.331238,509987,23786
1541.6,1.327590,503936,23702
1545.72,1.331496,494694,23059
1548.8,1.333822,488378,22643
1551.88,1.334727,481832,22293
1554.95,1.332154,474989,22107
1558.02,1.336993,467818,21532
1561.08,1.332647,460730,21419
1564.15,1.338446,454170,20834
1568.22,1.324432,444181,21044
1571.27,1.329162,436947,20477
1574.32,1.332184,429598,19993
1577.36,1.325388,422039,19951
1580.4,1.333347,414375,19233
1583.43,1.330197,406354,18998
1586.46,1.335937,398475,18385
1590.49,1.326270,388982,18351
1593.51,1.328613,380708,17864
1596.53,1.332517,372727,17333
1599.54,1.332913,365060,16961
1602.55,1.328278,357543,16790
1605.55,1.325299,349495,16525
1608.55,1.331362,341154,15907
1612.54,1.326291,330877,15609
1615.53,1.318462,322904,15510
1618.51,1.324440,315116,14929
1621.49,1.319951,307217,14706
1624.47,1.318761,299481,14375
1627.44,1.312406,292112,14228
1630.41,1.306357,284245,14039
1634.36,1.317401,274079,13197
1637.32,1.318046,266916,12833
1640.27,1.299847,259612,13016
1643.22,1.320436,251804,12040
1646.16,1.323813,244348,11593
1649.1,1.308363,236703,11637
1652.04,1.312117,228171,11121
1655.95,1.297752,215408,10852
1658.88,1.295088,204937,10388
1661.8,1.288317,193395,9957
1664.72,1.281673,179728,9396
1667.63,1.251383,163642,9173
1670.54,1.222181,146312,8772
1673.44,1.208644,128451,7945
1677.31,1.142769,105080,7564
1680.21,1.149384,88906,6303
1683.1,1.131429,75033,5544
1685.99,1.128325,63520,4727
1688.87,1.130750,53714,3975
1691.75,1.111818,45653,3529
1694.62,1.114021,39137,3010
1697.49,1.172774,33776,2269
1701.31,1.092883,28175,2275

File: Column 1_078887_20241121_172658.csv
Method:,Column 1,,
Host Date-Time:,21/11/24 @ 17:26:58,,
Header Version:,1,,
System Temp (C):,37.21,,
Detector Temp (C):,36.22,,
Humidity (%):,0.73,,
Lamp PD:,3796,,
Shift Vector Coefficients:,-10.5391,0.0761263,-0.000134223,,
Pixel to Wavelength Coefficients:,1775.68,-0.916766,-0.000235065,,
Serial Number:,5510004,,
Scan Config Name:,Column 1,,
Scan Config Type:,Slew,,
Section 1,,
Start wavelength (nm):,900,,
End wavelength (nm):,1700,,
Pattern Pixel Width (nm):,   7.03,,,,
Exposure (ms):,  0.635,,,,
Digital Resolution:,228,,
Num Repeats:,6,,
PGA Gain:,64,,
Total Measurement Time in sec:,  2.712,,
Wavelength (nm),Absorbance (AU),Reference Signal (unitless),Sample Signal (unitless)
901.51,1.348555,108485,4862
905.376,1.343994,121306,5494
909.237,1.337515,131909,6064
913.095,1.331532,143299,6679
916.948,1.329563,156982,7350
922.079,1.325446,179937,8505
925.923,1.320486,200504,9586
929.762,1.331027,222660,10390
933.597,1.335453,244426,11290
937.427,1.327646,263972,12414
941.254,1.329535,281845,13197
945.076,1.325507,297271,14049
950.165,1.317300,315605,15200
953.978,1.306558,328029,16194
957.786,1.313386,340470,16546
961.59,1.315235,352317,17049
965.389,1.306345,363056,17932
969.185,1.313715,373162,18121
972.976,1.310777,382632,18707
976.763,1.302055,391202,19514
981.806,1.305513,400190,19804
985.583,1.306787,406088,20037
989.355,1.301944,410162,20465
993.124,1.308059,412868,20312
996.888,1.309844,414263,20297
1000.65,1.309044,415476,20394
1004.4,1.305463,415479,20563
1009.41,1.305410,414358,20510
1013.15,1.306580,412923,20384
1016.89,1.309390,411526,20184
1020.63,1.306571,409066,20194
1024.36,1.304844,406777,20161
1028.09,1.308424,404427,19880
1031.82,1.312384,401911,19577
1036.78,1.302285,398410,19863
1040.49,1.313060,396204,19269
1044.2,1.308403,394236,19380
1047.91,1.307528,392042,19311
1051.61,1.305851,389823,19276
1055.31,1.300420,388234,19439
1059,1.314479,387599,18789
1063.92,1.318268,386688,18582
1067.61,1.315581,386598,18693
1071.29,1.316803,387377,18678
1074.96,1.321462,388536,18534
1078.63,1.308689,389855,19152
1082.3,1.309341,391215,19190
1085.96,1.314416,393215,19064
1090.84,1.314396,396270,19213
1094.49,1.307703,398760,19634
1098.14,1.314166,400987,19452
1101.79,1.319385,403477,19339
1105.43,1.312885,406116,19759
1109.06,1.318551,407701,19579
1112.7,1.313716,409859,19903
1117.53,1.323206,412494,19598
1121.15,1.312881,414909,20187
1124.77,1.316589,416559,20095
1128.38,1.321851,418532,19947
1131.99,1.313765,419956,20391
1135.6,1.315074,421946,20426
1139.2,1.316997,423881,20429
1143.99,1.316491,426786,20593
1147.58,1.311425,428617,20924
1151.17,1.318384,431169,20714
1154.75,1.314642,433579,21010
1158.33,1.322229,436264,20774
1161.91,1.309128,439132,21551
1165.48,1.322367,442389,21059
1169.04,1.320544,446101,21325
1173.79,1.312569,451929,22004
1177.34,1.317951,456026,21930
1180.9,1.320265,461306,22066
1184.44,1.320339,467657,22366
1187.99,1.319495,473969,22712
1191.52,1.320309,479856,22951
1195.06,1.321195,487372,23263
1199.76,1.319262,497347,23845
1203.29,1.318542,504311,24219
1206.81,1.318482,511507,24568
1210.33,1.322887,519078,24680
1213.84,1.325501,527163,24914
1217.35,1.323441,534208,25367
1220.85,1.376136,540472,22732
1225.51,1.321392,549929,26237
1229.01,1.322768,556888,26485
1232.5,1.316554,562180,27122
1235.98,1.321072,567975,27118
1239.46,1.319343,574815,27554
1242.94,1.320276,582782,27876
1246.41,1.316133,591476,28563
1251.03,1.323757,604016,28661
1254.5,1.320905,612289,29245
1257.96,1.324348,619125,29338
1261.41,1.327457,624551,29384
1264.86,1.325741,629900,29753
1268.31,1.323615,634345,30110
1271.75,1.322867,638574,30363
1276.33,1.321371,642499,30655
1279.76,1.325072,645905,30556
1283.19,1.325719,648307,30624
1286.61,1.319934,650446,31137
1290.03,1.326858,652132,30724
1293.44,1.329681,653907,30608
1296.85,1.328329,655963,30800
1301.39,1.322960,657349,31249
1304.8,1.328397,657558,30870
1308.19,1.328607,658515,30900
1311.58,1.326932,658804,31033
1314.97,1.334977,659011,30473
1318.36,1.328883,658272,30869
1321.73,1.331923,658022,30642
1326.23,1.331851,657870,30640
1329.6,1.332653,656482,30519
1332.97,1.327627,654926,30801
1336.33,1.328329,653727,30695
1339.69,1.330450,652497,30488
1343.04,1.329168,649913,30457
1346.39,1.330199,647671,30280
1349.73,1.330399,645338,30157
1354.18,1.323061,641175,30473
1357.52,1.326582,638376,30095
1360.85,1.328773,635805,29823
1364.17,1.328828,633413,29707
1367.49,1.330638,631026,29472
1370.81,1.330579,628050,29337
1374.12,1.328266,625034,29352
1378.54,1.328078,620272,29141
1381.84,1.326301,616892,29101
1385.14,1.328442,613613,28804
1388.43,1.320111,611526,29262
1391.72,1.327768,610663,28710
1395.01,1.323608,610634,28985
1398.29,1.325656,611700,28899
1402.66,1.328646,614051,28811
1405.93,1.326130,616268,29083
1409.2,1.327773,617795,29045
1412.46,1.334597,618872,28642
1415.72,1.330524,619795,28955
1418.98,1.330041,620495,29020
1422.23,1.333489,621087,28818
1426.56,1.333645,621375,28821
1429.8,1.328973,621616,29144
1433.04,1.330435,622129,29070
1436.27,1.334837,621526,28749
1439.5,1.332739,621113,28869
1442.72,1.332860,620921,28852
1445.94,1.335199,620270,28667
1450.23,1.335059,618860,28611
1453.44,1.330223,617697,28877
1456.64,1.334358,616264,28537
1459.85,1.331563,614413,28635
1463.04,1.343565,612307,27759
1466.24,1.325870,610032,28806
1469.43,1.333880,607345,28155
1473.67,1.333572,603789,28010
1476.85,1.334566,601175,27825
1480.02,1.339299,597737,27366
1483.19,1.335657,594479,27446
1486.36,1.333073,591232,27459
1489.52,1.338726,587853,26949
1492.68,1.327272,583875,27482
1496.89,1.334213,578062,26777
1500.03,1.336705,574159,26444
1503.18,1.333781,570285,26443
1506.32,1.330523,565444,26416
1509.45,1.343216,560571,25434
1512.58,1.335881,555821,25648
1515.71,1.334571,550344,25472
1519.87,1.326024,543983,25678
1522.99,1.338666,538764,24702
1526.1,1.338692,533692,24468
1529.21,1.337770,527902,24254
1532.32,1.338905,521886,23915
1535.42,1.330376,515888,24109
1538.51,1.338845,509987,23373
1541.6,1.340364,503936,23015
1545.72,1.327223,494694,23287
1548.8,1.332080,488378,22734
1551.88,1.335780,481832,22239
1554.95,1.330096,474989,22212
1558.02,1.332059,467818,21778
1561.08,1.331938,460730,21454
1564.15,1.331929,454170,21149
1568.22,1.339914,444181,20307
1571.27,1.335637,436947,20174
1574.32,1.334013,429598,19909
1577.36,1.337887,422039,19385
1580.4,1.331207,414375,19328
1583.43,1.331846,406354,18926
1586.46,1.342003,398475,18130
1590.49,1.326246,388982,18352
1593.51,1.324596,380708,18030
1596.53,1.324646,372727,17650
1599.54,1.322314,365060,17380
1602.55,1.327735,357543,16811
1605.55,1.329844,349495,16353
1608.55,1.321777,341154,16262
1612.54,1.306973,330877,16319
1615.53,1.321778,322904,15392
1618.51,1.327359,315116,14829
1621.49,1.333935,307217,14240
1624.47,1.335108,299481,13844
1627.44,1.312894,292112,14212
1630.41,1.315580,284245,13744
1634.36,1.313632,274079,13312
1637.32,1.314709,266916,12932
1640.27,1.323538,259612,12325
1643.22,1.307081,251804,12416
1646.16,1.317638,244348,11759
1649.1,1.309110,236703,11617
1652.04,1.290260,228171,11695
1655.95,1.309269,215408,10568
1658.88,1.286151,204937,10604
1661.8,1.291952,193395,9874
1664.72,1.275113,179728,9539
1667.63,1.245739,163642,9293
1670.54,1.209737,146312,9027
1673.44,1.191232,128451,8270
1677.31,1.165154,105080,7184
1680.21,1.167894,88906,6040
1683.1,1.153442,75033,5270
1685.99,1.149312,63520,4504
1688.87,1.099761,53714,4269
1691.75,1.100521,45653,3622
1694.62,1.176947,39137,2604
1697.49,1.188362,33776,2189
1701.31,1.134313,28175,2068