Folder: textile_sorting_NIRSCAN_/ML/samples/unknown (part 103)

File: Column 1_078724_20241121_171907.csv
Method:,Column 1,,
Host Date-Time:,21/11/24 @ 17:19:7,,
Header Version:,1,,
System Temp (C):,36.08,,
Detector Temp (C):,34.47,,
Humidity (%):,1.47,,
Lamp PD:,3799,,
Shift Vector Coefficients:,-10.5391,0.0761263,-0.000134223,,
Pixel to Wavelength Coefficients:,1775.68,-0.916766,-0.000235065,,
Serial Number:,5510004,,
Scan Config Name:,Column 1,,
Scan Config Type:,Slew,,
Section 1,,
Start wavelength (nm):,900,,
End wavelength (nm):,1700,,
Pattern Pixel Width (nm):,   7.03,,,,
Exposure (ms):,  0.635,,,,
Digital Resolution:,228,,
Num Repeats:,6,,
PGA Gain:,64,,
Total Measurement Time in sec:,  2.663,,
Wavelength (nm),Absorbance (AU),Reference Signal (unitless),Sample Signal (unitless)
901.51,1.313230,108485,5274
905.376,1.317841,121306,5835
909.237,1.325508,131909,6234
913.095,1.308856,143299,7037
916.948,1.321426,156982,7489
922.079,1.318355,179937,8645
925.923,1.329504,200504,9389
929.762,1.321968,222660,10609
933.597,1.305937,244426,12084
937.427,1.308082,263972,12986
941.254,1.306933,281845,13902
945.076,1.323903,297271,14101
950.165,1.309906,315605,15461
953.978,1.303512,328029,16308
957.786,1.310534,340470,16655
961.59,1.308486,352317,17316
965.389,1.311976,363056,17701
969.185,1.304468,373162,18511
972.976,1.303023,382632,19044
976.763,1.302411,391202,19498
981.806,1.305579,400190,19801
985.583,1.309964,406088,19891
989.355,1.303986,410162,20369
993.124,1.303846,412868,20510
996.888,1.299129,414263,20804
1000.65,1.300378,415476,20805
1004.4,1.298839,415479,20879
1009.41,1.309302,414358,20327
1013.15,1.301875,412923,20606
1016.89,1.301564,411526,20551
1020.63,1.304961,409066,20269
1024.36,1.306052,406777,20105
1028.09,1.313036,404427,19670
1031.82,1.308959,401911,19732
1036.78,1.306040,398410,19692
1040.49,1.299044,396204,19901
1044.2,1.300013,394236,19758
1047.91,1.302164,392042,19551
1051.61,1.313144,389823,18955
1055.31,1.302390,388234,19351
1059,1.295839,387599,19613
1063.92,1.305033,386688,19157
1067.61,1.307091,386598,19062
1071.29,1.313837,387377,18806
1074.96,1.304414,388536,19276
1078.63,1.305031,389855,19314
1082.3,1.300425,391215,19588
1085.96,1.311510,393215,19192
1090.84,1.309563,396270,19428
1094.49,1.309254,398760,19564
1098.14,1.313943,400987,19462
1101.79,1.302472,403477,20107
1105.43,1.316195,406116,19609
1109.06,1.318951,407701,19561
1112.7,1.303239,409859,20389
1117.53,1.307024,412494,20342
1121.15,1.303033,414909,20650
1124.77,1.313895,416559,20220
1128.38,1.308283,418532,20580
1131.99,1.306437,419956,20738
1135.6,1.307068,421946,20806
1139.2,1.317273,423881,20416
1143.99,1.310396,426786,20884
1147.58,1.314884,428617,20758
1151.17,1.313712,431169,20938
1154.75,1.314250,433579,21029
1158.33,1.312411,436264,21249
1161.91,1.310035,439132,21506
1165.48,1.315919,442389,21374
1169.04,1.315784,446101,21560
1173.79,1.319813,451929,21640
1177.34,1.308180,456026,22429
1180.9,1.313063,461306,22435
1184.44,1.319563,467657,22406
1187.99,1.317168,473969,22834
1191.52,1.312229,479856,23382
1195.06,1.319425,487372,23358
1199.76,1.308772,497347,24428
1203.29,1.319242,504311,24180
1206.81,1.323871,511507,24265
1210.33,1.311477,519078,25337
1213.84,1.312722,527163,25658
1217.35,1.314377,534208,25902
1220.85,1.317216,540472,26035
1225.51,1.315621,549929,26588
1229.01,1.322375,556888,26509
1232.5,1.322633,562180,26745
1235.98,1.318517,567975,27278
1239.46,1.323047,574815,27320
1242.94,1.315735,582782,28169
1246.41,1.315708,591476,28591
1251.03,1.319265,604016,28959
1254.5,1.321499,612289,29205
1257.96,1.320883,619125,29573
1261.41,1.318939,624551,29966
1264.86,1.319193,629900,30205
1268.31,1.324539,634345,30046
1271.75,1.319987,638574,30565
1276.33,1.322463,642499,30578
1279.76,1.326282,645905,30471
1283.19,1.322160,648307,30876
1286.61,1.324083,650446,30841
1290.03,1.325235,652132,30839
1293.44,1.323091,653907,31076
1296.85,1.323756,655963,31126
1301.39,1.327753,657349,30906
1304.8,1.326292,657558,31020
1308.19,1.323563,658515,31261
1311.58,1.327605,658804,30985
1314.97,1.331938,659011,30687
1318.36,1.321835,658272,31374
1321.73,1.325285,658022,31114
1326.23,1.328899,657870,30849
1329.6,1.327503,656482,30883
1332.97,1.323502,654926,31095
1336.33,1.321200,653727,31203
1339.69,1.323735,652497,30963
1343.04,1.323178,649913,30880
1346.39,1.322663,647671,30810
1349.73,1.322536,645338,30708
1354.18,1.324003,641175,30407
1357.52,1.325113,638376,30197
1360.85,1.325552,635805,30045
1364.17,1.321637,633413,30203
1367.49,1.325161,631026,29846
1370.81,1.319789,628050,30075
1374.12,1.329600,625034,29262
1378.54,1.322878,620272,29492
1381.84,1.319519,616892,29559
1385.14,1.317117,613613,29565
1388.43,1.317654,611526,29428
1391.72,1.316805,610663,29444
1395.01,1.322142,610634,29083
1398.29,1.322332,611700,29121
1402.66,1.323089,614051,29182
1405.93,1.323154,616268,29283
1409.2,1.326102,617795,29157
1412.46,1.328066,618872,29076
1415.72,1.325010,619795,29325
1418.98,1.328965,620495,29092
1422.23,1.327294,621087,29232
1426.56,1.323208,621375,29522
1429.8,1.329137,621616,29133
1433.04,1.325696,622129,29389
1436.27,1.327586,621526,29233
1439.5,1.329770,621113,29067
1442.72,1.332514,620921,28875
1445.94,1.331563,620270,28908
1450.23,1.328297,618860,29060
1453.44,1.325869,617697,29168
1456.64,1.329741,616264,28842
1459.85,1.332261,614413,28589
1463.04,1.325981,612307,28906
1466.24,1.330264,610032,28516
1469.43,1.325932,607345,28675
1473.67,1.333092,603789,28041
1476.85,1.329492,601175,28152
1480.02,1.324693,597737,28302
1483.19,1.335389,594479,27463
1486.36,1.332662,591232,27485
1489.52,1.333249,587853,27291
1492.68,1.332566,583875,27149
1496.89,1.335073,578062,26724
1500.03,1.341129,574159,26176
1503.18,1.328217,570285,26784
1506.32,1.329652,565444,26469
1509.45,1.332473,560571,26071
1512.58,1.328661,555821,26078
1515.71,1.332683,550344,25583
1519.87,1.323949,543983,25801
1522.99,1.332712,538764,25043
1526.1,1.331510,533692,24876
1529.21,1.329171,527902,24739
1532.32,1.331719,521886,24314
1535.42,1.329458,515888,24160
1538.51,1.333930,509987,23639
1541.6,1.325890,503936,23795
1545.72,1.335603,494694,22842
1548.8,1.327671,488378,22966
1551.88,1.328384,481832,22621
1554.95,1.329568,474989,22239
1558.02,1.325724,467818,22098
1561.08,1.327969,460730,21651
1564.15,1.325245,454170,21477
1568.22,1.327725,444181,20885
1571.27,1.327807,436947,20541
1574.32,1.323241,429598,20409
1577.36,1.329478,422039,19764
1580.4,1.323368,414375,19680
1583.43,1.328486,406354,19073
1586.46,1.327933,398475,18727
1590.49,1.325017,388982,18404
1593.51,1.325199,380708,18005
1596.53,1.312993,372727,18130
1599.54,1.326331,365060,17220
1602.55,1.330898,357543,16689
1605.55,1.316686,349495,16856
1608.55,1.332374,341154,15870
1612.54,1.310286,330877,16195
1615.53,1.318658,322904,15503
1618.51,1.317084,315116,15184
1621.49,1.319272,307217,14729
1624.47,1.304994,299481,14838
1627.44,1.339191,292112,13377
1630.41,1.318369,284245,13656
1634.36,1.307799,274079,13492
1637.32,1.298266,266916,13431
1640.27,1.315093,259612,12567
1643.22,1.322678,251804,11978
1646.16,1.308647,244348,12005
1649.1,1.299058,236703,11889
1652.04,1.312039,228171,11123
1655.95,1.292264,215408,10990
1658.88,1.274234,204937,10899
1661.8,1.284495,193395,10045
1664.72,1.247252,179728,10171
1667.63,1.265433,163642,8881
1670.54,1.217405,146312,8869
1673.44,1.224509,128451,7660
1677.31,1.178350,105080,6969
1680.21,1.174633,88906,5947
1683.1,1.164543,75033,5137
1685.99,1.147676,63520,4521
1688.87,1.141592,53714,3877
1691.75,1.121776,45653,3449
1694.62,1.197961,39137,2481
1697.49,1.157171,33776,2352
1701.31,1.177558,28175,1872

File: Column 1_078725_20241121_171910.csv
Method:,Column 1,,
Host Date-Time:,21/11/24 @ 17:19:10,,
Header Version:,1,,
System Temp (C):,36.12,,
Detector Temp (C):,34.49,,
Humidity (%):,1.47,,
Lamp PD:,3799,,
Shift Vector Coefficients:,-10.5391,0.0761263,-0.000134223,,
Pixel to Wavelength Coefficients:,1775.68,-0.916766,-0.000235065,,
Serial Number:,5510004,,
Scan Config Name:,Column 1,,
Scan Config Type:,Slew,,
Section 1,,
Start wavelength (nm):,900,,
End wavelength (nm):,1700,,
Pattern Pixel Width (nm):,   7.03,,,,
Exposure (ms):,  0.635,,,,
Digital Resolution:,228,,
Num Repeats:,6,,
PGA Gain:,64,,
Total Measurement Time in sec:,  2.726,,
Wavelength (nm),Absorbance (AU),Reference Signal (unitless),Sample Signal (unitless)
901.51,1.294139,108485,5511
905.376,1.324139,121306,5751
909.237,1.327813,131909,6201
913.095,1.325334,143299,6775
916.948,1.320499,156982,7505
922.079,1.331410,179937,8389
925.923,1.330569,200504,9366
929.762,1.326867,222660,10490
933.597,1.312966,244426,11890
937.427,1.335982,263972,12178
941.254,1.323717,281845,13375
945.076,1.321476,297271,14180
950.165,1.309850,315605,15463
953.978,1.310816,328029,16036
957.786,1.313491,340470,16542
961.59,1.314624,352317,17073
965.389,1.304339,363056,18015
969.185,1.309043,373162,18317
972.976,1.308762,382632,18794
976.763,1.310391,391202,19143
981.806,1.306633,400190,19753
985.583,1.310116,406088,19884
989.355,1.309479,410162,20113
993.124,1.311019,412868,20174
996.888,1.304507,414263,20548
1000.65,1.308894,415476,20401
1004.4,1.303650,415479,20649
1009.41,1.303614,414358,20595
1013.15,1.312435,412923,20111
1016.89,1.308981,411526,20203
1020.63,1.307131,409066,20168
1024.36,1.303661,406777,20216
1028.09,1.298767,404427,20327
1031.82,1.308277,401911,19763
1036.78,1.307211,398410,19639
1040.49,1.311395,396204,19343
1044.2,1.306100,394236,19483
1047.91,1.294283,392042,19909
1051.61,1.302999,389823,19403
1055.31,1.306358,388234,19175
1059,1.310865,387599,18946
1063.92,1.306191,386688,19106
1067.61,1.304411,386598,19180
1071.29,1.299393,387377,19442
1074.96,1.312028,388536,18941
1078.63,1.306585,389855,19245
1082.3,1.318627,391215,18784
1085.96,1.317090,393215,18947
1090.84,1.311333,396270,19349
1094.49,1.316484,398760,19241
1098.14,1.301927,400987,20008
1101.79,1.317324,403477,19431
1105.43,1.311963,406116,19801
1109.06,1.318263,407701,19592
1112.7,1.313149,409859,19929
1117.53,1.314040,412494,20016
1121.15,1.320455,414909,19838
1124.77,1.313852,416559,20222
1128.38,1.316334,418532,20202
1131.99,1.320310,419956,20086
1135.6,1.316245,421946,20371
1139.2,1.311819,423881,20674
1143.99,1.316575,426786,20589
1147.58,1.313255,428617,20836
1151.17,1.323975,431169,20449
1154.75,1.313136,433579,21083
1158.33,1.319105,436264,20924
1161.91,1.320066,439132,21015
1165.48,1.317812,442389,21281
1169.04,1.311655,446101,21766
1173.79,1.314329,451929,21915
1177.34,1.313165,456026,22173
1180.9,1.319361,461306,22112
1184.44,1.323027,467657,22228
1187.99,1.320356,473969,22667
1191.52,1.317330,479856,23109
1195.06,1.316183,487372,23533
1199.76,1.321106,497347,23744
1203.29,1.317325,504311,24287
1206.81,1.318765,511507,24552
1210.33,1.321605,519078,24753
1213.84,1.320665,527163,25193
1217.35,1.322279,534208,25435
1220.85,1.315501,540472,26138
1225.51,1.324649,549929,26041
1229.01,1.326887,556888,26235
1232.5,1.318013,562180,27031
1235.98,1.320799,567975,27135
1239.46,1.320938,574815,27453
1242.94,1.318953,582782,27961
1246.41,1.318711,591476,28394
1251.03,1.323818,604016,28657
1254.5,1.327052,612289,28834
1257.96,1.320780,619125,29580
1261.41,1.324452,624551,29588
1264.86,1.325318,629900,29782
1268.31,1.324929,634345,30019
1271.75,1.332206,638574,29717
1276.33,1.320395,642499,30724
1279.76,1.326695,645905,30442
1283.19,1.319915,648307,31036
1286.61,1.323829,650446,30859
1290.03,1.331348,652132,30408
1293.44,1.326768,653907,30814
1296.85,1.331115,655963,30603
1301.39,1.326392,657349,31003
1304.8,1.326348,657558,31016
1308.19,1.324369,658515,31203
1311.58,1.328770,658804,30902
1314.97,1.330850,659011,30764
1318.36,1.333039,658272,30575
1321.73,1.329042,658022,30846
1326.23,1.330055,657870,30767
1329.6,1.330877,656482,30644
1332.97,1.326346,654926,30892
1336.33,1.326733,653727,30808
1339.69,1.331648,652497,30404
1343.04,1.332704,649913,30210
1346.39,1.330959,647671,30227
1349.73,1.322790,645338,30690
1354.18,1.330217,641175,29975
1357.52,1.327941,638376,30001
1360.85,1.327987,635805,29877
1364.17,1.331541,633413,29522
1367.49,1.332572,631026,29341
1370.81,1.320092,628050,30054
1374.12,1.334030,625034,28965
1378.54,1.326813,620272,29226
1381.84,1.328966,616892,28923
1385.14,1.324151,613613,29090
1388.43,1.326615,611526,28827
1391.72,1.327345,610663,28738
1395.01,1.323952,610634,28962
1398.29,1.322884,611700,29084
1402.66,1.327442,614051,28891
1405.93,1.331721,616268,28711
1409.2,1.325923,617795,29169
1412.46,1.327932,618872,29085
1415.72,1.325040,619795,29323
1418.98,1.331225,620495,28941
1422.23,1.330530,621087,29015
1426.56,1.325302,621375,29380
1429.8,1.329704,621616,29095
1433.04,1.324250,622129,29487
1436.27,1.329999,621526,29071
1439.5,1.325311,621113,29367
1442.72,1.330549,620921,29006
1445.94,1.324780,620270,29363
1450.23,1.336002,618860,28549
1453.44,1.329532,617697,28923
1456.64,1.336800,616264,28377
1459.85,1.335341,614413,28387
1463.04,1.334447,612307,28348
1466.24,1.332141,610032,28393
1469.43,1.333926,607345,28152
1473.67,1.331746,603789,28128
1476.85,1.335910,601175,27739
1480.02,1.330284,597737,27940
1483.19,1.330014,594479,27805
1486.36,1.334293,591232,27382
1489.52,1.339420,587853,26906
1492.68,1.335745,583875,26951
1496.89,1.338466,578062,26516
1500.03,1.338796,574159,26317
1503.18,1.337360,570285,26226
1506.32,1.331000,565444,26387
1509.45,1.334677,560571,25939
1512.58,1.337901,555821,25529
1515.71,1.335595,550344,25412
1519.87,1.337124,543983,25030
1522.99,1.333824,538764,24979
1526.1,1.333593,533692,24757
1529.21,1.328820,527902,24759
1532.32,1.328268,521886,24508
1535.42,1.334648,515888,23873
1538.51,1.335993,509987,23527
1541.6,1.331788,503936,23474
1545.72,1.339633,494694,22631
1548.8,1.332482,488378,22713
1551.88,1.330366,481832,22518
1554.95,1.336835,474989,21870
1558.02,1.346660,467818,21058
1561.08,1.333561,460730,21374
1564.15,1.335061,454170,20997
1568.22,1.327913,444181,20876
1571.27,1.330564,436947,20411
1574.32,1.332423,429598,19982
1577.36,1.333340,422039,19589
1580.4,1.324119,414375,19646
1583.43,1.328577,406354,19069
1586.46,1.330351,398475,18623
1590.49,1.318599,388982,18678
1593.51,1.330221,380708,17798
1596.53,1.325410,372727,17619
1599.54,1.321790,365060,17401
1602.55,1.333430,357543,16592
1605.55,1.323359,349495,16599
1608.55,1.329646,341154,15970
1612.54,1.320790,330877,15808
1615.53,1.319920,322904,15458
1618.51,1.329708,315116,14749
1621.49,1.311557,307217,14993
1624.47,1.319457,299481,14352
1627.44,1.306223,292112,14432
1630.41,1.313531,284245,13809
1634.36,1.321467,274079,13074
1637.32,1.317708,266916,12843
1640.27,1.308781,259612,12751
1643.22,1.320580,251804,12036
1646.16,1.330723,244348,11410
1649.1,1.316804,236703,11413
1652.04,1.315646,228171,11031
1655.95,1.319288,215408,10327
1658.88,1.289192,204937,10530
1661.8,1.302594,193395,9635
1664.72,1.280749,179728,9416
1667.63,1.254472,163642,9108
1670.54,1.261376,146312,8015
1673.44,1.242864,128451,7343
1677.31,1.196419,105080,6685
1680.21,1.161683,88906,6127
1683.1,1.191575,75033,4827
1685.99,1.166322,63520,4331
1688.87,1.167557,53714,3652
1691.75,1.174458,45653,3055
1694.62,1.218573,39137,2366
1697.49,1.217915,33776,2045
1701.31,1.181754,28175,1854

File: Column 1_078729_20241121_171921.csv
Method:,Column 1,,
Host Date-Time:,21/11/24 @ 17:19:21,,
Header Version:,1,,
System Temp (C):,36.3,,
Detector Temp (C):,34.46,,
Humidity (%):,1.27,,
Lamp PD:,3798,,
Shift Vector Coefficients:,-10.5391,0.0761263,-0.000134223,,
Pixel to Wavelength Coefficients:,1775.68,-0.916766,-0.000235065,,
Serial Number:,5510004,,
Scan Config Name:,Column 1,,
Scan Config Type:,Slew,,
Section 1,,
Start wavelength (nm):,900,,
End wavelength (nm):,1700,,
Pattern Pixel Width (nm):,   7.03,,,,
Exposure (ms):,  0.635,,,,
Digital Resolution:,228,,
Num Repeats:,6,,
PGA Gain:,64,,
Total Measurement Time in sec:,  2.726,,
Wavelength (nm),Absorbance (AU),Reference Signal (unitless),Sample Signal (unitless)
901.51,1.299691,108485,5441
905.376,1.300694,121306,6070
909.237,1.322868,131909,6272
913.095,1.300542,143299,7173
916.948,1.311734,156982,7658
922.079,1.331876,179937,8380
925.923,1.300822,200504,10030
929.762,1.313094,222660,10828
933.597,1.312564,244426,11901
937.427,1.329891,263972,12350
941.254,1.326649,281845,13285
945.076,1.311336,297271,14515
950.165,1.305908,315605,15604
953.978,1.308063,328029,16138
957.786,1.308557,340470,16731
961.59,1.307859,352317,17341
965.389,1.307460,363056,17886
969.185,1.306537,373162,18423
972.976,1.305860,382632,18920
976.763,1.302478,391202,19495
981.806,1.297754,400190,20161
985.583,1.306376,406088,20056
989.355,1.312164,410162,19989
993.124,1.303401,412868,20531
996.888,1.305480,414263,20502
1000.65,1.292476,415476,21187
1004.4,1.300235,415479,20812
1009.41,1.305050,414358,20527
1013.15,1.310969,412923,20179
1016.89,1.305193,411526,20380
1020.63,1.308468,409066,20106
1024.36,1.309675,406777,19938
1028.09,1.311801,404427,19726
1031.82,1.302622,401911,20022
1036.78,1.304060,398410,19782
1040.49,1.300268,396204,19845
1044.2,1.307775,394236,19408
1047.91,1.307101,392042,19330
1051.61,1.297461,389823,19652
1055.31,1.300867,388234,19419
1059,1.317448,387599,18661
1063.92,1.302704,386688,19260
1067.61,1.317537,386598,18609
1071.29,1.316966,387377,18671
1074.96,1.309605,388536,19047
1078.63,1.298824,389855,19592
1082.3,1.301224,391215,19552
1085.96,1.311781,393215,19180
1090.84,1.317345,396270,19083
1094.49,1.310210,398760,19521
1098.14,1.317528,400987,19302
1101.79,1.314184,403477,19572
1105.43,1.308903,406116,19941
1109.06,1.323998,407701,19335
1112.7,1.314022,409859,19889
1117.53,1.315758,412494,19937
1121.15,1.317923,414909,19954
1124.77,1.316480,416559,20100
1128.38,1.311694,418532,20419
1131.99,1.317466,419956,20218
1135.6,1.312170,421946,20563
1139.2,1.314834,423881,20531
1143.99,1.318647,426786,20491
1147.58,1.316351,428617,20688
1151.17,1.319580,431169,20657
1154.75,1.313589,433579,21061
1158.33,1.319458,436264,20907
1161.91,1.320665,439132,20986
1165.48,1.311009,442389,21617
1169.04,1.314296,446101,21634
1173.79,1.312016,451929,22032
1177.34,1.307677,456026,22455
1180.9,1.311074,461306,22538
1184.44,1.309580,467657,22927
1187.99,1.321238,473969,22621
1191.52,1.310894,479856,23454
1195.06,1.316811,487372,23499
1199.76,1.313778,497347,24148
1203.29,1.314668,504311,24436
1206.81,1.324211,511507,24246
1210.33,1.313832,519078,25200
1213.84,1.322704,527163,25075
1217.35,1.318132,534208,25679
1220.85,1.323652,540472,25652
1225.51,1.312902,549929,26755
1229.01,1.316112,556888,26894
1232.5,1.312363,562180,27385
1235.98,1.316230,567975,27422
1239.46,1.311920,574815,28029
1242.94,1.314780,582782,28231
1246.41,1.320657,591476,28267
1251.03,1.326097,604016,28507
1254.5,1.322318,612289,29150
1257.96,1.319856,619125,29643
1261.41,1.320100,624551,29886
1264.86,1.320013,629900,30148
1268.31,1.319838,634345,30373
1271.75,1.325924,638574,30150
1276.33,1.324399,642499,30442
1279.76,1.322550,645905,30734
1283.19,1.322103,648307,30880
1286.61,1.323464,650446,30885
1290.03,1.326307,652132,30763
1293.44,1.321570,653907,31185
1296.85,1.322460,655963,31219
1301.39,1.331521,657349,30639
1304.8,1.326026,657558,31039
1308.19,1.321705,658515,31395
1311.58,1.328110,658804,30949
1314.97,1.329145,659011,30885
1318.36,1.322209,658272,31347
1321.73,1.324894,658022,31142
1326.23,1.323596,657870,31228
1329.6,1.327686,656482,30870
1332.97,1.326867,654926,30855
1336.33,1.325410,653727,30902
1339.69,1.324494,652497,30909
1343.04,1.326340,649913,30656
1346.39,1.326912,647671,30510
1349.73,1.326942,645338,30398
1354.18,1.324032,641175,30405
1357.52,1.323061,638376,30340
1360.85,1.319779,635805,30447
1364.17,1.325479,633413,29937
1367.49,1.324987,631026,29858
1370.81,1.320844,628050,30002
1374.12,1.321542,625034,29810
1378.54,1.322628,620272,29509
1381.84,1.326943,616892,29058
1385.14,1.316222,613613,29626
1388.43,1.324451,611526,28971
1391.72,1.327799,610663,28708
1395.01,1.322485,610634,29060
1398.29,1.328641,611700,28701
1402.66,1.322212,614051,29241
1405.93,1.326863,616268,29034
1409.2,1.324511,617795,29264
1412.46,1.323815,618872,29362
1415.72,1.329625,619795,29015
1418.98,1.330475,620495,28991
1422.23,1.332615,621087,28876
1426.56,1.328388,621375,29172
1429.8,1.328541,621616,29173
1433.04,1.328617,622129,29192
1436.27,1.331691,621526,28958
1439.5,1.333371,621113,28827
1442.72,1.330608,620921,29002
1445.94,1.331818,620270,28891
1450.23,1.328835,618860,29024
1453.44,1.330238,617697,28876
1456.64,1.328884,616264,28899
1459.85,1.328962,614413,28807
1463.04,1.330482,612307,28608
1466.24,1.330889,610032,28475
1469.43,1.328058,607345,28535
1473.67,1.333882,603789,27990
1476.85,1.334067,601175,27857
1480.02,1.326615,597737,28177
1483.19,1.328128,594479,27926
1486.36,1.332031,591232,27525
1489.52,1.329668,587853,27517
1492.68,1.337618,583875,26835
1496.89,1.335317,578062,26709
1500.03,1.336968,574159,26428
1503.18,1.335509,570285,26338
1506.32,1.339509,565444,25875
1509.45,1.333257,560571,26024
1512.58,1.331652,555821,25899
1515.71,1.326497,550344,25950
1519.87,1.333410,543983,25245
1522.99,1.340005,538764,24626
1526.1,1.331563,533692,24873
1529.21,1.325709,527902,24937
1532.32,1.331701,521886,24315
1535.42,1.326217,515888,24341
1538.51,1.332243,509987,23731
1541.6,1.331936,503936,23466
1545.72,1.337413,494694,22747
1548.8,1.331088,488378,22786
1551.88,1.334766,481832,22291
1554.95,1.323672,474989,22543
1558.02,1.322396,467818,22268
1561.08,1.325668,460730,21766
1564.15,1.330739,454170,21207
1568.22,1.324040,444181,21063
1571.27,1.324731,436947,20687
1574.32,1.326551,429598,20254
1577.36,1.329566,422039,19760
1580.4,1.333753,414375,19215
1583.43,1.330769,406354,18973
1586.46,1.325182,398475,18846
1590.49,1.321984,388982,18533
1593.51,1.322889,380708,18101
1596.53,1.319218,372727,17872
1599.54,1.324896,365060,17277
1602.55,1.317977,357543,17193
1605.55,1.323411,349495,16597
1608.55,1.331035,341154,15919
1612.54,1.316498,330877,15965
1615.53,1.322258,322904,15375
1618.51,1.320386,315116,15069
1621.49,1.322706,307217,14613
1624.47,1.323714,299481,14212
1627.44,1.319732,292112,13990
1630.41,1.303151,284245,14143
1634.36,1.314776,274079,13277
1637.32,1.313334,266916,12973
1640.27,1.314679,259612,12579
1643.22,1.306836,251804,12423
1646.16,1.319044,244348,11721
1649.1,1.297527,236703,11931
1652.04,1.291972,228171,11649
1655.95,1.305586,215408,10658
1658.88,1.292961,204937,10439
1661.8,1.291249,193395,9890
1664.72,1.261091,179728,9852
1667.63,1.265384,163642,8882
1670.54,1.244896,146312,8325
1673.44,1.215586,128451,7819
1677.31,1.184627,105080,6869
1680.21,1.173248,88906,5966
1683.1,1.180735,75033,4949
1685.99,1.149312,63520,4504
1688.87,1.179126,53714,3556
1691.75,1.150805,45653,3226
1694.62,1.163643,39137,2685
1697.49,1.162185,33776,2325
1701.31,1.094029,28175,2269