Folder: textile_sorting_NIRSCAN_/ML/samples/unknown (part 5)

File: Column 1_078022_20241121_164140.csv
Method:,Column 1,,
Host Date-Time:,21/11/24 @ 16:41:40,,
Header Version:,1,,
System Temp (C):,29.8,,
Detector Temp (C):,24.97,,
Humidity (%):,7.11,,
Lamp PD:,3813,,
Shift Vector Coefficients:,-10.5391,0.0761263,-0.000134223,,
Pixel to Wavelength Coefficients:,1775.68,-0.916766,-0.000235065,,
Serial Number:,5510004,,
Scan Config Name:,Column 1,,
Scan Config Type:,Slew,,
Section 1,,
Start wavelength (nm):,900,,
End wavelength (nm):,1700,,
Pattern Pixel Width (nm):,   7.03,,,,
Exposure (ms):,  0.635,,,,
Digital Resolution:,228,,
Num Repeats:,6,,
PGA Gain:,64,,
Total Measurement Time in sec:,  2.705,,
Wavelength (nm),Absorbance (AU),Reference Signal (unitless),Sample Signal (unitless)
901.51,1.305476,108485,5369
905.376,1.311121,121306,5926
909.237,1.298957,131909,6627
913.095,1.323224,143299,6808
916.948,1.311961,156982,7654
922.079,1.281946,179937,9401
925.923,1.304693,200504,9941
929.762,1.296027,222660,11262
933.597,1.314686,244426,11843
937.427,1.304784,263972,13085
941.254,1.306434,281845,13918
945.076,1.307819,297271,14633
950.165,1.317272,315605,15201
953.978,1.298060,328029,16514
957.786,1.305015,340470,16868
961.59,1.320437,352317,16846
965.389,1.308676,363056,17836
969.185,1.307646,373162,18376
972.976,1.310545,382632,18717
976.763,1.310505,391202,19138
981.806,1.307381,400190,19719
985.583,1.311319,406088,19829
989.355,1.311383,410162,20025
993.124,1.314586,412868,20009
996.888,1.307199,414263,20421
1000.65,1.304489,415476,20609
1004.4,1.308770,415479,20407
1009.41,1.311809,414358,20210
1013.15,1.319204,412923,19800
1016.89,1.314237,411526,19960
1020.63,1.318320,409066,19655
1024.36,1.313218,406777,19776
1028.09,1.315116,404427,19576
1031.82,1.306304,401911,19853
1036.78,1.317482,398410,19180
1040.49,1.305353,396204,19614
1044.2,1.313882,394236,19137
1047.91,1.315380,392042,18965
1051.61,1.304523,389823,19335
1055.31,1.312839,388234,18891
1059,1.318450,387599,18618
1063.92,1.313203,386688,18800
1067.61,1.305250,386598,19143
1071.29,1.309220,387377,19007
1074.96,1.314074,388536,18852
1078.63,1.314258,389855,18908
1082.3,1.318882,391215,18773
1085.96,1.314963,393215,19040
1090.84,1.312659,396270,19290
1094.49,1.311703,398760,19454
1098.14,1.317011,400987,19325
1101.79,1.314228,403477,19570
1105.43,1.319217,406116,19473
1109.06,1.311489,407701,19900
1112.7,1.312213,409859,19972
1117.53,1.322409,412494,19634
1121.15,1.320981,414909,19814
1124.77,1.324571,416559,19729
1128.38,1.319983,418532,20033
1131.99,1.311577,419956,20494
1135.6,1.320982,421946,20150
1139.2,1.330031,423881,19825
1143.99,1.323721,426786,20253
1147.58,1.317949,428617,20612
1151.17,1.322894,431169,20500
1154.75,1.320134,433579,20746
1158.33,1.319458,436264,20907
1161.91,1.326457,439132,20708
1165.48,1.310487,442389,21643
1169.04,1.312054,446101,21746
1173.79,1.311465,451929,22060
1177.34,1.320055,456026,21824
1180.9,1.316269,461306,22270
1184.44,1.318576,467657,22457
1187.99,1.320241,473969,22673
1191.52,1.328658,479856,22514
1195.06,1.320728,487372,23288
1199.76,1.326998,497347,23424
1203.29,1.324828,504311,23871
1206.81,1.323818,511507,24268
1210.33,1.327861,519078,24399
1213.84,1.319632,527163,25253
1217.35,1.323852,534208,25343
1220.85,1.325756,540472,25528
1225.51,1.326286,549929,25943
1229.01,1.317390,556888,26815
1232.5,1.323478,562180,26693
1235.98,1.323851,567975,26945
1239.46,1.323811,574815,27272
1242.94,1.324267,582782,27621
1246.41,1.328893,591476,27736
1251.03,1.332095,604016,28116
1254.5,1.324094,612289,29031
1257.96,1.322192,619125,29484
1261.41,1.331839,624551,29089
1264.86,1.322933,629900,29946
1268.31,1.331886,634345,29542
1271.75,1.326948,638574,30079
1276.33,1.326989,642499,30261
1279.76,1.333975,645905,29936
1283.19,1.327025,648307,30532
1286.61,1.324971,650446,30778
1290.03,1.327395,652132,30686
1293.44,1.329553,653907,30617
1296.85,1.328484,655963,30789
1301.39,1.332714,657349,30555
1304.8,1.330047,657558,30753
1308.19,1.327232,658515,30998
1311.58,1.333035,658804,30600
1314.97,1.330088,659011,30818
1318.36,1.330010,658272,30789
1321.73,1.334325,658022,30473
1326.23,1.330747,657870,30718
1329.6,1.340217,656482,29992
1332.97,1.327275,654926,30826
1336.33,1.330186,653727,30564
1339.69,1.333308,652497,30288
1343.04,1.333726,649913,30139
1346.39,1.331909,647671,30161
1349.73,1.332898,645338,29984
1354.18,1.331015,641175,29920
1357.52,1.328346,638376,29973
1360.85,1.334401,635805,29439
1364.17,1.332277,633413,29472
1367.49,1.335304,631026,29157
1370.81,1.324931,628050,29721
1374.12,1.331057,625034,29164
1378.54,1.326620,620272,29239
1381.84,1.327123,616892,29046
1385.14,1.331468,613613,28604
1388.43,1.327853,611526,28745
1391.72,1.328753,610663,28645
1395.01,1.325079,610634,28887
1398.29,1.329763,611700,28627
1402.66,1.330171,614051,28710
1405.93,1.329293,616268,28872
1409.2,1.323962,617795,29301
1412.46,1.328963,618872,29016
1415.72,1.331861,619795,28866
1418.98,1.330955,620495,28959
1422.23,1.331519,621087,28949
1426.56,1.332110,621375,28923
1429.8,1.336746,621616,28627
1433.04,1.338259,622129,28551
1436.27,1.331196,621526,28991
1439.5,1.330383,621113,29026
1442.72,1.327341,620921,29221
1445.94,1.333928,620270,28751
1450.23,1.336900,618860,28490
1453.44,1.336480,617697,28464
1456.64,1.337336,616264,28342
1459.85,1.339461,614413,28119
1463.04,1.338155,612307,28107
1466.24,1.330477,610032,28502
1469.43,1.343503,607345,27538
1473.67,1.338500,603789,27694
1476.85,1.330016,601175,28118
1480.02,1.335664,597737,27596
1483.19,1.333039,594479,27612
1486.36,1.333595,591232,27426
1489.52,1.344485,587853,26594
1492.68,1.341602,583875,26590
1496.89,1.332998,578062,26852
1500.03,1.338202,574159,26353
1503.18,1.334126,570285,26422
1506.32,1.335184,565444,26134
1509.45,1.338883,560571,25689
1512.58,1.335391,555821,25677
1515.71,1.337342,550344,25310
1519.87,1.333221,543983,25256
1522.99,1.340958,538764,24572
1526.1,1.345544,533692,24085
1529.21,1.340554,527902,24099
1532.32,1.336280,521886,24060
1535.42,1.341894,515888,23478
1538.51,1.337176,509987,23463
1541.6,1.336158,503936,23239
1545.72,1.341190,494694,22550
1548.8,1.345485,488378,22043
1551.88,1.336034,481832,22226
1554.95,1.338008,474989,21811
1558.02,1.337921,467818,21486
1561.08,1.336885,460730,21211
1564.15,1.341122,454170,20706
1568.22,1.338953,444181,20352
1571.27,1.332869,436947,20303
1574.32,1.332902,429598,19960
1577.36,1.335652,422039,19485
1580.4,1.330376,414375,19365
1583.43,1.345103,406354,18357
1586.46,1.341955,398475,18132
1590.49,1.342374,388982,17683
1593.51,1.338573,380708,17459
1596.53,1.326965,372727,17556
1599.54,1.332964,365060,16959
1602.55,1.333822,357543,16577
1605.55,1.340626,349495,15952
1608.55,1.330816,341154,15927
1612.54,1.319857,330877,15842
1615.53,1.332490,322904,15017
1618.51,1.330120,315116,14735
1621.49,1.322706,307217,14613
1624.47,1.333386,299481,13899
1627.44,1.325482,292112,13806
1630.41,1.323102,284245,13508
1634.36,1.331515,274079,12775
1637.32,1.325074,266916,12627
1640.27,1.329248,259612,12164
1643.22,1.311369,251804,12294
1646.16,1.323251,244348,11608
1649.1,1.315322,236703,11452
1652.04,1.330870,228171,10651
1655.95,1.315853,215408,10409
1658.88,1.328671,204937,9615
1661.8,1.330613,193395,9033
1664.72,1.348173,179728,8062
1667.63,1.334111,163642,7582
1670.54,1.313166,146312,7114
1673.44,1.362337,128451,5577
1677.31,1.333635,105080,4874
1680.21,1.391785,88906,3607
1683.1,1.380124,75033,3127
1685.99,1.320895,63520,3034
1688.87,1.310462,53714,2628
1691.75,1.395124,45653,1838
1694.62,1.384415,39137,1615
1697.49,1.267107,33776,1826
1701.31,1.425789,28175,1057

File: Column 1_078023_20241121_164142.csv
Method:,Column 1,,
Host Date-Time:,21/11/24 @ 16:41:42,,
Header Version:,1,,
System Temp (C):,29.91,,
Detector Temp (C):,24.91,,
Humidity (%):,7.06,,
Lamp PD:,3813,,
Shift Vector Coefficients:,-10.5391,0.0761263,-0.000134223,,
Pixel to Wavelength Coefficients:,1775.68,-0.916766,-0.000235065,,
Serial Number:,5510004,,
Scan Config Name:,Column 1,,
Scan Config Type:,Slew,,
Section 1,,
Start wavelength (nm):,900,,
End wavelength (nm):,1700,,
Pattern Pixel Width (nm):,   7.03,,,,
Exposure (ms):,  0.635,,,,
Digital Resolution:,228,,
Num Repeats:,6,,
PGA Gain:,64,,
Total Measurement Time in sec:,  2.721,,
Wavelength (nm),Absorbance (AU),Reference Signal (unitless),Sample Signal (unitless)
901.51,1.306854,108485,5352
905.376,1.324441,121306,5747
909.237,1.307361,131909,6500
913.095,1.318844,143299,6877
916.948,1.307165,156982,7739
922.079,1.310145,179937,8810
925.923,1.310897,200504,9800
929.762,1.305934,222660,11008
933.597,1.320333,244426,11690
937.427,1.308785,263972,12965
941.254,1.324627,281845,13347
945.076,1.325198,297271,14059
950.165,1.314594,315605,15295
953.978,1.314297,328029,15908
957.786,1.302704,340470,16958
961.59,1.310170,352317,17249
965.389,1.312246,363056,17690
969.185,1.313643,373162,18124
972.976,1.314180,382632,18561
976.763,1.314631,391202,18957
981.806,1.313525,400190,19442
985.583,1.314573,406088,19681
989.355,1.309220,410162,20125
993.124,1.305798,412868,20418
996.888,1.308520,414263,20359
1000.65,1.315674,415476,20085
1004.4,1.314188,415479,20154
1009.41,1.307235,414358,20424
1013.15,1.317475,412923,19879
1016.89,1.312348,411526,20047
1020.63,1.316292,409066,19747
1024.36,1.314119,406777,19735
1028.09,1.307573,404427,19919
1031.82,1.329649,401911,18814
1036.78,1.318615,398410,19130
1040.49,1.317864,396204,19057
1044.2,1.309929,394236,19312
1047.91,1.313096,392042,19065
1051.61,1.312000,389823,19005
1055.31,1.311278,388234,18959
1059,1.309218,387599,19018
1063.92,1.320048,386688,18506
1067.61,1.315674,386598,18689
1071.29,1.317944,387377,18629
1074.96,1.326127,388536,18336
1078.63,1.314074,389855,18916
1082.3,1.309657,391215,19176
1085.96,1.319734,393215,18832
1090.84,1.314351,396270,19215
1094.49,1.322988,398760,18955
1098.14,1.324811,400987,18981
1101.79,1.313253,403477,19614
1105.43,1.326051,406116,19169
1109.06,1.313545,407701,19806
1112.7,1.329039,409859,19213
1117.53,1.324960,412494,19519
1121.15,1.316207,414909,20033
1124.77,1.317302,416559,20062
1128.38,1.319484,418532,20056
1131.99,1.313467,419956,20405
1135.6,1.319068,421946,20239
1139.2,1.319149,423881,20328
1143.99,1.326215,426786,20137
1147.58,1.322801,428617,20383
1151.17,1.321265,431169,20577
1154.75,1.314332,433579,21025
1158.33,1.322773,436264,20748
1161.91,1.323177,439132,20865
1165.48,1.323192,442389,21019
1169.04,1.316127,446101,21543
1173.79,1.319372,451929,21662
1177.34,1.318268,456026,21914
1180.9,1.322040,461306,21976
1184.44,1.322227,467657,22269
1187.99,1.326200,473969,22364
1191.52,1.317593,479856,23095
1195.06,1.321176,487372,23264
1199.76,1.324521,497347,23558
1203.29,1.328886,504311,23649
1206.81,1.320644,511507,24446
1210.33,1.331507,519078,24195
1213.84,1.324283,527163,24984
1217.35,1.327950,534208,25105
1220.85,1.331648,540472,25184
1225.51,1.327947,549929,25844
1229.01,1.327201,556888,26216
1232.5,1.322259,562180,26768
1235.98,1.332347,567975,26423
1239.46,1.322984,574815,27324
1242.94,1.325463,582782,27545
1246.41,1.329646,591476,27688
1251.03,1.326630,604016,28472
1254.5,1.325563,612289,28933
1257.96,1.329051,619125,29022
1261.41,1.330319,624551,29191
1264.86,1.328347,629900,29575
1268.31,1.332842,634345,29477
1271.75,1.337840,638574,29334
1276.33,1.332201,642499,29900
1279.76,1.328855,645905,30291
1283.19,1.331185,648307,30241
1286.61,1.334601,650446,30103
1290.03,1.334458,652132,30191
1293.44,1.340513,653907,29854
1296.85,1.335537,655963,30293
1301.39,1.337746,657349,30203
1304.8,1.329595,657558,30785
1308.19,1.330763,658515,30747
1311.58,1.335711,658804,30412
1314.97,1.328681,659011,30918
1318.36,1.338830,658272,30170
1321.73,1.335167,658022,30414
1326.23,1.336597,657870,30307
1329.6,1.335436,656482,30324
1332.97,1.333476,654926,30389
1336.33,1.332437,653727,30406
1339.69,1.335133,652497,30161
1343.04,1.340757,649913,29655
1346.39,1.333683,647671,30038
1349.73,1.336475,645338,29738
1354.18,1.334805,641175,29660
1357.52,1.334828,638376,29529
1360.85,1.334622,635805,29424
1364.17,1.334642,633413,29312
1367.49,1.330579,631026,29476
1370.81,1.328187,628050,29499
1374.12,1.330640,625034,29192
1378.54,1.330439,620272,28983
1381.84,1.327587,616892,29015
1385.14,1.326621,613613,28925
1388.43,1.331037,611526,28535
1391.72,1.329952,610663,28566
1395.01,1.328187,610634,28681
1398.29,1.331419,611700,28518
1402.66,1.331626,614051,28614
1405.93,1.334255,616268,28544
1409.2,1.336243,617795,28484
1412.46,1.337702,618872,28438
1415.72,1.337418,619795,28499
1418.98,1.332924,620495,28828
1422.23,1.330111,621087,29043
1426.56,1.333012,621375,28863
1429.8,1.335822,621616,28688
1433.04,1.340868,622129,28380
1436.27,1.335109,621526,28731
1439.5,1.336243,621113,28637
1442.72,1.334655,620921,28733
1445.94,1.336975,620270,28550
1450.23,1.331236,618860,28864
1453.44,1.335839,617697,28506
1456.64,1.342640,616264,27998
1459.85,1.336536,614413,28309
1463.04,1.337090,612307,28176
1466.24,1.344601,610032,27590
1469.43,1.337054,607345,27950
1473.67,1.342454,603789,27443
1476.85,1.337824,601175,27617
1480.02,1.335900,597737,27581
1483.19,1.342307,594479,27029
1486.36,1.335230,591232,27323
1489.52,1.343881,587853,26631
1492.68,1.339305,583875,26731
1496.89,1.341013,578062,26361
1500.03,1.342758,574159,26078
1503.18,1.337691,570285,26206
1506.32,1.343150,565444,25659
1509.45,1.343096,560571,25441
1512.58,1.341334,555821,25328
1515.71,1.337394,550344,25307
1519.87,1.342730,543983,24709
1522.99,1.350085,538764,24061
1526.1,1.338674,533692,24469
1529.21,1.337484,527902,24270
1532.32,1.348620,521886,23386
1535.42,1.340141,515888,23573
1538.51,1.384761,509987,21028
1541.6,1.335318,503936,23284
1545.72,1.340305,494694,22596
1548.8,1.336998,488378,22478
1551.88,1.350518,481832,21497
1554.95,1.340965,474989,21663
1558.02,1.332857,467818,21738
1561.08,1.340463,460730,21037
1564.15,1.333595,454170,21068
1568.22,1.336400,444181,20472
1571.27,1.340856,436947,19933
1574.32,1.347033,429598,19321
1577.36,1.340381,422039,19274
1580.4,1.335769,414375,19126
1583.43,1.337435,406354,18684
1586.46,1.343852,398475,18053
1590.49,1.340022,388982,17779
1593.51,1.340617,380708,17377
1596.53,1.336292,372727,17183
1599.54,1.344275,365060,16523
1602.55,1.342315,357543,16256
1605.55,1.335511,349495,16141
1608.55,1.326206,341154,16097
1612.54,1.334294,330877,15324
1615.53,1.337318,322904,14851
1618.51,1.334028,315116,14603
1621.49,1.319036,307217,14737
1624.47,1.342256,299481,13618
1627.44,1.328385,292112,13714
1630.41,1.335560,284245,13126
1634.36,1.342532,274079,12455
1637.32,1.334391,266916,12359
1640.27,1.333302,259612,12051
1643.22,1.341234,251804,11477
1646.16,1.340929,244348,11145
1649.1,1.333364,236703,10986
1652.04,1.336575,228171,10512
1655.95,1.320298,215408,10303
1658.88,1.318228,204937,9849
1661.8,1.334089,193395,8961
1664.72,1.342394,179728,8170
1667.63,1.346074,163642,7376
1670.54,1.354510,146312,6468
1673.44,1.339730,128451,5875
1677.31,1.400864,105080,4175
1680.21,1.356754,88906,3910
1683.1,1.364171,75033,3244
1685.99,1.429079,63520,2365
1688.87,1.332843,53714,2496
1691.75,1.345391,45653,2061
1694.62,1.246822,39137,2217
1697.49,1.396028,33776,1357
1701.31,1.268020,28175,1520

File: Column 1_078027_20241121_164154.csv
Method:,Column 1,,
Host Date-Time:,21/11/24 @ 16:41:54,,
Header Version:,1,,
System Temp (C):,29.98,,
Detector Temp (C):,25.06,,
Humidity (%):,6.48,,
Lamp PD:,3813,,
Shift Vector Coefficients:,-10.5391,0.0761263,-0.000134223,,
Pixel to Wavelength Coefficients:,1775.68,-0.916766,-0.000235065,,
Serial Number:,5510004,,
Scan Config Name:,Column 1,,
Scan Config Type:,Slew,,
Section 1,,
Start wavelength (nm):,900,,
End wavelength (nm):,1700,,
Pattern Pixel Width (nm):,   7.03,,,,
Exposure (ms):,  0.635,,,,
Digital Resolution:,228,,
Num Repeats:,6,,
PGA Gain:,64,,
Total Measurement Time in sec:,  2.735,,
Wavelength (nm),Absorbance (AU),Reference Signal (unitless),Sample Signal (unitless)
901.51,1.309866,108485,5315
905.376,1.303637,121306,6029
909.237,1.311052,131909,6445
913.095,1.311704,143299,6991
916.948,1.309077,156982,7705
922.079,1.311774,179937,8777
925.923,1.303341,200504,9972
929.762,1.310854,222660,10884
933.597,1.305829,244426,12087
937.427,1.317105,263972,12719
941.254,1.304752,281845,13972
945.076,1.316240,297271,14352
950.165,1.302222,315605,15737
953.978,1.312281,328029,15982
957.786,1.315913,340470,16450
961.59,1.304193,352317,17488
965.389,1.302871,363056,18076
969.185,1.310944,373162,18237
972.976,1.310475,382632,18720
976.763,1.313602,391202,19002
981.806,1.306260,400190,19770
985.583,1.310204,406088,19880
989.355,1.316861,410162,19774
993.124,1.315151,412868,19983
996.888,1.312721,414263,20163
1000.65,1.307916,415476,20447
1004.4,1.310219,415479,20339
1009.41,1.311466,414358,20226
1013.15,1.323259,412923,19616
1016.89,1.313128,411526,20011
1020.63,1.316600,409066,19733
1024.36,1.313196,406777,19777
1028.09,1.316338,404427,19521
1031.82,1.315769,401911,19425
1036.78,1.308939,398410,19561
1040.49,1.313398,396204,19254
1044.2,1.300035,394236,19757
1047.91,1.312140,392042,19107
1051.61,1.309925,389823,19096
1055.31,1.310180,388234,19007
1059,1.315938,387599,18726
1063.92,1.305623,386688,19131
1067.61,1.304004,386598,19198
1071.29,1.311557,387377,18905
1074.96,1.318846,388536,18646
1078.63,1.313500,389855,18941
1082.3,1.310043,391215,19159
1085.96,1.310109,393215,19254
1090.84,1.310301,396270,19395
1094.49,1.314188,398760,19343
1098.14,1.325957,400987,18931
1101.79,1.308759,403477,19818
1105.43,1.316128,406116,19612
1109.06,1.312538,407701,19852
1112.7,1.324117,409859,19432
1117.53,1.307729,412494,20309
1121.15,1.326362,414909,19570
1124.77,1.313724,416559,20228
1128.38,1.317260,418532,20159
1131.99,1.316672,419956,20255
1135.6,1.319282,421946,20229
1139.2,1.320540,423881,20263
1143.99,1.327101,426786,20096
1147.58,1.315344,428617,20736
1151.17,1.321815,431169,20551
1154.75,1.317712,433579,20862
1158.33,1.329290,436264,20439
1161.91,1.312933,439132,21363
1165.48,1.319366,442389,21205
1169.04,1.320911,446101,21307
1173.79,1.316454,451929,21808
1177.34,1.321351,456026,21759
1180.9,1.323188,461306,21918
1184.44,1.324769,467657,22139
1187.99,1.318998,473969,22738
1191.52,1.323824,479856,22766
1195.06,1.323798,487372,23124
1199.76,1.332165,497347,23147
1203.29,1.324573,504311,23885
1206.81,1.326276,511507,24131
1210.33,1.319819,519078,24855
1213.84,1.326776,527163,24841
1217.35,1.318894,534208,25634
1220.85,1.323246,540472,25676
1225.51,1.324232,549929,26066
1229.01,1.328014,556888,26167
1232.5,1.320430,562180,26881
1235.98,1.322917,567975,27003
1239.46,1.323652,574815,27282
1242.94,1.326284,582782,27493
1246.41,1.324996,591476,27986
1251.03,1.323636,604016,28669
1254.5,1.326254,612289,28887
1257.96,1.322737,619125,29447
1261.41,1.327841,624551,29358
1264.86,1.330777,629900,29410
1268.31,1.328649,634345,29763
1271.75,1.328481,638574,29973
1276.33,1.326874,642499,30269
1279.76,1.331083,645905,30136
1283.19,1.330180,648307,30311
1286.61,1.336727,650446,29956
1290.03,1.326886,652132,30722
1293.44,1.329100,653907,30649
1296.85,1.334234,655963,30384
1301.39,1.332614,657349,30562
1304.8,1.332610,657558,30572
1308.19,1.331173,658515,30718
1311.58,1.332156,658804,30662
1314.97,1.331373,659011,30727
1318.36,1.337135,658272,30288
1321.73,1.329323,658022,30826
1326.23,1.332475,657870,30596
1329.6,1.333222,656482,30479
1332.97,1.331522,654926,30526
1336.33,1.328640,653727,30673
1339.69,1.329852,652497,30530
1343.04,1.333438,649913,30159
1346.39,1.336628,647671,29835
1349.73,1.333550,645338,29939
1354.18,1.333460,641175,29752
1357.52,1.331794,638376,29736
1360.85,1.329268,635805,29789
1364.17,1.332233,633413,29475
1367.49,1.327101,631026,29713
1370.81,1.330549,628050,29339
1374.12,1.329570,625034,29264
1378.54,1.328913,620272,29085
1381.84,1.328111,616892,28980
1385.14,1.327027,613613,28898
1388.43,1.323927,611526,29006
1391.72,1.332912,610663,28372
1395.01,1.332524,610634,28396
1398.29,1.331343,611700,28523
1402.66,1.327833,614051,28865
1405.93,1.332327,616268,28671
1409.2,1.336442,617795,28471
1412.46,1.334294,618872,28662
1415.72,1.330945,619795,28927
1418.98,1.335720,620495,28643
1422.23,1.335785,621087,28666
1426.56,1.334716,621375,28750
1429.8,1.327159,621616,29266
1433.04,1.335258,622129,28749
1436.27,1.329716,621526,29090
1439.5,1.332980,621113,28853
1442.72,1.339015,620921,28446
1445.94,1.331533,620270,28910
1450.23,1.338810,618860,28365
1453.44,1.339480,617697,28268
1456.64,1.337766,616264,28314
1459.85,1.342374,614413,27931
1463.04,1.332841,612307,28453
1466.24,1.338520,610032,27979
1469.43,1.347002,607345,27317
1473.67,1.335842,603789,27864
1476.85,1.334722,601175,27815
1480.02,1.338221,597737,27434
1483.19,1.339983,594479,27174
1486.36,1.333722,591232,27418
1489.52,1.336845,587853,27066
1492.68,1.335584,583875,26961
1496.89,1.339861,578062,26431
1500.03,1.338120,574159,26358
1503.18,1.340268,570285,26051
1506.32,1.336399,565444,26061
1509.45,1.363937,560571,24249
1512.58,1.337935,555821,25527
1515.71,1.337668,550344,25291
1519.87,1.336743,543983,25052
1522.99,1.344668,538764,24363
1526.1,1.336356,533692,24600
1529.21,1.338128,527902,24234
1532.32,1.336226,521886,24063
1535.42,1.338064,515888,23686
1538.51,1.336547,509987,23497
1541.6,1.334070,503936,23351
1545.72,1.338368,494694,22697
1548.8,1.335995,488378,22530
1551.88,1.343862,481832,21829
1554.95,1.341507,474989,21636
1558.02,1.335221,467818,21620
1561.08,1.338321,460730,21141
1564.15,1.337301,454170,20889
1568.22,1.337313,444181,20429
1571.27,1.339247,436947,20007
1574.32,1.343028,429598,19500
1577.36,1.338672,422039,19350
1580.4,1.339372,414375,18968
1583.43,1.337807,406354,18668
1586.46,1.333864,398475,18473
1590.49,1.340854,388982,17745
1593.51,1.333306,380708,17672
1596.53,1.325755,372727,17605
1599.54,1.335816,365060,16848
1602.55,1.327528,357543,16819
1605.55,1.336534,349495,16103
1608.55,1.328641,341154,16007
1612.54,1.330260,330877,15467
1615.53,1.322484,322904,15367
1618.51,1.332959,315116,14639
1621.49,1.334393,307217,14225
1624.47,1.318943,299481,14369
1627.44,1.329336,292112,13684
1630.41,1.316687,284245,13709
1634.36,1.331583,274079,12773
1637.32,1.328389,266916,12531
1640.27,1.322236,259612,12362
1643.22,1.311617,251804,12287
1646.16,1.328938,244348,11457
1649.1,1.334790,236703,10950
1652.04,1.310013,228171,11175
1655.95,1.298393,215408,10836
1658.88,1.335225,204937,9471
1661.8,1.320820,193395,9239
1664.72,1.311963,179728,8763
1667.63,1.347371,163642,7354
1670.54,1.312922,146312,7118
1673.44,1.344935,128451,5805
1677.31,1.319521,105080,5035
1680.21,1.336677,88906,4095
1683.1,1.313317,75033,3647
1685.99,1.350511,63520,2834
1688.87,1.314113,53714,2606
1691.75,1.286741,45653,2359
1694.62,1.425566,39137,1469
1697.49,1.323675,33776,1603
1701.31,1.314095,28175,1367