Folder: textile_sorting_NIRSCAN_/ML/samples/unknown

Note: ML/README.md
# Machine Learning for Textile Sorting

This project focuses on using machine learning techniques to sort textiles based on their material composition. The goal is to develop a model that can accurately classify different types of textiles using data from NIR (Near-Infrared) scans.

## Requirements

To run the source code for this project, you need to install the required dependencies listed in the `requirements.txt` file. You can download and install these dependencies using the following bash command:

```bash
pip install -r requirements.txt
```

## Getting Started

1. Clone the repository to your local machine.
2. Navigate to the project directory.
3. Install the required dependencies using the command above.
4. Run the provided scripts to train and evaluate the machine learning models.

File: Column 1_078002_20241121_164042.csv
Method:,Column 1,,
Host Date-Time:,21/11/24 @ 16:40:42,,
Header Version:,1,,
System Temp (C):,29.02,,
Detector Temp (C):,26.96,,
Humidity (%):,7.88,,
Lamp PD:,3817,,
Shift Vector Coefficients:,-10.5391,0.0761263,-0.000134223,,
Pixel to Wavelength Coefficients:,1775.68,-0.916766,-0.000235065,,
Serial Number:,5510004,,
Scan Config Name:,Column 1,,
Scan Config Type:,Slew,,
Section 1,,
Start wavelength (nm):,900,,
End wavelength (nm):,1700,,
Pattern Pixel Width (nm):,   7.03,,,,
Exposure (ms):,  0.635,,,,
Digital Resolution:,228,,
Num Repeats:,6,,
PGA Gain:,64,,
Total Measurement Time in sec:,  2.706,,
Wavelength (nm),Absorbance (AU),Reference Signal (unitless),Sample Signal (unitless)
901.51,1.288969,108485,5577
905.376,1.278110,121306,6394
909.237,1.312672,131909,6421
913.095,1.312450,143299,6979
916.948,1.291730,156982,8019
922.079,1.297705,179937,9066
925.923,1.322848,200504,9534
929.762,1.303495,222660,11070
933.597,1.304143,244426,12134
937.427,1.311170,263972,12894
941.254,1.318135,281845,13548
945.076,1.313946,297271,14428
950.165,1.313517,315605,15333
953.978,1.309275,328029,16093
957.786,1.314358,340470,16509
961.59,1.311203,352317,17208
965.389,1.302031,363056,18111
969.185,1.306278,373162,18434
972.976,1.312499,382632,18633
976.763,1.305384,391202,19365
981.806,1.300282,400190,20044
985.583,1.301467,406088,20284
989.355,1.299510,410162,20580
993.124,1.303697,412868,20517
996.888,1.310251,414263,20278
1000.65,1.301277,415476,20762
1004.4,1.317107,415479,20019
1009.41,1.309217,414358,20331
1013.15,1.315187,412923,19984
1016.89,1.315675,411526,19894
1020.63,1.308360,409066,20111
1024.36,1.311006,406777,19877
1028.09,1.311273,404427,19750
1031.82,1.306566,401911,19841
1036.78,1.308118,398410,19598
1040.49,1.318457,396204,19031
1044.2,1.306993,394236,19443
1047.91,1.296667,392042,19800
1051.61,1.313052,389823,18959
1055.31,1.312977,388234,18885
1059,1.313648,387599,18825
1063.92,1.313110,386688,18804
1067.61,1.314652,386598,18733
1071.29,1.312984,387377,18843
1074.96,1.316546,388536,18745
1078.63,1.315315,389855,18862
1082.3,1.322389,391215,18622
1085.96,1.302817,393215,19580
1090.84,1.308157,396270,19491
1094.49,1.323309,398760,18941
1098.14,1.320644,400987,19164
1101.79,1.311772,403477,19681
1105.43,1.321386,406116,19376
1109.06,1.317709,407701,19617
1112.7,1.311670,409859,19997
1117.53,1.317679,412494,19849
1121.15,1.321770,414909,19778
1124.77,1.309770,416559,20413
1128.38,1.319593,418532,20051
1131.99,1.320613,419956,20072
1135.6,1.319906,421946,20200
1139.2,1.317614,423881,20400
1143.99,1.322222,426786,20323
1147.58,1.316393,428617,20686
1151.17,1.318006,431169,20732
1154.75,1.320427,433579,20732
1158.33,1.314727,436264,21136
1161.91,1.325933,439132,20733
1165.48,1.315249,442389,21407
1169.04,1.315623,446101,21568
1173.79,1.312411,451929,22012
1177.34,1.320254,456026,21814
1180.9,1.321330,461306,22012
1184.44,1.313022,467657,22746
1187.99,1.318292,473969,22775
1191.52,1.316748,479856,23140
1195.06,1.318923,487372,23385
1199.76,1.315581,497347,24048
1203.29,1.320051,504311,24135
1206.81,1.320164,511507,24473
1210.33,1.329358,519078,24315
1213.84,1.322012,527163,25115
1217.35,1.330971,534208,24931
1220.85,1.329756,540472,25294
1225.51,1.327695,549929,25859
1229.01,1.318931,556888,26720
1232.5,1.327121,562180,26470
1235.98,1.322740,567975,27014
1239.46,1.321017,574815,27448
1242.94,1.321508,582782,27797
1246.41,1.327050,591476,27854
1251.03,1.327669,604016,28404
1254.5,1.321053,612289,29235
1257.96,1.322516,619125,29462
1261.41,1.324673,624551,29573
1264.86,1.329700,629900,29483
1268.31,1.328313,634345,29786
1271.75,1.325982,638574,30146
1276.33,1.328484,642499,30157
1279.76,1.322211,645905,30758
1283.19,1.324741,648307,30693
1286.61,1.325253,650446,30758
1290.03,1.331848,652132,30373
1293.44,1.332500,653907,30410
1296.85,1.329062,655963,30748
1301.39,1.330785,657349,30691
1304.8,1.327821,657558,30911
1308.19,1.358269,658515,28860
1311.58,1.329740,658804,30833
1314.97,1.331033,659011,30751
1318.36,1.328630,658272,30887
1321.73,1.329337,658022,30825
1326.23,1.328505,657870,30877
1329.6,1.329138,656482,30767
1332.97,1.329422,654926,30674
1336.33,1.334126,653727,30288
1339.69,1.330407,652497,30491
1343.04,1.332704,649913,30210
1346.39,1.332918,647671,30091
1349.73,1.327314,645338,30372
1354.18,1.327401,641175,30170
1357.52,1.322546,638376,30376
1360.85,1.327740,635805,29894
1364.17,1.324928,633413,29975
1367.49,1.326195,631026,29775
1370.81,1.333251,628050,29157
1374.12,1.328562,625034,29332
1378.54,1.326545,620272,29244
1381.84,1.326316,616892,29100
1385.14,1.324838,613613,29044
1388.43,1.329669,611526,28625
1391.72,1.324889,610663,28901
1395.01,1.326253,610634,28809
1398.29,1.334430,611700,28321
1402.66,1.329869,614051,28730
1405.93,1.326474,616268,29060
1409.2,1.333159,617795,28687
1412.46,1.338191,618872,28406
1415.72,1.325069,619795,29321
1418.98,1.328577,620495,29118
1422.23,1.330111,621087,29043
1426.56,1.334761,621375,28747
1429.8,1.335655,621616,28699
1433.04,1.336165,622129,28689
1436.27,1.333058,621526,28867
1439.5,1.335970,621113,28655
1442.72,1.339397,620921,28421
1445.94,1.335123,620270,28672
1450.23,1.330740,618860,28897
1453.44,1.332243,617697,28743
1456.64,1.336372,616264,28405
1459.85,1.333951,614413,28478
1463.04,1.335367,612307,28288
1466.24,1.334565,610032,28235
1469.43,1.337271,607345,27936
1473.67,1.331376,603789,28152
1476.85,1.326264,601175,28362
1480.02,1.338585,597737,27411
1483.19,1.336735,594479,27378
1486.36,1.330896,591232,27597
1489.52,1.330094,587853,27490
1492.68,1.338217,583875,26798
1496.89,1.335105,578062,26722
1500.03,1.335344,574159,26527
1503.18,1.337012,570285,26247
1506.32,1.333393,565444,26242
1509.45,1.337634,560571,25763
1512.58,1.334799,555821,25712
1515.71,1.336605,550344,25353
1519.87,1.331453,543983,25359
1522.99,1.336474,538764,24827
1526.1,1.337699,533692,24524
1529.21,1.340446,527902,24105
1532.32,1.331077,521886,24350
1535.42,1.339956,515888,23583
1538.51,1.341024,509987,23256
1541.6,1.341347,503936,22963
1545.72,1.339844,494694,22620
1548.8,1.337211,488378,22467
1551.88,1.330848,481832,22493
1554.95,1.335407,474989,21942
1558.02,1.335824,467818,21590
1561.08,1.339493,460730,21084
1564.15,1.326257,454170,21427
1568.22,1.339359,444181,20333
1571.27,1.329587,436947,20457
1574.32,1.338442,429598,19707
1577.36,1.333451,422039,19584
1580.4,1.337886,414375,19033
1583.43,1.328668,406354,19065
1586.46,1.336410,398475,18365
1590.49,1.327265,388982,18309
1593.51,1.328079,380708,17886
1596.53,1.335358,372727,17220
1599.54,1.333707,365060,16930
1602.55,1.326522,357543,16858
1605.55,1.323621,349495,16589
1608.55,1.324751,341154,16151
1612.54,1.320049,330877,15835
1615.53,1.314726,322904,15644
1618.51,1.329767,315116,14747
1621.49,1.318594,307217,14752
1624.47,1.333792,299481,13886
1627.44,1.319763,292112,13989
1630.41,1.346076,284245,12812
1634.36,1.313991,274079,13301
1637.32,1.311330,266916,13033
1640.27,1.315197,259612,12564
1643.22,1.328555,251804,11817
1646.16,1.326217,244348,11529
1649.1,1.318138,236703,11378
1652.04,1.325601,228171,10781
1655.95,1.321269,215408,10280
1658.88,1.320306,204937,9802
1661.8,1.319366,193395,9270
1664.72,1.315696,179728,8688
1667.63,1.333825,163642,7587
1670.54,1.335141,146312,6763
1673.44,1.350507,128451,5731
1677.31,1.344644,105080,4752
1680.21,1.319216,88906,4263
1683.1,1.340338,75033,3427
1685.99,1.306811,63520,3134
1688.87,1.353876,53714,2378
1691.75,1.367435,45653,1959
1694.62,1.316586,39137,1888
1697.49,1.382170,33776,1401
1701.31,1.357494,28175,1237

File: Column 1_078003_20241121_164044.csv
Method:,Column 1,,
Host Date-Time:,21/11/24 @ 16:40:44,,
Header Version:,1,,
System Temp (C):,29.02,,
Detector Temp (C):,26.96,,
Humidity (%):,7.88,,
Lamp PD:,3817,,
Shift Vector Coefficients:,-10.5391,0.0761263,-0.000134223,,
Pixel to Wavelength Coefficients:,1775.68,-0.916766,-0.000235065,,
Serial Number:,5510004,,
Scan Config Name:,Column 1,,
Scan Config Type:,Slew,,
Section 1,,
Start wavelength (nm):,900,,
End wavelength (nm):,1700,,
Pattern Pixel Width (nm):,   7.03,,,,
Exposure (ms):,  0.635,,,,
Digital Resolution:,228,,
Num Repeats:,6,,
PGA Gain:,64,,
Total Measurement Time in sec:,  2.706,,
Wavelength (nm),Absorbance (AU),Reference Signal (unitless),Sample Signal (unitless)
901.51,1.293745,108485,5516
905.376,1.307544,121306,5975
909.237,1.306827,131909,6508
913.095,1.315322,143299,6933
916.948,1.302310,156982,7826
922.079,1.290201,179937,9224
925.923,1.299094,200504,10070
929.762,1.307832,222660,10960
933.597,1.299303,244426,12270
937.427,1.313399,263972,12828
941.254,1.303758,281845,14004
945.076,1.303390,297271,14783
950.165,1.306995,315605,15565
953.978,1.314215,328029,15911
957.786,1.306692,340470,16803
961.59,1.304815,352317,17463
965.389,1.307096,363056,17901
969.185,1.305736,373162,18457
972.976,1.307148,382632,18864
976.763,1.304734,391202,19394
981.806,1.309988,400190,19601
985.583,1.303721,406088,20179
989.355,1.315239,410162,19848
993.124,1.302556,412868,20571
996.888,1.301642,414263,20684
1000.65,1.310558,415476,20323
1004.4,1.304429,415479,20612
1009.41,1.298791,414358,20825
1013.15,1.311012,412923,20177
1016.89,1.302368,411526,20513
1020.63,1.312417,409066,19924
1024.36,1.304220,406777,20190
1028.09,1.301768,404427,20187
1031.82,1.308563,401911,19750
1036.78,1.307941,398410,19606
1040.49,1.306972,396204,19541
1044.2,1.307373,394236,19426
1047.91,1.307663,392042,19305
1051.61,1.308223,389823,19171
1055.31,1.311874,388234,18933
1059,1.307941,387599,19074
1063.92,1.314174,386688,18758
1067.61,1.310361,386598,18919
1071.29,1.311557,387377,18905
1074.96,1.312832,388536,18906
1078.63,1.313133,389855,18957
1082.3,1.310269,391215,19149
1085.96,1.314826,393215,19046
1090.84,1.308358,396270,19482
1094.49,1.309654,398760,19546
1098.14,1.315082,400987,19411
1101.79,1.315940,403477,19493
1105.43,1.318794,406116,19492
1109.06,1.313852,407701,19792
1112.7,1.310715,409859,20041
1117.53,1.316565,412494,19900
1121.15,1.322782,414909,19732
1124.77,1.311838,416559,20316
1128.38,1.325458,418532,19782
1131.99,1.320656,419956,20070
1135.6,1.332226,421946,19635
1139.2,1.319983,423881,20289
1143.99,1.324064,426786,20237
1147.58,1.317212,428617,20647
1151.17,1.317881,431169,20738
1154.75,1.318692,433579,20815
1158.33,1.320998,436264,20833
1161.91,1.313502,439132,21335
1165.48,1.317588,442389,21292
1169.04,1.321686,446101,21269
1173.79,1.318250,451929,21718
1177.34,1.309149,456026,22379
1180.9,1.316737,461306,22246
1184.44,1.313978,467657,22696
1187.99,1.315081,473969,22944
1191.52,1.320726,479856,22929
1195.06,1.321008,487372,23273
1199.76,1.323380,497347,23620
1203.29,1.315540,504311,24387
1206.81,1.318340,511507,24576
1210.33,1.320956,519078,24790
1213.84,1.316838,527163,25416
1217.35,1.322176,534208,25441
1220.85,1.320800,540472,25821
1225.51,1.320516,549929,26290
1229.01,1.323671,556888,26430
1232.5,1.330531,562180,26263
1235.98,1.320032,567975,27183
1239.46,1.322269,574815,27369
1242.94,1.322165,582782,27755
1246.41,1.318267,591476,28423
1251.03,1.321641,604016,28801
1254.5,1.319082,612289,29368
1257.96,1.318773,619125,29717
1261.41,1.324467,624551,29587
1264.86,1.327393,629900,29640
1268.31,1.324669,634345,30037
1271.75,1.325708,638574,30165
1276.33,1.323444,642499,30509
1279.76,1.322889,645905,30710
1283.19,1.328721,648307,30413
1286.61,1.328399,650446,30536
1290.03,1.331462,652132,30400
1293.44,1.333157,653907,30364
1296.85,1.326640,655963,30920
1301.39,1.325804,657349,31045
1304.8,1.332085,657558,30609
1308.19,1.327246,658515,30997
1311.58,1.329740,658804,30833
1314.97,1.336062,659011,30397
1318.36,1.331677,658272,30671
1321.73,1.329436,658022,30818
1326.23,1.336913,657870,30285
1329.6,1.327644,656482,30873
1332.97,1.328488,654926,30740
1336.33,1.332809,653727,30380
1339.69,1.329198,652497,30576
1343.04,1.326722,649913,30629
1346.39,1.328652,647671,30388
1349.73,1.331481,645338,30082
1354.18,1.331117,641175,29913
1357.52,1.327999,638376,29997
1360.85,1.330480,635805,29706
1364.17,1.323525,633413,30072
1367.49,1.330873,631026,29456
1370.81,1.327790,628050,29526
1374.12,1.326627,625034,29463
1378.54,1.329003,620272,29079
1381.84,1.329116,616892,28913
1385.14,1.324898,613613,29040
1388.43,1.327158,611526,28791
1391.72,1.325370,610663,28869
1395.01,1.321202,610634,29146
1398.29,1.329020,611700,28676
1402.66,1.333268,614051,28506
1405.93,1.321511,616268,29394
1409.2,1.329962,617795,28899
1412.46,1.332586,618872,28775
1415.72,1.332720,619795,28809
1418.98,1.335280,620495,28672
1422.23,1.333172,621087,28839
1426.56,1.334414,621375,28770
1429.8,1.332114,621616,28934
1433.04,1.329048,622129,29163
1436.27,1.331751,621526,28954
1439.5,1.333100,621113,28845
1442.72,1.331958,620921,28912
1445.94,1.333234,620270,28797
1450.23,1.333589,618860,28708
1453.44,1.336754,617697,28446
1456.64,1.334054,616264,28557
1459.85,1.330942,614413,28676
1463.04,1.335843,612307,28257
1466.24,1.334950,610032,28210
1469.43,1.332125,607345,28269
1473.67,1.337153,603789,27780
1476.85,1.335847,601175,27743
1480.02,1.334815,597737,27650
1483.19,1.337576,594479,27325
1486.36,1.334975,591232,27339
1489.52,1.332343,587853,27348
1492.68,1.336761,583875,26888
1496.89,1.340190,578062,26411
1500.03,1.329635,574159,26878
1503.18,1.335278,570285,26352
1506.32,1.341124,565444,25779
1509.45,1.342227,560571,25492
1512.58,1.329761,555821,26012
1515.71,1.341047,550344,25095
1519.87,1.341274,543983,24792
1522.99,1.338210,538764,24728
1526.1,1.340239,533692,24381
1529.21,1.336340,527902,24334
1532.32,1.333007,521886,24242
1535.42,1.334303,515888,23892
1538.51,1.332884,509987,23696
1541.6,1.330495,503936,23544
1545.72,1.329279,494694,23177
1548.8,1.345032,488378,22066
1551.88,1.329653,481832,22555
1554.95,1.340224,474989,21700
1558.02,1.332358,467818,21763
1561.08,1.331756,460730,21463
1564.15,1.338196,454170,20846
1568.22,1.331737,444181,20693
1571.27,1.333639,436947,20267
1574.32,1.334493,429598,19887
1577.36,1.326281,422039,19910
1580.4,1.332985,414375,19249
1583.43,1.335625,406354,18762
1586.46,1.321350,398475,19013
1590.49,1.341711,388982,17710
1593.51,1.328030,380708,17888
1596.53,1.335686,372727,17207
1599.54,1.330589,365060,17052
1602.55,1.332671,357543,16621
1605.55,1.330774,349495,16318
1608.55,1.328478,341154,16013
1612.54,1.319008,330877,15873
1615.53,1.337493,322904,14845
1618.51,1.318431,315116,15137
1621.49,1.319331,307217,14727
1624.47,1.318037,299481,14399
1627.44,1.314640,292112,14155
1630.41,1.312965,284245,13827
1634.36,1.312915,274079,13334
1637.32,1.325694,266916,12609
1640.27,1.323467,259612,12327
1643.22,1.329991,251804,11778
1646.16,1.321124,244348,11665
1649.1,1.305907,236703,11703
1652.04,1.312664,228171,11107
1655.95,1.324321,215408,10208
1658.88,1.311490,204937,10003
1661.8,1.319178,193395,9274
1664.72,1.326784,179728,8469
1667.63,1.320410,163642,7825
1670.54,1.332069,146312,6811
1673.44,1.325048,128451,6077
1677.31,1.347854,105080,4717
1680.21,1.332036,88906,4139
1683.1,1.317745,75033,3610
1685.99,1.430183,63520,2359
1688.87,1.380616,53714,2236
1691.75,1.439100,45653,1661
1694.62,1.322375,39137,1863
1697.49,1.306933,33776,1666
1701.31,1.261780,28175,1542

File: Column 1_078004_20241121_164047.csv
Method:,Column 1,,
Host Date-Time:,21/11/24 @ 16:40:47,,
Header Version:,1,,
System Temp (C):,29.08,,
Detector Temp (C):,26.38,,
Humidity (%):,7.88,,
Lamp PD:,3817,,
Shift Vector Coefficients:,-10.5391,0.0761263,-0.000134223,,
Pixel to Wavelength Coefficients:,1775.68,-0.916766,-0.000235065,,
Serial Number:,5510004,,
Scan Config Name:,Column 1,,
Scan Config Type:,Slew,,
Section 1,,
Start wavelength (nm):,900,,
End wavelength (nm):,1700,,
Pattern Pixel Width (nm):,   7.03,,,,
Exposure (ms):,  0.635,,,,
Digital Resolution:,228,,
Num Repeats:,6,,
PGA Gain:,64,,
Total Measurement Time in sec:,  2.706,,
Wavelength (nm),Absorbance (AU),Reference Signal (unitless),Sample Signal (unitless)
901.51,1.283168,108485,5652
905.376,1.305948,121306,5997
909.237,1.300270,131909,6607
913.095,1.302910,143299,7134
916.948,1.292651,156982,8002
922.079,1.307197,179937,8870
925.923,1.290341,200504,10275
929.762,1.315225,222660,10775
933.597,1.312090,244426,11914
937.427,1.306580,263972,13031
941.254,1.307214,281845,13893
945.076,1.319094,297271,14258
950.165,1.315931,315605,15248
953.978,1.292624,328029,16722
957.786,1.308635,340470,16728
961.59,1.298176,352317,17732
965.389,1.313130,363056,17654
969.185,1.306325,373162,18432
972.976,1.310916,382632,18701
976.763,1.296790,391202,19752
981.806,1.305491,400190,19805
985.583,1.307134,406088,20021
989.355,1.307411,410162,20209
993.124,1.299610,412868,20711
996.888,1.306859,414263,20437
1000.65,1.309427,415476,20376
1004.4,1.311203,415479,20293
1009.41,1.310308,414358,20280
1013.15,1.298663,412923,20759
1016.89,1.309885,411526,20161
1020.63,1.308813,409066,20090
1024.36,1.303039,406777,20245
1028.09,1.305919,404427,19995
1031.82,1.304078,401911,19955
1036.78,1.308141,398410,19597
1040.49,1.305198,396204,19621
1044.2,1.305099,394236,19528
1047.91,1.304346,392042,19453
1051.61,1.310494,389823,19071
1055.31,1.307651,388234,19118
1059,1.305964,387599,19161
1063.92,1.298910,386688,19429
1067.61,1.316674,386598,18646
1071.29,1.316780,387377,18679
1074.96,1.311983,388536,18943
1078.63,1.305278,389855,19303
1082.3,1.314760,391215,18952
1085.96,1.313733,393215,19094
1090.84,1.308915,396270,19457
1094.49,1.307327,398760,19651
1098.14,1.319761,400987,19203
1101.79,1.315294,403477,19522
1105.43,1.314471,406116,19687
1109.06,1.319817,407701,19522
1112.7,1.306145,409859,20253
1117.53,1.309508,412494,20226
1121.15,1.325387,414909,19614
1124.77,1.316135,416559,20116
1128.38,1.320612,418532,20004
1131.99,1.311747,419956,20486
1135.6,1.314606,421946,20448
1139.2,1.319491,423881,20312
1143.99,1.317758,426786,20533
1147.58,1.316939,428617,20660
1151.17,1.315708,431169,20842
1154.75,1.317275,433579,20883
1158.33,1.312922,436264,21224
1161.91,1.314154,439132,21303
1165.48,1.315431,442389,21398
1169.04,1.319040,446101,21399
1173.79,1.318590,451929,21701
1177.34,1.319399,456026,21857
1180.9,1.313974,461306,22388
1184.44,1.305733,467657,23131
1187.99,1.310112,473969,23208
1191.52,1.319648,479856,22986
1195.06,1.316128,487372,23536
1199.76,1.317971,497347,23916
1203.29,1.317664,504311,24268
1206.81,1.321764,511507,24383
1210.33,1.324898,519078,24566
1213.84,1.324492,527163,24972
1217.35,1.323972,534208,25336
1220.85,1.323364,540472,25669
1225.51,1.317963,549929,26445
1229.01,1.319419,556888,26690
1232.5,1.315706,562180,27175
1235.98,1.318787,567975,27261
1239.46,1.323859,574815,27269
1242.94,1.318441,582782,27994
1246.41,1.324252,591476,28034
1251.03,1.323363,604016,28687
1254.5,1.326886,612289,28845
1257.96,1.319110,619125,29694
1261.41,1.323280,624551,29668
1264.86,1.323847,629900,29883
1268.31,1.327207,634345,29862
1271.75,1.326284,638574,30125
1276.33,1.327794,642499,30205
1279.76,1.323441,645905,30671
1283.19,1.322469,648307,30854
1286.61,1.331740,650446,30302
1290.03,1.329339,652132,30549
1293.44,1.328420,653907,30697
1296.85,1.329444,655963,30721
1301.39,1.331266,657349,30657
1304.8,1.326923,657558,30975
1308.19,1.329423,658515,30842
1311.58,1.324741,658804,31190
1314.97,1.331302,659011,30732
1318.36,1.328770,658272,30877
1321.73,1.333812,658022,30509
1326.23,1.327087,657870,30978
1329.6,1.327630,656482,30874
1332.97,1.333276,654926,30403
1336.33,1.329136,653727,30638
1339.69,1.335824,652497,30113
1343.04,1.330296,649913,30378
1346.39,1.327297,647671,30483
1349.73,1.325445,645338,30503
1354.18,1.335040,641175,29644
1357.52,1.326828,638376,30078
1360.85,1.329108,635805,29800
1364.17,1.327660,633413,29787
1367.49,1.330549,631026,29478
1370.81,1.326072,628050,29643
1374.12,1.330060,625034,29231
1378.54,1.323703,620272,29436
1381.84,1.328201,616892,28974
1385.14,1.326516,613613,28932
1388.43,1.327083,611526,28796
1391.72,1.322626,610663,29052
1395.01,1.320101,610634,29220
1398.29,1.332976,611700,28416
1402.66,1.325342,614051,29031
1405.93,1.327536,616268,28989
1409.2,1.329947,617795,28900
1412.46,1.333023,618872,28746
1415.72,1.324462,619795,29362
1418.98,1.332698,620495,28843
1422.23,1.329349,621087,29094
1426.56,1.330387,621375,29038
1429.8,1.324039,621616,29477
1433.04,1.334096,622129,28826
1436.27,1.332907,621526,28877
1439.5,1.323820,621113,29468
1442.72,1.335200,620921,28697
1445.94,1.328703,620270,29099
1450.23,1.334695,618860,28635
1453.44,1.326763,617697,29108
1456.64,1.330073,616264,28820
1459.85,1.332869,614413,28549
1463.04,1.337059,612307,28178
1466.24,1.332478,610032,28371
1469.43,1.335565,607345,28046
1473.67,1.330667,603789,28198
1476.85,1.334113,601175,27854
1480.02,1.335302,597737,27619
1483.19,1.334725,594479,27505
1486.36,1.334229,591232,27386
1489.52,1.332915,587853,27312
1492.68,1.337813,583875,26823
1496.89,1.339434,578062,26457
1500.03,1.338746,574159,26320
1503.18,1.338570,570285,26153
1506.32,1.335416,565444,26120
1509.45,1.343541,560571,25415
1512.58,1.336508,555821,25611
1515.71,1.335954,550344,25391
1519.87,1.334236,543983,25197
1522.99,1.336317,538764,24836
1526.1,1.334365,533692,24713
1529.21,1.331353,527902,24615
1532.32,1.329634,521886,24431
1535.42,1.331278,515888,24059
1538.51,1.341342,509987,23239
1541.6,1.332307,503936,23446
1545.72,1.333176,494694,22970
1548.8,1.336709,488378,22493
1551.88,1.334532,481832,22303
1554.95,1.338347,474989,21794
1558.02,1.334198,467818,21671
1561.08,1.337152,460730,21198
1564.15,1.336200,454170,20942
1568.22,1.335086,444181,20534
1571.27,1.328019,436947,20531
1574.32,1.332575,429598,19975
1577.36,1.335786,422039,19479
1580.4,1.333527,414375,19225
1583.43,1.332489,406354,18898
1586.46,1.324537,398475,18874
1590.49,1.327360,388982,18305
1593.51,1.333872,380708,17649
1596.53,1.326076,372727,17592
1599.54,1.330742,365060,17046
1602.55,1.329806,357543,16731
1605.55,1.321479,349495,16671
1608.55,1.327936,341154,16033
1612.54,1.322551,330877,15744
1615.53,1.324013,322904,15313
1618.51,1.331330,315116,14694
1621.49,1.310746,307217,15021
1624.47,1.317223,299481,14426
1627.44,1.333258,292112,13561
1630.41,1.320921,284245,13576
1634.36,1.325874,274079,12942
1637.32,1.320830,266916,12751
1640.27,1.323749,259612,12319
1643.22,1.315059,251804,12190
1646.16,1.299625,244348,12257
1649.1,1.305313,236703,11719
1652.04,1.313211,228171,11093
1655.95,1.312776,215408,10483
1658.88,1.309325,204937,10053
1661.8,1.309179,193395,9490
1664.72,1.332513,179728,8358
1667.63,1.324033,163642,7760
1670.54,1.321176,146312,6984
1673.44,1.324120,128451,6090
1677.31,1.335778,105080,4850
1680.21,1.301940,88906,4436
1683.1,1.354245,75033,3319
1685.99,1.293574,63520,3231
1688.87,1.334936,53714,2484
1691.75,1.309998,45653,2236
1694.62,1.257130,39137,2165
1697.49,1.363364,33776,1463
1701.31,1.318566,28175,1353