Folder: textile_sorting_NIRSCAN_/ML/samples/unknown (part 72)

File: Column 1_078504_20241121_170555.csv
Method:,Column 1,,
Host Date-Time:,21/11/24 @ 17:5:55,,
Header Version:,1,,
System Temp (C):,34.41,,
Detector Temp (C):,33.87,,
Humidity (%):,1.86,,
Lamp PD:,3800,,
Shift Vector Coefficients:,-10.5391,0.0761263,-0.000134223,,
Pixel to Wavelength Coefficients:,1775.68,-0.916766,-0.000235065,,
Serial Number:,5510004,,
Scan Config Name:,Column 1,,
Scan Config Type:,Slew,,
Section 1,,
Start wavelength (nm):,900,,
End wavelength (nm):,1700,,
Pattern Pixel Width (nm):,   7.03,,,,
Exposure (ms):,  0.635,,,,
Digital Resolution:,228,,
Num Repeats:,6,,
PGA Gain:,64,,
Total Measurement Time in sec:,  2.733,,
Wavelength (nm),Absorbance (AU),Reference Signal (unitless),Sample Signal (unitless)
901.51,1.310112,108485,5312
905.376,1.305152,121306,6008
909.237,1.317432,131909,6351
913.095,1.339670,143299,6555
916.948,1.330213,156982,7339
922.079,1.332447,179937,8369
925.923,1.323897,200504,9511
929.762,1.327281,222660,10480
933.597,1.336378,244426,11266
937.427,1.314348,263972,12800
941.254,1.324041,281845,13365
945.076,1.320681,297271,14206
950.165,1.317558,315605,15191
953.978,1.320982,328029,15665
957.786,1.310639,340470,16651
961.59,1.318893,352317,16906
965.389,1.315647,363056,17552
969.185,1.308545,373162,18338
972.976,1.314274,382632,18557
976.763,1.308219,391202,19239
981.806,1.309036,400190,19644
985.583,1.312174,406088,19790
989.355,1.308831,410162,20143
993.124,1.298187,412868,20779
996.888,1.309780,414263,20300
1000.65,1.311756,415476,20267
1004.4,1.306266,415479,20525
1009.41,1.299835,414358,20775
1013.15,1.312543,412923,20106
1016.89,1.307694,411526,20263
1020.63,1.308792,409066,20091
1024.36,1.312998,406777,19786
1028.09,1.314983,404427,19582
1031.82,1.314831,401911,19467
1036.78,1.303687,398410,19799
1040.49,1.308397,396204,19477
1044.2,1.310920,394236,19268
1047.91,1.319799,392042,18773
1051.61,1.300922,389823,19496
1055.31,1.313506,388234,18862
1059,1.313902,387599,18814
1063.92,1.310646,386688,18911
1067.61,1.309444,386598,18959
1071.29,1.315573,387377,18731
1074.96,1.313038,388536,18897
1078.63,1.326983,389855,18362
1082.3,1.313433,391215,19010
1085.96,1.314211,393215,19073
1090.84,1.317299,396270,19085
1094.49,1.315672,398760,19277
1098.14,1.317731,400987,19293
1101.79,1.323582,403477,19153
1105.43,1.323521,406116,19281
1109.06,1.314137,407701,19779
1112.7,1.313738,409859,19902
1117.53,1.312481,412494,20088
1121.15,1.317858,414909,19957
1124.77,1.318603,416559,20002
1128.38,1.313058,418532,20355
1131.99,1.319123,419956,20141
1135.6,1.320529,421946,20171
1139.2,1.326801,423881,19973
1143.99,1.324128,426786,20234
1147.58,1.326009,428617,20233
1151.17,1.318446,431169,20711
1154.75,1.316175,433579,20936
1158.33,1.325840,436264,20602
1161.91,1.319549,439132,21040
1165.48,1.318486,442389,21248
1169.04,1.320341,446101,21335
1173.79,1.317731,451929,21744
1177.34,1.331631,456026,21250
1180.9,1.317226,461306,22221
1184.44,1.315857,467657,22598
1187.99,1.322719,473969,22544
1191.52,1.313178,479856,23331
1195.06,1.324380,487372,23093
1199.76,1.321856,497347,23703
1203.29,1.326870,504311,23759
1206.81,1.325539,511507,24172
1210.33,1.323011,519078,24673
1213.84,1.326287,527163,24869
1217.35,1.323424,534208,25368
1220.85,1.325586,540472,25538
1225.51,1.321972,549929,26202
1229.01,1.326970,556888,26230
1232.5,1.330250,562180,26280
1235.98,1.320128,567975,27177
1239.46,1.327168,574815,27062
1242.94,1.318007,582782,28022
1246.41,1.327206,591476,27844
1251.03,1.326432,604016,28485
1254.5,1.326299,612289,28884
1257.96,1.330010,619125,28958
1261.41,1.328641,624551,29304
1264.86,1.327042,629900,29664
1268.31,1.328240,634345,29791
1271.75,1.338759,638574,29272
1276.33,1.327305,642499,30239
1279.76,1.323540,645905,30664
1283.19,1.325506,648307,30639
1286.61,1.330909,650446,30360
1290.03,1.331119,652132,30424
1293.44,1.335955,653907,30169
1296.85,1.324888,655963,31045
1301.39,1.331068,657349,30671
1304.8,1.331787,657558,30630
1308.19,1.332135,658515,30650
1311.58,1.321716,658804,31408
1314.97,1.332547,659011,30644
1318.36,1.332145,658272,30638
1321.73,1.335038,658022,30423
1326.23,1.332987,657870,30560
1329.6,1.330438,656482,30675
1332.97,1.332035,654926,30490
1336.33,1.335476,653727,30194
1339.69,1.343360,652497,29595
1343.04,1.332834,649913,30201
1346.39,1.329711,647671,30314
1349.73,1.327428,645338,30364
1354.18,1.331901,641175,29859
1357.52,1.331312,638376,29769
1360.85,1.330684,635805,29692
1364.17,1.332911,633413,29429
1367.49,1.328242,631026,29635
1370.81,1.328570,628050,29473
1374.12,1.326347,625034,29482
1378.54,1.330229,620272,28997
1381.84,1.329492,616892,28888
1385.14,1.331969,613613,28571
1388.43,1.331921,611526,28477
1391.72,1.331521,610663,28463
1395.01,1.326328,610634,28804
1398.29,1.333786,611700,28363
1402.66,1.331990,614051,28590
1405.93,1.330634,616268,28783
1409.2,1.335406,617795,28539
1412.46,1.333371,618872,28723
1415.72,1.335669,619795,28614
1418.98,1.336889,620495,28566
1422.23,1.334892,621087,28725
1426.56,1.335532,621375,28696
1429.8,1.336549,621616,28640
1433.04,1.333900,622129,28839
1436.27,1.337488,621526,28574
1439.5,1.336061,621113,28649
1442.72,1.338878,620921,28455
1445.94,1.333550,620270,28776
1450.23,1.342716,618860,28111
1453.44,1.336724,617697,28448
1456.64,1.338287,616264,28280
1459.85,1.338627,614413,28173
1463.04,1.338464,612307,28087
1466.24,1.334273,610032,28254
1469.43,1.338985,607345,27826
1473.67,1.337106,603789,27783
1476.85,1.338485,601175,27575
1480.02,1.343285,597737,27116
1483.19,1.334409,594479,27525
1486.36,1.340861,591232,26971
1489.52,1.333838,587853,27254
1492.68,1.338169,583875,26801
1496.89,1.345001,578062,26120
1500.03,1.334608,574159,26572
1503.18,1.335905,570285,26314
1506.32,1.338252,565444,25950
1509.45,1.338748,560571,25697
1512.58,1.339999,555821,25406
1515.71,1.335442,550344,25421
1519.87,1.343698,543983,24654
1522.99,1.336282,538764,24838
1526.1,1.334594,533692,24700
1529.21,1.341348,527902,24055
1532.32,1.335793,521886,24087
1535.42,1.337990,515888,23690
1538.51,1.340725,509987,23272
1541.6,1.340195,503936,23024
1545.72,1.335603,494694,22842
1548.8,1.341797,488378,22231
1551.88,1.332318,481832,22417
1554.95,1.339204,474989,21751
1558.02,1.338953,467818,21435
1561.08,1.341641,460730,20980
1564.15,1.331990,454170,21146
1568.22,1.334875,444181,20544
1571.27,1.337903,436947,20069
1574.32,1.338265,429598,19715
1577.36,1.338313,422039,19366
1580.4,1.329234,414375,19416
1583.43,1.336460,406354,18726
1586.46,1.336434,398475,18364
1590.49,1.327835,388982,18285
1593.51,1.334783,380708,17612
1596.53,1.325558,372727,17613
1599.54,1.322965,365060,17354
1602.55,1.327193,357543,16832
1605.55,1.338453,349495,16032
1608.55,1.334074,341154,15808
1612.54,1.329643,330877,15489
1615.53,1.319695,322904,15466
1618.51,1.326656,315116,14853
1621.49,1.323628,307217,14582
1624.47,1.325889,299481,14141
1627.44,1.313200,292112,14202
1630.41,1.313342,284245,13815
1634.36,1.322365,274079,13047
1637.32,1.320048,266916,12774
1640.27,1.316443,259612,12528
1643.22,1.324677,251804,11923
1646.16,1.318785,244348,11728
1649.1,1.301770,236703,11815
1652.04,1.327094,228171,10744
1655.95,1.306239,215408,10642
1658.88,1.301151,204937,10244
1661.8,1.294157,193395,9824
1664.72,1.265656,179728,9749
1667.63,1.254138,163642,9115
1670.54,1.254602,146312,8141
1673.44,1.230331,128451,7558
1677.31,1.195445,105080,6700
1680.21,1.219604,88906,5362
1683.1,1.187100,75033,4877
1685.99,1.193957,63520,4064
1688.87,1.221289,53714,3227
1691.75,1.176596,45653,3040
1694.62,1.175282,39137,2614
1697.49,1.135560,33776,2472
1701.31,1.198469,28175,1784

File: Column 1_078506_20241121_170601.csv
Method:,Column 1,,
Host Date-Time:,21/11/24 @ 17:6:1,,
Header Version:,1,,
System Temp (C):,34.49,,
Detector Temp (C):,33.85,,
Humidity (%):,1.86,,
Lamp PD:,3800,,
Shift Vector Coefficients:,-10.5391,0.0761263,-0.000134223,,
Pixel to Wavelength Coefficients:,1775.68,-0.916766,-0.000235065,,
Serial Number:,5510004,,
Scan Config Name:,Column 1,,
Scan Config Type:,Slew,,
Section 1,,
Start wavelength (nm):,900,,
End wavelength (nm):,1700,,
Pattern Pixel Width (nm):,   7.03,,,,
Exposure (ms):,  0.635,,,,
Digital Resolution:,228,,
Num Repeats:,6,,
PGA Gain:,64,,
Total Measurement Time in sec:,  2.725,,
Wavelength (nm),Absorbance (AU),Reference Signal (unitless),Sample Signal (unitless)
901.51,1.309213,108485,5323
905.376,1.308636,121306,5960
909.237,1.309975,131909,6461
913.095,1.317142,143299,6904
916.948,1.306324,156982,7754
922.079,1.310687,179937,8799
925.923,1.342509,200504,9112
929.762,1.325874,222660,10514
933.597,1.335723,244426,11283
937.427,1.320946,263972,12607
941.254,1.313068,281845,13707
945.076,1.312624,297271,14472
950.165,1.308336,315605,15517
953.978,1.319736,328029,15710
957.786,1.313333,340470,16548
961.59,1.315795,352317,17027
965.389,1.311093,363056,17737
969.185,1.306749,373162,18414
972.976,1.308693,382632,18797
976.763,1.313945,391202,18987
981.806,1.314263,400190,19409
985.583,1.301552,406088,20280
989.355,1.312469,410162,19975
993.124,1.302197,412868,20588
996.888,1.309652,414263,20306
1000.65,1.308108,415476,20438
1004.4,1.316132,415479,20064
1009.41,1.304226,414358,20566
1013.15,1.301918,412923,20604
1016.89,1.312933,411526,20020
1020.63,1.313508,409066,19874
1024.36,1.320124,406777,19464
1028.09,1.311735,404427,19729
1031.82,1.308651,401911,19746
1036.78,1.308274,398410,19591
1040.49,1.306617,396204,19557
1044.2,1.305099,394236,19528
1047.91,1.314328,392042,19011
1051.61,1.307046,389823,19223
1055.31,1.308948,388234,19061
1059,1.304426,387599,19229
1063.92,1.310600,386688,18913
1067.61,1.315697,386598,18688
1071.29,1.307647,387377,19076
1074.96,1.312924,388536,18902
1078.63,1.315984,389855,18833
1082.3,1.313708,391215,18998
1085.96,1.304640,393215,19498
1090.84,1.320336,396270,18952
1094.49,1.319951,398760,19088
1098.14,1.327358,400987,18870
1101.79,1.315962,403477,19492
1105.43,1.322553,406116,19324
1109.06,1.322249,407701,19413
1112.7,1.325124,409859,19387
1117.53,1.314431,412494,19998
1121.15,1.317640,414909,19967
1124.77,1.322179,416559,19838
1128.38,1.318922,418532,20082
1131.99,1.314383,419956,20362
1135.6,1.314818,421946,20438
1139.2,1.316572,423881,20449
1143.99,1.317864,426786,20528
1147.58,1.313568,428617,20821
1151.17,1.318048,431169,20730
1154.75,1.315139,433579,20986
1158.33,1.321290,436264,20819
1161.91,1.315809,439132,21222
1165.48,1.319059,442389,21220
1169.04,1.326759,446101,21022
1173.79,1.316873,451929,21787
1177.34,1.322390,456026,21707
1180.9,1.318067,461306,22178
1184.44,1.321058,467657,22329
1187.99,1.318520,473969,22763
1191.52,1.320101,479856,22962
1195.06,1.319760,487372,23340
1199.76,1.319955,497347,23807
1203.29,1.326980,504311,23753
1206.81,1.319934,511507,24486
1210.33,1.325783,519078,24516
1213.84,1.323658,527163,25020
1217.35,1.326206,534208,25206
1220.85,1.326216,540472,25501
1225.51,1.320913,549929,26266
1229.01,1.327748,556888,26183
1232.5,1.328749,562180,26371
1235.98,1.318421,567975,27284
1239.46,1.318179,574815,27628
1242.94,1.325290,582782,27556
1246.41,1.327627,591476,27817
1251.03,1.320090,604016,28904
1254.5,1.324708,612289,28990
1257.96,1.326991,619125,29160
1261.41,1.333065,624551,29007
1264.86,1.329347,629900,29507
1268.31,1.325045,634345,30011
1271.75,1.326616,638574,30102
1276.33,1.326702,642499,30281
1279.76,1.327895,645905,30358
1283.19,1.331659,648307,30208
1286.61,1.323872,650446,30856
1290.03,1.326674,652132,30737
1293.44,1.327756,653907,30744
1296.85,1.319715,655963,31417
1301.39,1.327051,657349,30956
1304.8,1.335018,657558,30403
1308.19,1.334950,658515,30452
1311.58,1.332723,658804,30622
1314.97,1.325783,659011,31125
1318.36,1.334561,658272,30468
1321.73,1.330240,658022,30761
1326.23,1.331993,657870,30630
1329.6,1.330821,656482,30648
1332.97,1.330513,654926,30597
1336.33,1.329207,653727,30633
1339.69,1.328673,652497,30613
1343.04,1.330410,649913,30370
1346.39,1.330715,647671,30244
1349.73,1.329895,645338,30192
1354.18,1.327646,641175,30153
1357.52,1.331254,638376,29773
1360.85,1.327711,635805,29896
1364.17,1.331071,633413,29554
1367.49,1.332114,631026,29372
1370.81,1.333967,628050,29109
1374.12,1.327896,625034,29377
1378.54,1.331850,620272,28889
1381.84,1.326092,616892,29115
1385.14,1.328668,613613,28789
1388.43,1.328427,611526,28707
1391.72,1.330820,610663,28509
1395.01,1.326208,610634,28812
1398.29,1.333128,611700,28406
1402.66,1.328089,614051,28848
1405.93,1.329037,616268,28889
1409.2,1.327116,617795,29089
1412.46,1.339431,618872,28325
1415.72,1.330390,619795,28964
1418.98,1.329428,620495,29061
1422.23,1.333338,621087,28828
1426.56,1.333780,621375,28812
1429.8,1.331259,621616,28991
1433.04,1.326406,622129,29341
1436.27,1.335577,621526,28700
1439.5,1.331237,621113,28969
1442.72,1.332139,620921,28900
1445.94,1.334457,620270,28716
1450.23,1.330559,618860,28909
1453.44,1.338314,617697,28344
1456.64,1.334267,616264,28543
1459.85,1.334348,614413,28452
1463.04,1.338928,612307,28057
1466.24,1.330477,610032,28502
1469.43,1.330377,607345,28383
1473.67,1.333092,603789,28041
1476.85,1.341837,601175,27363
1480.02,1.334391,597737,27677
1483.19,1.335389,594479,27463
1486.36,1.341538,591232,26929
1489.52,1.333791,587853,27257
1492.68,1.333190,583875,27110
1496.89,1.341524,578062,26330
1500.03,1.342292,574159,26106
1503.18,1.339751,570285,26082
1506.32,1.333393,565444,26242
1509.45,1.330031,560571,26218
1512.58,1.338037,555821,25521
1515.71,1.339786,550344,25168
1519.87,1.334409,543983,25187
1522.99,1.339846,538764,24635
1526.1,1.330638,533692,24926
1529.21,1.335876,527902,24360
1532.32,1.329066,521886,24463
1535.42,1.336892,515888,23750
1538.51,1.331694,509987,23761
1541.6,1.332362,503936,23443
1545.72,1.328082,494694,23241
1548.8,1.334840,488378,22590
1551.88,1.334143,481832,22323
1554.95,1.329100,474989,22263
1558.02,1.328069,467818,21979
1561.08,1.330766,460730,21512
1564.15,1.330391,454170,21224
1568.22,1.331191,444181,20719
1571.27,1.336758,436947,20122
1574.32,1.335586,429598,19837
1577.36,1.332964,422039,19606
1580.4,1.329928,414375,19385
1583.43,1.338365,406354,18644
1586.46,1.324629,398475,18870
1590.49,1.332563,388982,18087
1593.51,1.331173,380708,17759
1596.53,1.321215,372727,17790
1599.54,1.325022,365060,17272
1602.55,1.323928,357543,16959
1605.55,1.326747,349495,16470
1608.55,1.321109,341154,16287
1612.54,1.334862,330877,15304
1615.53,1.325121,322904,15274
1618.51,1.331567,315116,14686
1621.49,1.322290,307217,14627
1624.47,1.318399,299481,14387
1627.44,1.315992,292112,14111
1630.41,1.323681,284245,13490
1634.36,1.316283,274079,13231
1637.32,1.316189,266916,12888
1640.27,1.308032,259612,12773
1643.22,1.305370,251804,12465
1646.16,1.320640,244348,11678
1649.1,1.310045,236703,11592
1652.04,1.316237,228171,11016
1655.95,1.294443,215408,10935
1658.88,1.307901,204937,10086
1661.8,1.288404,193395,9955
1664.72,1.271847,179728,9611
1667.63,1.266020,163642,8869
1670.54,1.259916,146312,8042
1673.44,1.224339,128451,7663
1677.31,1.217995,105080,6361
1680.21,1.192523,88906,5707
1683.1,1.155590,75033,5244
1685.99,1.209292,63520,3923
1688.87,1.186516,53714,3496
1691.75,1.204015,45653,2854
1694.62,1.200594,39137,2466
1697.49,1.220685,33776,2032
1701.31,1.191945,28175,1811

File: Column 1_078507_20241121_170604.csv
Method:,Column 1,,
Host Date-Time:,21/11/24 @ 17:6:4,,
Header Version:,1,,
System Temp (C):,34.58,,
Detector Temp (C):,33.83,,
Humidity (%):,1.95,,
Lamp PD:,3800,,
Shift Vector Coefficients:,-10.5391,0.0761263,-0.000134223,,
Pixel to Wavelength Coefficients:,1775.68,-0.916766,-0.000235065,,
Serial Number:,5510004,,
Scan Config Name:,Column 1,,
Scan Config Type:,Slew,,
Section 1,,
Start wavelength (nm):,900,,
End wavelength (nm):,1700,,
Pattern Pixel Width (nm):,   7.03,,,,
Exposure (ms):,  0.635,,,,
Digital Resolution:,228,,
Num Repeats:,6,,
PGA Gain:,64,,
Total Measurement Time in sec:,  2.724,,
Wavelength (nm),Absorbance (AU),Reference Signal (unitless),Sample Signal (unitless)
901.51,1.335012,108485,5016
905.376,1.331219,121306,5658
909.237,1.306093,131909,6519
913.095,1.305291,143299,7095
916.948,1.332646,156982,7298
922.079,1.321937,179937,8574
925.923,1.343846,200504,9084
929.762,1.318299,222660,10699
933.597,1.328584,244426,11470
937.427,1.325831,263972,12466
941.254,1.321676,281845,13438
945.076,1.318911,297271,14264
950.165,1.323053,315605,15000
953.978,1.318411,328029,15758
957.786,1.313465,340470,16543
961.59,1.321805,352317,16793
965.389,1.300977,363056,18155
969.185,1.320186,373162,17853
972.976,1.304806,382632,18966
976.763,1.315113,391202,18936
981.806,1.314039,400190,19419
985.583,1.305424,406088,20100
989.355,1.309069,410162,20132
993.124,1.312486,412868,20106
996.888,1.309032,414263,20335
1000.65,1.309001,415476,20396
1004.4,1.306583,415479,20510
1009.41,1.306555,414358,20456
1013.15,1.313646,412923,20055
1016.89,1.307072,411526,20292
1020.63,1.310525,409066,20011
1024.36,1.311486,406777,19855
1028.09,1.306919,404427,19949
1031.82,1.312983,401911,19550
1036.78,1.311969,398410,19425
1040.49,1.309223,396204,19440
1044.2,1.306680,394236,19457
1047.91,1.313050,392042,19067
1051.61,1.305108,389823,19309
1055.31,1.301740,388234,19380
1059,1.310178,387599,18976
1063.92,1.300747,386688,19347
1067.61,1.318378,386598,18573
1071.29,1.304584,387377,19211
1074.96,1.315620,388536,18785
1078.63,1.315384,389855,18859
1082.3,1.305465,391215,19362
1085.96,1.312779,393215,19136
1090.84,1.313155,396270,19268
1094.49,1.317094,398760,19214
1098.14,1.322529,400987,19081
1101.79,1.313164,403477,19618
1105.43,1.319128,406116,19477
1109.06,1.309312,407701,20000
1112.7,1.312235,409859,19971
1117.53,1.325160,412494,19510
1121.15,1.311485,414909,20252
1124.77,1.310558,416559,20376
1128.38,1.318101,418532,20120
1131.99,1.312765,419956,20438
1135.6,1.314521,421946,20452
1139.2,1.317103,423881,20424
1143.99,1.321496,426786,20357
1147.58,1.318856,428617,20569
1151.17,1.319307,431169,20670
1154.75,1.316258,433579,20932
1158.33,1.321603,436264,20804
1161.91,1.313401,439132,21340
1165.48,1.316915,442389,21325
1169.04,1.324184,446101,21147
1173.79,1.324068,451929,21429
1177.34,1.326551,456026,21500
1180.9,1.316503,461306,22258
1184.44,1.312393,467657,22779
1187.99,1.317168,473969,22834
1191.52,1.317631,479856,23093
1195.06,1.316109,487372,23537
1199.76,1.318407,497347,23892
1203.29,1.323937,504311,23920
1206.81,1.323299,511507,24297
1210.33,1.321272,519078,24772
1213.84,1.331381,527163,24579
1217.35,1.324161,534208,25325
1220.85,1.326063,540472,25510
1225.51,1.326973,549929,25902
1229.01,1.318460,556888,26749
1232.5,1.329821,562180,26306
1235.98,1.320623,567975,27146
1239.46,1.321936,574815,27390
1242.94,1.320728,582782,27847
1246.41,1.322304,591476,28160
1251.03,1.326097,604016,28507
1254.5,1.329135,612289,28696
1257.96,1.320854,619125,29575
1261.41,1.327043,624551,29412
1264.86,1.328935,629900,29535
1268.31,1.326262,634345,29927
1271.75,1.335095,638574,29520
1276.33,1.328225,642499,30175
1279.76,1.330464,645905,30179
1283.19,1.330180,648307,30311
1286.61,1.331855,650446,30294
1290.03,1.324926,652132,30861
1293.44,1.331359,653907,30490
1296.85,1.329472,655963,30719
1301.39,1.334337,657349,30441
1304.8,1.331844,657558,30626
1308.19,1.332617,658515,30616
1311.58,1.328924,658804,30891
1314.97,1.333711,659011,30562
1318.36,1.329150,658272,30850
1321.73,1.330480,658022,30744
1326.23,1.331653,657870,30654
1329.6,1.334649,656482,30379
1332.97,1.335438,654926,30252
1336.33,1.336513,653727,30122
1339.69,1.335897,652497,30108
1343.04,1.328200,649913,30525
1346.39,1.328681,647671,30386
1349.73,1.328416,645338,30295
1354.18,1.328381,641175,30102
1357.52,1.333697,638376,29606
1360.85,1.331680,635805,29624
1364.17,1.330058,633413,29623
1367.49,1.329990,631026,29516
1370.81,1.325984,628050,29649
1374.12,1.332130,625034,29092
1378.54,1.327482,620272,29181
1381.84,1.326077,616892,29116
1385.14,1.324315,613613,29079
1388.43,1.327188,611526,28789
1391.72,1.325942,610663,28831
1395.01,1.328202,610634,28680
1398.29,1.329277,611700,28659
1402.66,1.328059,614051,28850
1405.93,1.330181,616268,28813
1409.2,1.332826,617795,28709
1412.46,1.322309,618872,29464
1415.72,1.327997,619795,29124
1418.98,1.336752,620495,28575
1422.23,1.334832,621087,28729
1426.56,1.338006,621375,28533
1429.8,1.332024,621616,28940
1433.04,1.335499,622129,28733
1436.27,1.333705,621526,28824
1439.5,1.331327,621113,28963
1442.72,1.335366,620921,28686
1445.94,1.334850,620270,28690
1450.23,1.329419,618860,28985
1453.44,1.338100,617697,28358
1456.64,1.332809,616264,28639
1459.85,1.340172,614413,28073
1463.04,1.335828,612307,28258
1466.24,1.334042,610032,28269
1469.43,1.334497,607345,28115
1473.67,1.336029,603789,27852
1476.85,1.338202,601175,27593
1480.02,1.338902,597737,27391
1483.19,1.338260,594479,27282
1486.36,1.336264,591232,27258
1489.52,1.336668,587853,27077
1492.68,1.338574,583875,26776
1496.89,1.337272,578062,26589
1500.03,1.340731,574159,26200
1503.18,1.338438,570285,26161
1506.32,1.342541,565444,25695
1509.45,1.332940,560571,26043
1512.58,1.336542,555821,25609
1515.71,1.336742,550344,25345
1519.87,1.333685,543983,25229
1522.99,1.335775,538764,24867
1526.1,1.337823,533692,24517
1529.21,1.335448,527902,24384
1532.32,1.338433,521886,23941
1535.42,1.340417,515888,23558
1538.51,1.335236,509987,23568
1541.6,1.335150,503936,23293
1545.72,1.332703,494694,22995
1548.8,1.338314,488378,22410
1551.88,1.342134,481832,21916
1554.95,1.335982,474989,21913
1558.02,1.338791,467818,21443
1561.08,1.332992,460730,21402
1564.15,1.330453,454170,21221
1568.22,1.336188,444181,20482
1571.27,1.327659,436947,20548
1574.32,1.331186,429598,20039
1577.36,1.332809,422039,19613
1580.4,1.333301,414375,19235
1583.43,1.339135,406354,18611
1586.46,1.334452,398475,18448
1590.49,1.338316,388982,17849
1593.51,1.329928,380708,17810
1596.53,1.332342,372727,17340
1599.54,1.325626,365060,17248
1602.55,1.325673,357543,16891
1605.55,1.329923,349495,16350
1608.55,1.327286,341154,16057
1612.54,1.333134,330877,15365
1615.53,1.336150,322904,14891
1618.51,1.325809,315116,14882
1621.49,1.327337,307217,14458
1624.47,1.321367,299481,14289
1627.44,1.309940,292112,14309
1630.41,1.314948,284245,13764
1634.36,1.319677,274079,13128
1637.32,1.313100,266916,12980
1640.27,1.317554,259612,12496
1643.22,1.332357,251804,11714
1646.16,1.325991,244348,11535
1649.1,1.302800,236703,11787
1652.04,1.317816,228171,10976
1655.95,1.320087,215408,10308
1658.88,1.294712,204937,10397
1661.8,1.297708,193395,9744
1664.72,1.270584,179728,9639
1667.63,1.265042,163642,8889
1670.54,1.239298,146312,8433
1673.44,1.227467,128451,7608
1677.31,1.215408,105080,6399
1680.21,1.187530,88906,5773
1683.1,1.187367,75033,4874
1685.99,1.155234,63520,4443
1688.87,1.219811,53714,3238
1691.75,1.138593,45653,3318
1694.62,1.193260,39137,2508
1697.49,1.158465,33776,2345
1701.31,1.127645,28175,2100