Folder: textile_sorting_NIRSCAN_/ML/samples/unknown (part 23)

File: Column 1_078150_20241121_164755.csv
Method:,Column 1,,
Host Date-Time:,21/11/24 @ 16:47:55,,
Header Version:,1,,
System Temp (C):,33.22,,
Detector Temp (C):,29.31,,
Humidity (%):,3.22,,
Lamp PD:,3805,,
Shift Vector Coefficients:,-10.5391,0.0761263,-0.000134223,,
Pixel to Wavelength Coefficients:,1775.68,-0.916766,-0.000235065,,
Serial Number:,5510004,,
Scan Config Name:,Column 1,,
Scan Config Type:,Slew,,
Section 1,,
Start wavelength (nm):,900,,
End wavelength (nm):,1700,,
Pattern Pixel Width (nm):,   7.03,,,,
Exposure (ms):,  0.635,,,,
Digital Resolution:,228,,
Num Repeats:,6,,
PGA Gain:,64,,
Total Measurement Time in sec:,  2.726,,
Wavelength (nm),Absorbance (AU),Reference Signal (unitless),Sample Signal (unitless)
901.51,1.316453,108485,5235
905.376,1.289046,121306,6235
909.237,1.325368,131909,6236
913.095,1.320299,143299,6854
916.948,1.299820,156982,7871
922.079,1.303055,179937,8955
925.923,1.296256,200504,10136
929.762,1.311573,222660,10866
933.597,1.323166,244426,11614
937.427,1.308283,263972,12980
941.254,1.305654,281845,13943
945.076,1.310947,297271,14528
950.165,1.322792,315605,15009
953.978,1.301095,328029,16399
957.786,1.304784,340470,16877
961.59,1.303276,352317,17525
965.389,1.306393,363056,17930
969.185,1.311659,373162,18207
972.976,1.295450,382632,19379
976.763,1.306461,391202,19317
981.806,1.300109,400190,20052
985.583,1.306831,406088,20035
989.355,1.306166,410162,20267
993.124,1.307866,412868,20321
996.888,1.312355,414263,20180
1000.65,1.308426,415476,20423
1004.4,1.308068,415479,20440
1009.41,1.308278,414358,20375
1013.15,1.307113,412923,20359
1016.89,1.306538,411526,20317
1020.63,1.306829,409066,20182
1024.36,1.302717,406777,20260
1028.09,1.315294,404427,19568
1031.82,1.314853,401911,19466
1036.78,1.310184,398410,19505
1040.49,1.312384,396204,19299
1044.2,1.303966,394236,19579
1047.91,1.300390,392042,19631
1051.61,1.315211,389823,18865
1055.31,1.307856,388234,19109
1059,1.311278,387599,18928
1063.92,1.321482,386688,18445
1067.61,1.306727,386598,19078
1071.29,1.313653,387377,18814
1074.96,1.322964,388536,18470
1078.63,1.313271,389855,18951
1082.3,1.306431,391215,19319
1085.96,1.321513,393215,18755
1090.84,1.315211,396270,19177
1094.49,1.304003,398760,19802
1098.14,1.324331,400987,19002
1101.79,1.319160,403477,19349
1105.43,1.312095,406116,19795
1109.06,1.310530,407701,19944
1112.7,1.318234,409859,19697
1117.53,1.311099,412494,20152
1121.15,1.312924,414909,20185
1124.77,1.325431,416559,19690
1128.38,1.319030,418532,20077
1131.99,1.314896,419956,20338
1135.6,1.318425,421946,20269
1139.2,1.315596,423881,20495
1143.99,1.321795,426786,20343
1147.58,1.312214,428617,20886
1151.17,1.311065,431169,21066
1154.75,1.322737,433579,20622
1158.33,1.312779,436264,21231
1161.91,1.316854,439132,21171
1165.48,1.316956,442389,21323
1169.04,1.310897,446101,21804
1173.79,1.318691,451929,21696
1177.34,1.307541,456026,22462
1180.9,1.315899,461306,22289
1184.44,1.325732,467657,22090
1187.99,1.322969,473969,22531
1191.52,1.317612,479856,23094
1195.06,1.317736,487372,23449
1199.76,1.327536,497347,23395
1203.29,1.321132,504311,24075
1206.81,1.320733,511507,24441
1210.33,1.317727,519078,24975
1213.84,1.315745,527163,25480
1217.35,1.329545,534208,25013
1220.85,1.314323,540472,26209
1225.51,1.326169,549929,25950
1229.01,1.326589,556888,26253
1232.5,1.320462,562180,26879
1235.98,1.319680,567975,27205
1239.46,1.323923,574815,27265
1242.94,1.322776,582782,27716
1246.41,1.324484,591476,28019
1251.03,1.323015,604016,28710
1254.5,1.324558,612289,29000
1257.96,1.324570,619125,29323
1261.41,1.326527,624551,29447
1264.86,1.325303,629900,29783
1268.31,1.325393,634345,29987
1271.75,1.323224,638574,30338
1276.33,1.327851,642499,30201
1279.76,1.326753,645905,30438
1283.19,1.327040,648307,30531
1286.61,1.329424,650446,30464
1290.03,1.335308,652132,30132
1293.44,1.327374,653907,30771
1296.85,1.332950,655963,30474
1301.39,1.328935,657349,30822
1304.8,1.328989,657558,30828
1308.19,1.334351,658515,30494
1311.58,1.330756,658804,30761
1314.97,1.335277,659011,30452
1318.36,1.332911,658272,30584
1321.73,1.329563,658022,30809
1326.23,1.331780,657870,30645
1329.6,1.336368,656482,30259
1332.97,1.331138,654926,30553
1336.33,1.330840,653727,30518
1339.69,1.327780,652497,30676
1343.04,1.333453,649913,30158
1346.39,1.334595,647671,29975
1349.73,1.332579,645338,30006
1354.18,1.332163,641175,29841
1357.52,1.331590,638376,29750
1360.85,1.328467,635805,29844
1364.17,1.325682,633413,29923
1367.49,1.326955,631026,29723
1370.81,1.325413,628050,29688
1374.12,1.329258,625034,29285
1378.54,1.329391,620272,29053
1381.84,1.331602,616892,28748
1385.14,1.328110,613613,28826
1388.43,1.325607,611526,28894
1391.72,1.328541,610663,28659
1395.01,1.329005,610634,28627
1398.29,1.324155,611700,28999
1402.66,1.331338,614051,28633
1405.93,1.332357,616268,28669
1409.2,1.329646,617795,28920
1412.46,1.334764,618872,28631
1415.72,1.331065,619795,28919
1418.98,1.337513,620495,28525
1422.23,1.331294,621087,28964
1426.56,1.325657,621375,29356
1429.8,1.335640,621616,28700
1433.04,1.329764,622129,29115
1436.27,1.330702,621526,29024
1439.5,1.333808,621113,28798
1442.72,1.334534,620921,28741
1445.94,1.336975,620270,28550
1450.23,1.337251,618860,28467
1453.44,1.335017,617697,28560
1456.64,1.333993,616264,28561
1459.85,1.341815,614413,27967
1463.04,1.335935,612307,28251
1466.24,1.333244,610032,28321
1469.43,1.339156,607345,27815
1473.67,1.338217,603789,27712
1476.85,1.335894,601175,27740
1480.02,1.334313,597737,27682
1483.19,1.340687,594479,27130
1486.36,1.343251,591232,26823
1489.52,1.337455,587853,27028
1492.68,1.340085,583875,26683
1496.89,1.341821,578062,26312
1500.03,1.336442,574159,26460
1503.18,1.339335,570285,26107
1506.32,1.339341,565444,25885
1509.45,1.337904,560571,25747
1512.58,1.334985,555821,25701
1515.71,1.348518,550344,24667
1519.87,1.332860,543983,25277
1522.99,1.331344,538764,25122
1526.1,1.334242,533692,24720
1529.21,1.331936,527902,24582
1532.32,1.335649,521886,24095
1535.42,1.333468,515888,23938
1538.51,1.335753,509987,23540
1541.6,1.342123,503936,22922
1545.72,1.337050,494694,22766
1548.8,1.335841,488378,22538
1551.88,1.333249,481832,22369
1554.95,1.331565,474989,22137
1558.02,1.335603,467818,21601
1561.08,1.333906,460730,21357
1564.15,1.332113,454170,21140
1568.22,1.332977,444181,20634
1571.27,1.335142,436947,20197
1574.32,1.333729,429598,19922
1577.36,1.330688,422039,19709
1580.4,1.330488,414375,19360
1583.43,1.334354,406354,18817
1586.46,1.327353,398475,18752
1590.49,1.330383,388982,18178
1593.51,1.330929,380708,17769
1596.53,1.332968,372727,17315
1599.54,1.316975,365060,17595
1602.55,1.324005,357543,16956
1605.55,1.326089,349495,16495
1608.55,1.332921,341154,15850
1612.54,1.328691,330877,15523
1615.53,1.325633,322904,15256
1618.51,1.323365,315116,14966
1621.49,1.315368,307217,14862
1624.47,1.313089,299481,14564
1627.44,1.320353,292112,13970
1630.41,1.313562,284245,13808
1634.36,1.312460,274079,13348
1637.32,1.319674,266916,12785
1640.27,1.316270,259612,12533
1643.22,1.312714,251804,12256
1646.16,1.314914,244348,11833
1649.1,1.308325,236703,11638
1652.04,1.313995,228171,11073
1655.95,1.316437,215408,10395
1658.88,1.307557,204937,10094
1661.8,1.305125,193395,9579
1664.72,1.288662,179728,9246
1667.63,1.278186,163642,8624
1670.54,1.282698,146312,7631
1673.44,1.257663,128451,7097
1677.31,1.252660,105080,5873
1680.21,1.257231,88906,4917
1683.1,1.216764,75033,4555
1685.99,1.251095,63520,3563
1688.87,1.214346,53714,3279
1691.75,1.223148,45653,2731
1694.62,1.257531,39137,2163
1697.49,1.240806,33776,1940
1701.31,1.323408,28175,1338

File: Column 1_078151_20241121_164758.csv
Method:,Column 1,,
Host Date-Time:,21/11/24 @ 16:47:58,,
Header Version:,1,,
System Temp (C):,33.2,,
Detector Temp (C):,29.31,,
Humidity (%):,3.22,,
Lamp PD:,3805,,
Shift Vector Coefficients:,-10.5391,0.0761263,-0.000134223,,
Pixel to Wavelength Coefficients:,1775.68,-0.916766,-0.000235065,,
Serial Number:,5510004,,
Scan Config Name:,Column 1,,
Scan Config Type:,Slew,,
Section 1,,
Start wavelength (nm):,900,,
End wavelength (nm):,1700,,
Pattern Pixel Width (nm):,   7.03,,,,
Exposure (ms):,  0.635,,,,
Digital Resolution:,228,,
Num Repeats:,6,,
PGA Gain:,64,,
Total Measurement Time in sec:,  2.725,,
Wavelength (nm),Absorbance (AU),Reference Signal (unitless),Sample Signal (unitless)
901.51,1.324322,108485,5141
905.376,1.348044,121306,5443
909.237,1.341978,131909,6002
913.095,1.309164,143299,7032
916.948,1.336231,156982,7238
922.079,1.308570,179937,8842
925.923,1.339564,200504,9174
929.762,1.321763,222660,10614
933.597,1.332311,244426,11372
937.427,1.320946,263972,12607
941.254,1.323879,281845,13370
945.076,1.317908,297271,14297
950.165,1.311821,315605,15393
953.978,1.316075,328029,15843
957.786,1.319758,340470,16305
961.59,1.317380,352317,16965
965.389,1.310457,363056,17763
969.185,1.318390,373162,17927
972.976,1.309039,382632,18782
976.763,1.319516,391202,18745
981.806,1.322576,400190,19041
985.583,1.315434,406088,19642
989.355,1.307045,410162,20226
993.124,1.315477,412868,19968
996.888,1.318576,414263,19893
1000.65,1.317994,415476,19978
1004.4,1.308727,415479,20409
1009.41,1.307554,414358,20409
1013.15,1.319709,412923,19777
1016.89,1.318720,411526,19755
1020.63,1.315304,409066,19792
1024.36,1.311640,406777,19848
1028.09,1.313500,404427,19649
1031.82,1.311719,401911,19607
1036.78,1.307299,398410,19635
1040.49,1.324270,396204,18778
1044.2,1.313089,394236,19172
1047.91,1.317998,392042,18851
1051.61,1.318028,389823,18743
1055.31,1.312494,388234,18906
1059,1.317238,387599,18670
1063.92,1.315612,386688,18696
1067.61,1.319806,386598,18512
1071.29,1.310685,387377,18943
1074.96,1.315666,388536,18783
1078.63,1.320341,389855,18645
1082.3,1.315517,391215,18919
1085.96,1.324977,393215,18606
1090.84,1.320909,396270,18927
1094.49,1.312843,398760,19403
1098.14,1.318925,400987,19240
1101.79,1.323718,403477,19147
1105.43,1.321543,406116,19369
1109.06,1.325821,407701,19254
1112.7,1.321110,409859,19567
1117.53,1.316848,412494,19887
1121.15,1.327451,414909,19521
1124.77,1.319755,416559,19949
1128.38,1.319290,418532,20065
1131.99,1.327703,419956,19747
1135.6,1.324553,421946,19985
1139.2,1.331765,423881,19746
1143.99,1.330115,426786,19957
1147.58,1.318941,428617,20565
1151.17,1.318363,431169,20715
1154.75,1.313156,433579,21082
1158.33,1.324115,436264,20684
1161.91,1.323031,439132,20872
1165.48,1.322924,442389,21032
1169.04,1.321911,446101,21258
1173.79,1.317871,451929,21737
1177.34,1.316922,456026,21982
1180.9,1.317910,461306,22186
1184.44,1.323868,467657,22185
1187.99,1.330357,473969,22151
1191.52,1.321522,479856,22887
1195.06,1.328158,487372,22893
1199.76,1.324724,497347,23547
1203.29,1.328702,504311,23659
1206.81,1.314996,511507,24766
1210.33,1.329662,519078,24298
1213.84,1.328703,527163,24731
1217.35,1.331790,534208,24884
1220.85,1.334035,540472,25046
1225.51,1.328687,549929,25800
1229.01,1.327500,556888,26198
1232.5,1.327647,562180,26438
1235.98,1.323142,567975,26989
1239.46,1.330099,574815,26880
1242.94,1.322917,582782,27707
1246.41,1.326317,591476,27901
1251.03,1.329155,604016,28307
1254.5,1.336292,612289,28227
1257.96,1.333503,619125,28726
1261.41,1.328849,624551,29290
1264.86,1.328773,629900,29546
1268.31,1.330653,634345,29626
1271.75,1.332528,638574,29695
1276.33,1.335613,642499,29666
1279.76,1.332122,645905,30064
1283.19,1.331644,648307,30209
1286.61,1.330852,650446,30364
1290.03,1.331433,652132,30402
1293.44,1.331929,653907,30450
1296.85,1.334907,655963,30337
1301.39,1.332628,657349,30561
1304.8,1.334261,657558,30456
1308.19,1.337037,658515,30306
1311.58,1.332326,658804,30650
1314.97,1.335206,659011,30457
1318.36,1.333167,658272,30566
1321.73,1.333841,658022,30507
1326.23,1.337788,657870,30224
1329.6,1.335508,656482,30319
1332.97,1.338088,654926,30068
1336.33,1.339885,653727,29889
1339.69,1.330706,652497,30470
1343.04,1.332259,649913,30241
1346.39,1.334306,647671,29995
1349.73,1.335338,645338,29816
1354.18,1.337995,641175,29443
1357.52,1.334754,638376,29534
1360.85,1.333841,635805,29477
1364.17,1.331821,633413,29503
1367.49,1.327730,631026,29670
1370.81,1.331290,628050,29289
1374.12,1.337825,625034,28713
1378.54,1.334443,620272,28717
1381.84,1.336280,616892,28440
1385.14,1.328321,613613,28812
1388.43,1.325923,611526,28873
1391.72,1.331674,610663,28453
1395.01,1.336411,610634,28143
1398.29,1.333939,611700,28353
1402.66,1.332309,614051,28569
1405.93,1.331525,616268,28724
1409.2,1.335193,617795,28553
1412.46,1.333568,618872,28710
1415.72,1.337891,619795,28468
1418.98,1.335492,620495,28658
1422.23,1.337835,621087,28531
1426.56,1.330701,621375,29017
1429.8,1.337734,621616,28562
1433.04,1.337454,622129,28604
1436.27,1.336032,621526,28670
1439.5,1.334352,621113,28762
1442.72,1.334157,620921,28766
1445.94,1.340518,620270,28318
1450.23,1.334589,618860,28642
1453.44,1.336602,617697,28456
1456.64,1.335013,616264,28494
1459.85,1.338982,614413,28150
1463.04,1.340044,612307,27985
1466.24,1.343202,610032,27679
1469.43,1.337458,607345,27924
1473.67,1.339112,603789,27655
1476.85,1.339621,601175,27503
1480.02,1.344407,597737,27046
1483.19,1.338181,594479,27287
1486.36,1.338901,591232,27093
1489.52,1.346794,587853,26453
1492.68,1.338412,583875,26786
1496.89,1.341788,578062,26314
1500.03,1.347732,574159,25781
1503.18,1.340384,570285,26044
1506.32,1.333989,565444,26206
1509.45,1.344858,560571,25338
1512.58,1.346301,555821,25040
1515.71,1.341220,550344,25085
1519.87,1.342730,543983,24709
1522.99,1.344187,538764,24390
1526.1,1.345093,533692,24110
1529.21,1.345703,527902,23815
1532.32,1.344369,521886,23616
1535.42,1.340528,515888,23552
1538.51,1.339793,509987,23322
1541.6,1.342502,503936,22902
1545.72,1.342424,494694,22486
1548.8,1.344541,488378,22091
1551.88,1.347899,481832,21627
1554.95,1.336200,474989,21902
1558.02,1.340638,467818,21352
1561.08,1.349621,460730,20598
1564.15,1.343288,454170,20603
1568.22,1.339679,444181,20318
1571.27,1.340007,436947,19972
1574.32,1.339633,429598,19653
1577.36,1.342413,422039,19184
1580.4,1.336247,414375,19105
1583.43,1.335024,406354,18788
1586.46,1.333793,398475,18476
1590.49,1.341490,388982,17719
1593.51,1.338349,380708,17468
1596.53,1.331266,372727,17383
1599.54,1.335481,365060,16861
1602.55,1.337717,357543,16429
1605.55,1.340544,349495,15955
1608.55,1.328369,341154,16017
1612.54,1.324958,330877,15657
1615.53,1.321525,322904,15401
1618.51,1.334356,315116,14592
1621.49,1.322854,307217,14608
1624.47,1.327705,299481,14082
1627.44,1.331149,292112,13627
1630.41,1.337550,284245,13066
1634.36,1.318158,274079,13174
1637.32,1.323358,266916,12677
1640.27,1.330607,259612,12126
1643.22,1.321773,251804,12003
1646.16,1.311988,244348,11913
1649.1,1.322434,236703,11266
1652.04,1.329689,228171,10680
1655.95,1.310957,215408,10527
1658.88,1.298783,204937,10300
1661.8,1.299450,193395,9705
1664.72,1.297056,179728,9069
1667.63,1.295183,163642,8293
1670.54,1.294291,146312,7430
1673.44,1.279756,128451,6745
1677.31,1.290254,105080,5386
1680.21,1.248314,88906,5019
1683.1,1.290921,75033,3840
1685.99,1.276571,63520,3360
1688.87,1.318468,53714,2580
1691.75,1.273149,45653,2434
1694.62,1.293298,39137,1992
1697.49,1.346194,33776,1522
1701.31,1.408077,28175,1101

File: Column 1_078152_20241121_164801.csv
Method:,Column 1,,
Host Date-Time:,21/11/24 @ 16:48:1,,
Header Version:,1,,
System Temp (C):,33.28,,
Detector Temp (C):,29.31,,
Humidity (%):,3.22,,
Lamp PD:,3805,,
Shift Vector Coefficients:,-10.5391,0.0761263,-0.000134223,,
Pixel to Wavelength Coefficients:,1775.68,-0.916766,-0.000235065,,
Serial Number:,5510004,,
Scan Config Name:,Column 1,,
Scan Config Type:,Slew,,
Section 1,,
Start wavelength (nm):,900,,
End wavelength (nm):,1700,,
Pattern Pixel Width (nm):,   7.03,,,,
Exposure (ms):,  0.635,,,,
Digital Resolution:,228,,
Num Repeats:,6,,
PGA Gain:,64,,
Total Measurement Time in sec:,  2.724,,
Wavelength (nm),Absorbance (AU),Reference Signal (unitless),Sample Signal (unitless)
901.51,1.298814,108485,5452
905.376,1.318885,121306,5821
909.237,1.300336,131909,6606
913.095,1.316137,143299,6920
916.948,1.315723,156982,7588
922.079,1.332084,179937,8376
925.923,1.321393,200504,9566
929.762,1.326329,222660,10503
933.597,1.321859,244426,11649
937.427,1.321118,263972,12602
941.254,1.327270,281845,13266
945.076,1.321507,297271,14179
950.165,1.321809,315605,15043
953.978,1.305059,328029,16250
957.786,1.317209,340470,16401
961.59,1.320359,352317,16849
965.389,1.317730,363056,17468
969.185,1.297301,373162,18819
972.976,1.315398,382632,18509
976.763,1.312096,391202,19068
981.806,1.308926,400190,19649
985.583,1.322523,406088,19324
989.355,1.305481,410162,20299
993.124,1.306991,412868,20362
996.888,1.315552,414263,20032
1000.65,1.313883,415476,20168
1004.4,1.309921,415479,20353
1009.41,1.303129,414358,20618
1013.15,1.311077,412923,20174
1016.89,1.305769,411526,20353
1020.63,1.307303,409066,20160
1024.36,1.309544,406777,19944
1028.09,1.313699,404427,19640
1031.82,1.316843,401911,19377
1036.78,1.319138,398410,19107
1040.49,1.310072,396204,19402
1044.2,1.313474,394236,19155
1047.91,1.317584,392042,18869
1051.61,1.313006,389823,18961
1055.31,1.310729,388234,18983
1059,1.309766,387599,18994
1063.92,1.309270,386688,18971
1067.61,1.311258,386598,18880
1071.29,1.318457,387377,18607
1074.96,1.310152,388536,19023
1078.63,1.322232,389855,18564
1082.3,1.319368,391215,18752
1085.96,1.330403,393215,18375
1090.84,1.312119,396270,19314
1094.49,1.308544,398760,19596
1098.14,1.316427,400987,19351
1101.79,1.312523,403477,19647
1105.43,1.312885,406116,19759
1109.06,1.328082,407701,19154
1112.7,1.317441,409859,19733
1117.53,1.326029,412494,19471
1121.15,1.326584,414909,19560
1124.77,1.318364,416559,20013
1128.38,1.323771,418532,19859
1131.99,1.324067,419956,19913
1135.6,1.319992,421946,20196
1139.2,1.322710,423881,20162
1143.99,1.317039,426786,20567
1147.58,1.326031,428617,20232
1151.17,1.316939,431169,20783
1154.75,1.327395,433579,20402
1158.33,1.324325,436264,20674
1161.91,1.315911,439132,21217
1165.48,1.322037,442389,21075
1169.04,1.319547,446101,21374
1173.79,1.319813,451929,21640
1177.34,1.318070,456026,21924
1180.9,1.320581,461306,22050
1184.44,1.312736,467657,22761
1187.99,1.329534,473969,22193
1191.52,1.325909,479856,22657
1195.06,1.327779,487372,22913
1199.76,1.325425,497347,23509
1203.29,1.317182,504311,24295
1206.81,1.328007,511507,24035
1210.33,1.319260,519078,24887
1213.84,1.322358,527163,25095
1217.35,1.328781,534208,25057
1220.85,1.324398,540472,25608
1225.51,1.319889,549929,26328
1229.01,1.320952,556888,26596
1232.5,1.326204,562180,26526
1235.98,1.328453,567975,26661
1239.46,1.326719,574815,27090
1242.94,1.319809,582782,27906
1246.41,1.329285,591476,27711
1251.03,1.324212,604016,28631
1254.5,1.329332,612289,28683
1257.96,1.323727,619125,29380
1261.41,1.324526,624551,29583
1264.86,1.330142,629900,29453
1268.31,1.331753,634345,29551
1271.75,1.327743,638574,30024
1276.33,1.326000,642499,30330
1279.76,1.331602,645905,30100
1283.19,1.332493,648307,30150
1286.61,1.327348,650446,30610
1290.03,1.330335,652132,30479
1293.44,1.332885,653907,30383
1296.85,1.334692,655963,30352
1301.39,1.334880,657349,30403
1304.8,1.334932,657558,30409
1308.19,1.329959,658515,30804
1311.58,1.332482,658804,30639
1314.97,1.334337,659011,30518
1318.36,1.330179,658272,30777
1321.73,1.333187,658022,30553
1326.23,1.335881,657870,30357
1329.6,1.327757,656482,30865
1332.97,1.336963,654926,30146
1336.33,1.334484,653727,30263
1339.69,1.339271,652497,29875
1343.04,1.337446,649913,29882
1346.39,1.334103,647671,30009
1349.73,1.333826,645338,29920
1354.18,1.326955,641175,30201
1357.52,1.332379,638376,29696
1360.85,1.328773,635805,29823
1364.17,1.327019,633413,29831
1367.49,1.340444,631026,28814
1370.81,1.329484,628050,29411
1374.12,1.328606,625034,29329
1378.54,1.328794,620272,29093
1381.84,1.324678,616892,29210
1385.14,1.323867,613613,29109
1388.43,1.328170,611526,28724
1391.72,1.323149,610663,29017
1395.01,1.326042,610634,28823
1398.29,1.332716,611700,28433
1402.66,1.331596,614051,28616
1405.93,1.329985,616268,28826
1409.2,1.334220,617795,28617
1412.46,1.335508,618872,28582
1415.72,1.334684,619795,28679
1418.98,1.328756,620495,29106
1422.23,1.330335,621087,29028
1426.56,1.330567,621375,29026
1429.8,1.332745,621616,28892
1433.04,1.333509,622129,28865
1436.27,1.331976,621526,28939
1439.5,1.336016,621113,28652
1442.72,1.338024,620921,28511
1445.94,1.330647,620270,28969
1450.23,1.333832,618860,28692
1453.44,1.337014,617697,28429
1456.64,1.337152,616264,28354
1459.85,1.333768,614413,28490
1463.04,1.334554,612307,28341
1466.24,1.334196,610032,28259
1469.43,1.337318,607345,27933
1473.67,1.340244,603789,27583
1476.85,1.337887,601175,27613
1480.02,1.337430,597737,27484
1483.19,1.336148,594479,27415
1486.36,1.342911,591232,26844
1489.52,1.340600,587853,26833
1492.68,1.343993,583875,26444
1496.89,1.344619,578062,26143
1500.03,1.333237,574159,26656
1503.18,1.338803,570285,26139
1506.32,1.327590,565444,26595
1509.45,1.339865,560571,25631
1512.58,1.337595,555821,25547
1515.71,1.340286,550344,25139
1519.87,1.341169,543983,24798
1522.99,1.333858,538764,24977
1526.1,1.347605,533692,23971
1529.21,1.341312,527902,24057
1532.32,1.338125,521886,23958
1535.42,1.339662,515888,23599
1538.51,1.349186,509987,22823
1541.6,1.335318,503936,23284
1545.72,1.340305,494694,22596
1548.8,1.340373,488378,22304
1551.88,1.336015,481832,22227
1554.95,1.339944,474989,21714
1558.02,1.340374,467818,21365
1561.08,1.334802,460730,21313
1564.15,1.337301,454170,20889
1568.22,1.338121,444181,20391
1571.27,1.334068,436947,20247
1574.32,1.336595,429598,19791
1577.36,1.327745,422039,19843
1580.4,1.327493,414375,19494
1583.43,1.338226,406354,18650
1586.46,1.335560,398475,18401
1590.49,1.340731,388982,17750
1593.51,1.341468,380708,17343
1596.53,1.329247,372727,17464
1599.54,1.331201,365060,17028
1602.55,1.334819,357543,16539
1605.55,1.324171,349495,16568
1608.55,1.323972,341154,16180
1612.54,1.323601,330877,15706
1615.53,1.335508,322904,14913
1618.51,1.334296,315116,14594
1621.49,1.330170,307217,14364
1624.47,1.320851,299481,14306
1627.44,1.306674,292112,14417
1630.41,1.319580,284245,13618
1634.36,1.318455,274079,13165
1637.32,1.324696,266916,12638
1640.27,1.316339,259612,12531
1643.22,1.308904,251804,12364
1646.16,1.316642,244348,11786
1649.1,1.323747,236703,11232
1652.04,1.299227,228171,11456
1655.95,1.319077,215408,10332
1658.88,1.307988,204937,10084
1661.8,1.301828,193395,9652
1664.72,1.301969,179728,8967
1667.63,1.289822,163642,8396
1670.54,1.273854,146312,7788
1673.44,1.271718,128451,6871
1677.31,1.311149,105080,5133
1680.21,1.268596,88906,4790
1683.1,1.230518,75033,4413
1685.99,1.286111,63520,3287
1688.87,1.243657,53714,3065
1691.75,1.288956,45653,2347
1694.62,1.301219,39137,1956
1697.49,1.193753,33776,2162
1701.31,1.319530,28175,1350