Folder: textile_sorting_NIRSCAN_/ML/samples/unknown (part 21)

File: Column 1_078143_20241121_164735.csv
Method:,Column 1,,
Host Date-Time:,21/11/24 @ 16:47:35,,
Header Version:,1,,
System Temp (C):,33.11,,
Detector Temp (C):,29.08,,
Humidity (%):,3.32,,
Lamp PD:,3806,,
Shift Vector Coefficients:,-10.5391,0.0761263,-0.000134223,,
Pixel to Wavelength Coefficients:,1775.68,-0.916766,-0.000235065,,
Serial Number:,5510004,,
Scan Config Name:,Column 1,,
Scan Config Type:,Slew,,
Section 1,,
Start wavelength (nm):,900,,
End wavelength (nm):,1700,,
Pattern Pixel Width (nm):,   7.03,,,,
Exposure (ms):,  0.635,,,,
Digital Resolution:,228,,
Num Repeats:,6,,
PGA Gain:,64,,
Total Measurement Time in sec:,  2.722,,
Wavelength (nm),Absorbance (AU),Reference Signal (unitless),Sample Signal (unitless)
901.51,1.330190,108485,5072
905.376,1.334765,121306,5612
909.237,1.322730,131909,6274
913.095,1.315510,143299,6930
916.948,1.325739,156982,7415
922.079,1.325804,179937,8498
925.923,1.312985,200504,9753
929.762,1.307317,222660,10973
933.597,1.334954,244426,11303
937.427,1.313670,263972,12820
941.254,1.325245,281845,13328
945.076,1.334187,297271,13771
950.165,1.324619,315605,14946
953.978,1.313996,328029,15919
957.786,1.314305,340470,16511
961.59,1.316178,352317,17012
965.389,1.316687,363056,17510
969.185,1.316263,373162,18015
972.976,1.316361,382632,18468
976.763,1.319631,391202,18740
981.806,1.316844,400190,19294
985.583,1.307416,406088,20008
989.355,1.313274,410162,19938
993.124,1.315346,412868,19974
996.888,1.316420,414263,19992
1000.65,1.316388,415476,20052
1004.4,1.301908,415479,20732
1009.41,1.309452,414358,20320
1013.15,1.315752,412923,19958
1016.89,1.315937,411526,19882
1020.63,1.316424,409066,19741
1024.36,1.310372,406777,19906
1028.09,1.320608,404427,19330
1031.82,1.308563,401911,19750
1036.78,1.314301,398410,19321
1040.49,1.313375,396204,19255
1044.2,1.318720,394236,18925
1047.91,1.315838,392042,18945
1051.61,1.311223,389823,19039
1055.31,1.308629,388234,19075
1059,1.314918,387599,18770
1063.92,1.316077,386688,18676
1067.61,1.315488,386598,18697
1071.29,1.315411,387377,18738
1074.96,1.313544,388536,18875
1078.63,1.316122,389855,18827
1082.3,1.319600,391215,18742
1085.96,1.326052,393215,18560
1090.84,1.312096,396270,19315
1094.49,1.311613,398760,19458
1098.14,1.316247,400987,19359
1101.79,1.321253,403477,19256
1105.43,1.321072,406116,19390
1109.06,1.324110,407701,19330
1112.7,1.317441,409859,19733
1117.53,1.316958,412494,19882
1121.15,1.315925,414909,20046
1124.77,1.309727,416559,20415
1128.38,1.320612,418532,20004
1131.99,1.322326,419956,19993
1135.6,1.318210,421946,20279
1139.2,1.320090,423881,20284
1143.99,1.329006,426786,20008
1147.58,1.316078,428617,20701
1151.17,1.317127,431169,20774
1154.75,1.320553,433579,20726
1158.33,1.323297,436264,20723
1161.91,1.328918,439132,20591
1165.48,1.316284,442389,21356
1169.04,1.321727,446101,21267
1173.79,1.315122,451929,21875
1177.34,1.323291,456026,21662
1180.9,1.312753,461306,22451
1184.44,1.320378,467657,22364
1187.99,1.320260,473969,22672
1191.52,1.324492,479856,22731
1195.06,1.321942,487372,23223
1199.76,1.322590,497347,23663
1203.29,1.328977,504311,23644
1206.81,1.331163,511507,23861
1210.33,1.330396,519078,24257
1213.84,1.329371,527163,24693
1217.35,1.319216,534208,25615
1220.85,1.324482,540472,25603
1225.51,1.327645,549929,25862
1229.01,1.327235,556888,26214
1232.5,1.322178,562180,26773
1235.98,1.328404,567975,26664
1239.46,1.323127,574815,27315
1242.94,1.325306,582782,27555
1246.41,1.330101,591476,27659
1251.03,1.323924,604016,28650
1254.5,1.327851,612289,28781
1257.96,1.324481,619125,29329
1261.41,1.327871,624551,29356
1264.86,1.328097,629900,29592
1268.31,1.329321,634345,29717
1271.75,1.332513,638574,29696
1276.33,1.331403,642499,29955
1279.76,1.333134,645905,29994
1283.19,1.331831,648307,30196
1286.61,1.335425,650446,30046
1290.03,1.328415,652132,30614
1293.44,1.331644,653907,30470
1296.85,1.329741,655963,30700
1301.39,1.333724,657349,30484
1304.8,1.337453,657558,30233
1308.19,1.338516,658515,30203
1311.58,1.334684,658804,30484
1314.97,1.336119,659011,30393
1318.36,1.336776,658272,30313
1321.73,1.331725,658022,30656
1326.23,1.328378,657870,30886
1329.6,1.334106,656482,30417
1332.97,1.333719,654926,30372
1336.33,1.334155,653727,30286
1339.69,1.340158,652497,29814
1343.04,1.334635,649913,30076
1346.39,1.331333,647671,30201
1349.73,1.333303,645338,29956
1354.18,1.330493,641175,29956
1357.52,1.326669,638376,30089
1360.85,1.330860,635805,29680
1364.17,1.334405,633413,29328
1367.49,1.334025,631026,29243
1370.81,1.330460,628050,29345
1374.12,1.332638,625034,29058
1378.54,1.333295,620272,28793
1381.84,1.327916,616892,28993
1385.14,1.335234,613613,28357
1388.43,1.331966,611526,28474
1391.72,1.329952,610663,28566
1395.01,1.329567,610634,28590
1398.29,1.331648,611700,28503
1402.66,1.332522,614051,28555
1405.93,1.330181,616268,28813
1409.2,1.333356,617795,28674
1412.46,1.335599,618872,28576
1415.72,1.333353,619795,28767
1418.98,1.339206,620495,28414
1422.23,1.335740,621087,28669
1426.56,1.334882,621375,28739
1429.8,1.334673,621616,28764
1433.04,1.337226,622129,28619
1436.27,1.339851,621526,28419
1439.5,1.334926,621113,28724
1442.72,1.332996,620921,28843
1445.94,1.334457,620270,28716
1450.23,1.343427,618860,28065
1453.44,1.340003,617697,28234
1456.64,1.337766,616264,28314
1459.85,1.340280,614413,28066
1463.04,1.342721,612307,27813
1466.24,1.343736,610032,27645
1469.43,1.345558,607345,27408
1473.67,1.340228,603789,27584
1476.85,1.339858,601175,27488
1480.02,1.331155,597737,27884
1483.19,1.340399,594479,27148
1486.36,1.339687,591232,27044
1489.52,1.331804,587853,27382
1492.68,1.333351,583875,27100
1496.89,1.332545,578062,26880
1500.03,1.338433,574159,26339
1503.18,1.348412,570285,25567
1506.32,1.342000,565444,25727
1509.45,1.339188,560571,25671
1512.58,1.345867,555821,25065
1515.71,1.340805,550344,25109
1519.87,1.338323,543983,24961
1522.99,1.350283,538764,24050
1526.1,1.339847,533692,24403
1529.21,1.343502,527902,23936
1532.32,1.340033,521886,23853
1535.42,1.345666,515888,23275
1538.51,1.340408,509987,23289
1541.6,1.343090,503936,22871
1545.72,1.344962,494694,22355
1548.8,1.340899,488378,22277
1551.88,1.336171,481832,22219
1554.95,1.341768,474989,21623
1558.02,1.344377,467818,21169
1561.08,1.340649,460730,21028
1564.15,1.333966,454170,21050
1568.22,1.342510,444181,20186
1571.27,1.347995,436947,19608
1574.32,1.338089,429598,19723
1577.36,1.339638,422039,19307
1580.4,1.345668,414375,18695
1583.43,1.336320,406354,18732
1586.46,1.335465,398475,18405
1590.49,1.341172,388982,17732
1593.51,1.344508,380708,17222
1596.53,1.341607,372727,16974
1599.54,1.328125,365060,17149
1602.55,1.318482,357543,17173
1605.55,1.335430,349495,16144
1608.55,1.324670,341154,16154
1612.54,1.329868,330877,15481
1615.53,1.313810,322904,15677
1618.51,1.321801,315116,15020
1621.49,1.329717,307217,14379
1624.47,1.322250,299481,14260
1627.44,1.320073,292112,13979
1630.41,1.320537,284245,13588
1634.36,1.325304,274079,12959
1637.32,1.325246,266916,12622
1640.27,1.321604,259612,12380
1643.22,1.318241,251804,12101
1646.16,1.319044,244348,11721
1649.1,1.321125,236703,11300
1652.04,1.325642,228171,10780
1655.95,1.334915,215408,9962
1658.88,1.308160,204937,10080
1661.8,1.303135,193395,9623
1664.72,1.304592,179728,8913
1667.63,1.306322,163642,8083
1670.54,1.289524,146312,7512
1673.44,1.297699,128451,6472
1677.31,1.275821,105080,5568
1680.21,1.256701,88906,4923
1683.1,1.259197,75033,4131
1685.99,1.278125,63520,3348
1688.87,1.306187,53714,2654
1691.75,1.307866,45653,2247
1694.62,1.305010,39137,1939
1697.49,1.227361,33776,2001
1701.31,1.246015,28175,1599

File: Column 1_078144_20241121_164738.csv
Method:,Column 1,,
Host Date-Time:,21/11/24 @ 16:47:38,,
Header Version:,1,,
System Temp (C):,33.14,,
Detector Temp (C):,29.08,,
Humidity (%):,3.32,,
Lamp PD:,3805,,
Shift Vector Coefficients:,-10.5391,0.0761263,-0.000134223,,
Pixel to Wavelength Coefficients:,1775.68,-0.916766,-0.000235065,,
Serial Number:,5510004,,
Scan Config Name:,Column 1,,
Scan Config Type:,Slew,,
Section 1,,
Start wavelength (nm):,900,,
End wavelength (nm):,1700,,
Pattern Pixel Width (nm):,   7.03,,,,
Exposure (ms):,  0.635,,,,
Digital Resolution:,228,,
Num Repeats:,6,,
PGA Gain:,64,,
Total Measurement Time in sec:,  2.722,,
Wavelength (nm),Absorbance (AU),Reference Signal (unitless),Sample Signal (unitless)
901.51,1.297224,108485,5472
905.376,1.304863,121306,6012
909.237,1.310311,131909,6456
913.095,1.285313,143299,7429
916.948,1.300317,156982,7862
922.079,1.336828,179937,8285
925.923,1.316337,200504,9678
929.762,1.313254,222660,10824
933.597,1.307954,244426,12028
937.427,1.304320,263972,13099
941.254,1.326714,281845,13283
945.076,1.304596,297271,14742
950.165,1.313120,315605,15347
953.978,1.312118,328029,15988
957.786,1.306098,340470,16826
961.59,1.308787,352317,17304
965.389,1.318253,363056,17447
969.185,1.307812,373162,18369
972.976,1.314625,382632,18542
976.763,1.312005,391202,19072
981.806,1.299589,400190,20076
985.583,1.303699,406088,20180
989.355,1.297993,410162,20652
993.124,1.304481,412868,20480
996.888,1.305035,414263,20523
1000.65,1.305628,415476,20555
1004.4,1.304492,415479,20609
1009.41,1.311294,414358,20234
1013.15,1.309830,412923,20232
1016.89,1.311331,411526,20094
1020.63,1.315370,409066,19789
1024.36,1.304629,406777,20171
1028.09,1.304812,404427,20046
1031.82,1.312051,401911,19592
1036.78,1.311612,398410,19441
1040.49,1.303453,396204,19700
1044.2,1.299157,394236,19797
1047.91,1.314373,392042,19009
1051.61,1.305130,389823,19308
1055.31,1.311003,388234,18971
1059,1.304200,387599,19239
1063.92,1.315055,386688,18720
1067.61,1.320981,386598,18462
1071.29,1.315179,387377,18748
1074.96,1.306719,388536,19174
1078.63,1.317809,389855,18754
1082.3,1.318466,391215,18791
1085.96,1.319227,393215,18854
1090.84,1.314034,396270,19229
1094.49,1.308810,398760,19584
1098.14,1.311162,400987,19587
1101.79,1.312235,403477,19660
1105.43,1.313259,406116,19742
1109.06,1.314599,407701,19758
1112.7,1.324497,409859,19415
1117.53,1.311229,412494,20146
1121.15,1.317945,414909,19953
1124.77,1.315466,416559,20147
1128.38,1.320460,418532,20011
1131.99,1.312086,419956,20470
1135.6,1.308532,421946,20736
1139.2,1.320369,423881,20271
1143.99,1.315017,426786,20663
1147.58,1.325023,428617,20279
1151.17,1.325635,431169,20371
1154.75,1.317379,433579,20878
1158.33,1.319873,436264,20887
1161.91,1.311350,439132,21441
1165.48,1.313972,442389,21470
1169.04,1.314718,446101,21613
1173.79,1.314765,451929,21893
1177.34,1.306904,456026,22495
1180.9,1.315373,461306,22316
1184.44,1.318324,467657,22470
1187.99,1.316997,473969,22843
1191.52,1.317367,479856,23107
1195.06,1.316220,487372,23531
1199.76,1.325721,497347,23493
1203.29,1.321385,504311,24061
1206.81,1.322210,511507,24358
1210.33,1.315057,519078,25129
1213.84,1.324492,527163,24972
1217.35,1.331441,534208,24904
1220.85,1.327120,540472,25448
1225.51,1.321210,549929,26248
1229.01,1.328031,556888,26166
1232.5,1.325745,562180,26554
1235.98,1.320016,567975,27184
1239.46,1.324321,574815,27240
1242.94,1.324440,582782,27610
1246.41,1.321734,591476,28197
1251.03,1.324212,604016,28631
1254.5,1.327941,612289,28775
1257.96,1.328393,619125,29066
1261.41,1.322066,624551,29751
1264.86,1.329582,629900,29491
1268.31,1.328532,634345,29771
1271.75,1.327410,638574,30047
1276.33,1.329912,642499,30058
1279.76,1.326995,645905,30421
1283.19,1.328921,648307,30399
1286.61,1.330281,650446,30404
1290.03,1.326688,652132,30736
1293.44,1.326373,653907,30842
1296.85,1.338212,655963,30107
1301.39,1.327922,657349,30894
1304.8,1.332426,657558,30585
1308.19,1.329818,658515,30814
1311.58,1.331180,658804,30731
1314.97,1.330963,659011,30756
1318.36,1.326792,658272,31018
1321.73,1.328619,658022,30876
1326.23,1.334424,657870,30459
1329.6,1.328785,656482,30792
1332.97,1.324662,654926,31012
1336.33,1.334183,653727,30284
1339.69,1.333623,652497,30266
1343.04,1.329682,649913,30421
1346.39,1.327453,647671,30472
1349.73,1.327443,645338,30363
1354.18,1.329494,641175,30025
1357.52,1.326972,638376,30068
1360.85,1.327972,635805,29878
1364.17,1.324479,633413,30006
1367.49,1.326195,631026,29775
1370.81,1.331690,628050,29262
1374.12,1.325229,625034,29558
1378.54,1.323866,620272,29425
1381.84,1.329973,616892,28856
1385.14,1.327990,613613,28834
1388.43,1.325773,611526,28883
1391.72,1.328041,610663,28692
1395.01,1.323069,610634,29021
1398.29,1.328520,611700,28709
1402.66,1.328902,614051,28794
1405.93,1.330603,616268,28785
1409.2,1.324006,617795,29298
1412.46,1.332933,618872,28752
1415.72,1.329536,619795,29021
1418.98,1.331645,620495,28913
1422.23,1.331984,621087,28918
1426.56,1.335336,621375,28709
1429.8,1.333301,621616,28855
1433.04,1.331632,622129,28990
1436.27,1.340569,621526,28372
1439.5,1.332032,621113,28916
1442.72,1.336716,620921,28597
1445.94,1.330977,620270,28947
1450.23,1.330154,618860,28936
1453.44,1.337182,617697,28418
1456.64,1.333629,616264,28585
1459.85,1.332961,614413,28543
1463.04,1.333666,612307,28399
1466.24,1.333397,610032,28311
1469.43,1.328728,607345,28491
1473.67,1.334876,603789,27926
1476.85,1.332572,601175,27953
1480.02,1.328965,597737,28025
1483.19,1.335325,594479,27467
1486.36,1.335373,591232,27314
1489.52,1.334684,587853,27201
1492.68,1.341226,583875,26613
1496.89,1.341144,578062,26353
1500.03,1.331141,574159,26785
1503.18,1.340735,570285,26023
1506.32,1.337483,565444,25996
1509.45,1.338681,560571,25701
1512.58,1.337833,555821,25533
1515.71,1.336211,550344,25376
1519.87,1.331813,543983,25338
1522.99,1.334224,538764,24956
1526.1,1.336056,533692,24617
1529.21,1.338415,527902,24218
1532.32,1.333778,521886,24199
1535.42,1.337020,515888,23743
1538.51,1.340259,509987,23297
1541.6,1.340704,503936,22997
1545.72,1.334312,494694,22910
1548.8,1.333822,488378,22643
1551.88,1.336797,481832,22187
1554.95,1.330624,474989,22185
1558.02,1.332578,467818,21752
1561.08,1.337275,460730,21192
1564.15,1.334111,454170,21043
1568.22,1.336209,444181,20481
1571.27,1.342843,436947,19842
1574.32,1.327260,429598,20221
1577.36,1.333207,422039,19595
1580.4,1.325448,414375,19586
1583.43,1.331479,406354,18942
1586.46,1.333981,398475,18468
1590.49,1.323604,388982,18464
1593.51,1.332349,380708,17711
1596.53,1.329421,372727,17457
1599.54,1.322815,365060,17360
1602.55,1.323237,357543,16986
1605.55,1.318287,349495,16794
1608.55,1.324832,341154,16148
1612.54,1.323380,330877,15714
1615.53,1.319864,322904,15460
1618.51,1.322321,315116,15002
1621.49,1.314084,307217,14906
1624.47,1.311927,299481,14603
1627.44,1.307489,292112,14390
1630.41,1.323070,284245,13509
1634.36,1.319082,274079,13146
1637.32,1.311664,266916,13023
1640.27,1.304881,259612,12866
1643.22,1.315843,251804,12168
1646.16,1.316679,244348,11785
1649.1,1.311396,236703,11556
1652.04,1.300024,228171,11435
1655.95,1.306810,215408,10628
1658.88,1.282115,204937,10703
1661.8,1.289758,193395,9924
1664.72,1.297631,179728,9057
1667.63,1.279144,163642,8605
1670.54,1.284524,146312,7599
1673.44,1.289654,128451,6593
1677.31,1.273177,105080,5602
1680.21,1.259445,88906,4892
1683.1,1.256263,75033,4159
1685.99,1.250364,63520,3569
1688.87,1.246073,53714,3048
1691.75,1.266421,45653,2472
1694.62,1.258939,39137,2156
1697.49,1.234583,33776,1968
1701.31,1.191945,28175,1811

File: Column 1_078145_20241121_164740.csv
Method:,Column 1,,
Host Date-Time:,21/11/24 @ 16:47:40,,
Header Version:,1,,
System Temp (C):,33.13,,
Detector Temp (C):,29.12,,
Humidity (%):,3.27,,
Lamp PD:,3805,,
Shift Vector Coefficients:,-10.5391,0.0761263,-0.000134223,,
Pixel to Wavelength Coefficients:,1775.68,-0.916766,-0.000235065,,
Serial Number:,5510004,,
Scan Config Name:,Column 1,,
Scan Config Type:,Slew,,
Section 1,,
Start wavelength (nm):,900,,
End wavelength (nm):,1700,,
Pattern Pixel Width (nm):,   7.03,,,,
Exposure (ms):,  0.635,,,,
Digital Resolution:,228,,
Num Repeats:,6,,
PGA Gain:,64,,
Total Measurement Time in sec:,  2.736,,
Wavelength (nm),Absorbance (AU),Reference Signal (unitless),Sample Signal (unitless)
901.51,1.330276,108485,5071
905.376,1.335694,121306,5600
909.237,1.294978,131909,6688
913.095,1.319476,143299,6867
916.948,1.331695,156982,7314
922.079,1.327647,179937,8462
925.923,1.313876,200504,9733
929.762,1.316759,222660,10737
933.597,1.325340,244426,11556
937.427,1.321049,263972,12604
941.254,1.321482,281845,13444
945.076,1.309872,297271,14564
950.165,1.307330,315605,15553
953.978,1.313260,328029,15946
957.786,1.320211,340470,16288
961.59,1.313760,352317,17107
965.389,1.313721,363056,17630
969.185,1.312160,373162,18186
972.976,1.308346,382632,18812
976.763,1.310709,391202,19129
981.806,1.313592,400190,19439
985.583,1.306441,406088,20053
989.355,1.312273,410162,19984
993.124,1.312313,412868,20114
996.888,1.309737,414263,20302
1000.65,1.311928,415476,20259
1004.4,1.304155,415479,20625
1009.41,1.313920,414358,20112
1013.15,1.310131,412923,20218
1016.89,1.313910,411526,19975
1020.63,1.312613,409066,19915
1024.36,1.314956,406777,19697
1028.09,1.311009,404427,19762
1031.82,1.308189,401911,19767
1036.78,1.303248,398410,19819
1040.49,1.316635,396204,19111
1044.2,1.309255,394236,19342
1047.91,1.325340,392042,18535
1051.61,1.316109,389823,18826
1055.31,1.308675,388234,19073
1059,1.311003,387599,18940
1063.92,1.314684,386688,18736
1067.61,1.315767,386598,18685
1071.29,1.308330,387377,19046
1074.96,1.333580,388536,18024
1078.63,1.316399,389855,18815
1082.3,1.313182,391215,19021
1085.96,1.315785,393215,19004
1090.84,1.316640,396270,19114
1094.49,1.318225,398760,19164
1098.14,1.325613,400987,18946
1101.79,1.321208,403477,19258
1105.43,1.321610,406116,19366
1109.06,1.318684,407701,19573
1112.7,1.325639,409859,19364
1117.53,1.316848,412494,19887
1121.15,1.318119,414909,19945
1124.77,1.319407,416559,19965
1128.38,1.317842,418532,20132
1131.99,1.314255,419956,20368
1135.6,1.322688,421946,20071
1139.2,1.324913,423881,20060
1143.99,1.330746,426786,19928
1147.58,1.314466,428617,20778
1151.17,1.317839,431169,20740
1154.75,1.309893,433579,21241
1158.33,1.319084,436264,20925
1161.91,1.319611,439132,21037
1165.48,1.315005,442389,21419
1169.04,1.317986,446101,21451
1173.79,1.323947,451929,21435
1177.34,1.315561,456026,22051
1180.9,1.323604,461306,21897
1184.44,1.327801,467657,21985
1187.99,1.318463,473969,22766
1191.52,1.315997,479856,23180
1195.06,1.320095,487372,23322
1199.76,1.325074,497347,23528
1203.29,1.325903,504311,23812
1206.81,1.329909,511507,23930
1210.33,1.333468,519078,24086
1213.84,1.323467,527163,25031
1217.35,1.323150,534208,25384
1220.85,1.330735,540472,25237
1225.51,1.326303,549929,25942
1229.01,1.326953,556888,26231
1232.5,1.320818,562180,26857
1235.98,1.328371,567975,26666
1239.46,1.325582,574815,27161
1242.94,1.323984,582782,27639
1246.41,1.329646,591476,27688
1251.03,1.321385,604016,28818
1254.5,1.326269,612289,28886
1257.96,1.332672,619125,28781
1261.41,1.330304,624551,29192
1264.86,1.331501,629900,29361
1268.31,1.327236,634345,29860
1271.75,1.327193,638574,30062
1276.33,1.335131,642499,29699
1279.76,1.329415,645905,30252
1283.19,1.334645,648307,30001
1286.61,1.334082,650446,30139
1290.03,1.332034,652132,30360
1293.44,1.332400,653907,30417
1296.85,1.331200,655963,30597
1301.39,1.332643,657349,30560
1304.8,1.325132,657558,31103
1308.19,1.334195,658515,30505
1311.58,1.338174,658804,30240
1314.97,1.332278,659011,30663
1318.36,1.329657,658272,30814
1321.73,1.334211,658022,30481
1326.23,1.337242,657870,30262
1329.6,1.330566,656482,30666
1332.97,1.333819,654926,30365
1336.33,1.332866,653727,30376
1339.69,1.334831,652497,30182
1343.04,1.331398,649913,30301
1346.39,1.336425,647671,29849
1349.73,1.333057,645338,29973
1354.18,1.334206,641175,29701
1357.52,1.330205,638376,29845
1360.85,1.327130,635805,29936
1364.17,1.328580,633413,29724
1367.49,1.327379,631026,29694
1370.81,1.328776,628050,29459
1374.12,1.333386,625034,29008
1378.54,1.326947,620272,29217
1381.84,1.334238,616892,28574
1385.14,1.325631,613613,28991
1388.43,1.323927,611526,29006
1391.72,1.328859,610663,28638
1395.01,1.328550,610634,28657
1398.29,1.328218,611700,28729
1402.66,1.332857,614051,28533
1405.93,1.334316,616268,28540
1409.2,1.329346,617795,28940
1412.46,1.330778,618872,28895
1415.72,1.334003,619795,28724
1418.98,1.330670,620495,28978
1422.23,1.333172,621087,28839
1426.56,1.326931,621375,29270
1429.8,1.337794,621616,28558
1433.04,1.336165,622129,28689
1436.27,1.335487,621526,28706
1439.5,1.332153,621113,28908
1442.72,1.332514,620921,28875
1445.94,1.332330,620270,28857
1450.23,1.338305,618860,28398
1453.44,1.340095,617697,28228
1456.64,1.333386,616264,28601
1459.85,1.339940,614413,28088
1463.04,1.338263,612307,28100
1466.24,1.341230,610032,27805
1469.43,1.335874,607345,28026
1473.67,1.337153,603789,27780
1476.85,1.332572,601175,27953
1480.02,1.336704,597737,27530
1483.19,1.340079,594479,27168
1486.36,1.340619,591232,26986
1489.52,1.335355,587853,27159
1492.68,1.342484,583875,26536
1496.89,1.337174,578062,26595
1500.03,1.340433,574159,26218
1503.18,1.343413,570285,25863
1506.32,1.337116,565444,26018
1509.45,1.340408,560571,25599
1512.58,1.339196,555821,25453
1515.71,1.340027,550344,25154
1519.87,1.336275,543983,25079
1522.99,1.346633,538764,24253
1526.1,1.337310,533692,24546
1529.21,1.338164,527902,24232
1532.32,1.342992,521886,23691
1535.42,1.332742,515888,23978
1538.51,1.342483,509987,23178
1541.6,1.341290,503936,22966
1545.72,1.344244,494694,22392
1548.8,1.335744,488378,22543
1551.88,1.335351,481832,22261
1554.95,1.337789,474989,21822
1558.02,1.338063,467818,21479
1561.08,1.338054,460730,21154
1564.15,1.334070,454170,21045
1568.22,1.340963,444181,20258
1571.27,1.332933,436947,20300
1574.32,1.339192,429598,19673
1577.36,1.336545,422039,19445
1580.4,1.341415,414375,18879
1583.43,1.337528,406354,18680
1586.46,1.343707,398475,18059
1590.49,1.337975,388982,17863
1593.51,1.339868,380708,17407
1596.53,1.336267,372727,17184
1599.54,1.331303,365060,17024
1602.55,1.326393,357543,16863
1605.55,1.323490,349495,16594
1608.55,1.330054,341154,15955
1612.54,1.335287,330877,15289
1615.53,1.331364,322904,15056
1618.51,1.329561,315116,14754
1621.49,1.322320,307217,14626
1624.47,1.319881,299481,14338
1627.44,1.319266,292112,14005
1630.41,1.323070,284245,13509
1634.36,1.322398,274079,13046
1637.32,1.319708,266916,12784
1640.27,1.321885,259612,12372
1643.22,1.318349,251804,12098
1646.16,1.318452,244348,11737
1649.1,1.315588,236703,11445
1652.04,1.321233,228171,10890
1655.95,1.318909,215408,10336
1658.88,1.319023,204937,9831
1661.8,1.299047,193395,9714
1664.72,1.302114,179728,8964
1667.63,1.289564,163642,8401
1670.54,1.261702,146312,8009
1673.44,1.264820,128451,6981
1677.31,1.263820,105080,5724
1680.21,1.278592,88906,4681
1683.1,1.293530,75033,3817
1685.99,1.263082,63520,3466
1688.87,1.222771,53714,3216
1691.75,1.227623,45653,2703
1694.62,1.228412,39137,2313
1697.49,1.223687,33776,2018
1701.31,1.274642,28175,1497