Folder: textile_sorting_NIRSCAN_/ML/samples/unknown (part 57)

File: Column 1_078383_20241121_165959.csv
Method:,Column 1,,
Host Date-Time:,21/11/24 @ 16:59:59,,
Header Version:,1,,
System Temp (C):,34.6,,
Detector Temp (C):,34.06,,
Humidity (%):,2,,
Lamp PD:,3803,,
Shift Vector Coefficients:,-10.5391,0.0761263,-0.000134223,,
Pixel to Wavelength Coefficients:,1775.68,-0.916766,-0.000235065,,
Serial Number:,5510004,,
Scan Config Name:,Column 1,,
Scan Config Type:,Slew,,
Section 1,,
Start wavelength (nm):,900,,
End wavelength (nm):,1700,,
Pattern Pixel Width (nm):,   7.03,,,,
Exposure (ms):,  0.635,,,,
Digital Resolution:,228,,
Num Repeats:,6,,
PGA Gain:,64,,
Total Measurement Time in sec:,  2.729,,
Wavelength (nm),Absorbance (AU),Reference Signal (unitless),Sample Signal (unitless)
901.51,1.323057,108485,5156
905.376,1.322631,121306,5771
909.237,1.321417,131909,6293
913.095,1.328293,143299,6729
916.948,1.325680,156982,7416
922.079,1.322241,179937,8568
925.923,1.335840,200504,9253
929.762,1.311413,222660,10870
933.597,1.331014,244426,11406
937.427,1.324231,263972,12512
941.254,1.316887,281845,13587
945.076,1.316664,297271,14338
950.165,1.319219,315605,15133
953.978,1.317915,328029,15776
957.786,1.311631,340470,16613
961.59,1.313303,352317,17125
965.389,1.315474,363056,17559
969.185,1.306160,373162,18439
972.976,1.310893,382632,18702
976.763,1.308715,391202,19217
981.806,1.308992,400190,19646
985.583,1.308264,406088,19969
989.355,1.299953,410162,20559
993.124,1.309322,412868,20253
996.888,1.308200,414263,20374
1000.65,1.313905,415476,20167
1004.4,1.317801,415479,19987
1009.41,1.313834,414358,20116
1013.15,1.316711,412923,19914
1016.89,1.311482,411526,20087
1020.63,1.316094,409066,19756
1024.36,1.304156,406777,20193
1028.09,1.315227,404427,19571
1031.82,1.312073,401911,19591
1036.78,1.311031,398410,19467
1040.49,1.307261,396204,19528
1044.2,1.306212,394236,19478
1047.91,1.311731,392042,19125
1051.61,1.310722,389823,19061
1055.31,1.309860,388234,19021
1059,1.314710,387599,18779
1063.92,1.311175,386688,18888
1067.61,1.303574,386598,19217
1071.29,1.309106,387377,19012
1074.96,1.305068,388536,19247
1078.63,1.307941,389855,19185
1082.3,1.310451,391215,19141
1085.96,1.320542,393215,18797
1090.84,1.320107,396270,18962
1094.49,1.320042,398760,19084
1098.14,1.315418,400987,19396
1101.79,1.329426,403477,18897
1105.43,1.324513,406116,19237
1109.06,1.318884,407701,19564
1112.7,1.318014,409859,19707
1117.53,1.323405,412494,19589
1121.15,1.314519,414909,20111
1124.77,1.318061,416559,20027
1128.38,1.316119,418532,20212
1131.99,1.318067,419956,20190
1135.6,1.314882,421946,20435
1139.2,1.319876,423881,20294
1143.99,1.320942,426786,20383
1147.58,1.323697,428617,20341
1151.17,1.326168,431169,20346
1154.75,1.329465,433579,20305
1158.33,1.316786,436264,21036
1161.91,1.329065,439132,20584
1165.48,1.330800,442389,20654
1169.04,1.327524,446101,20985
1173.79,1.318250,451929,21718
1177.34,1.318268,456026,21914
1180.9,1.321487,461306,22004
1184.44,1.317880,467657,22493
1187.99,1.320394,473969,22665
1191.52,1.322491,479856,22836
1195.06,1.320822,487372,23283
1199.76,1.317989,497347,23915
1203.29,1.321222,504311,24070
1206.81,1.316330,511507,24690
1210.33,1.327611,519078,24413
1213.84,1.326217,527163,24873
1217.35,1.353347,534208,23679
1220.85,1.326437,540472,25488
1225.51,1.320946,549929,26264
1229.01,1.329177,556888,26097
1232.5,1.327351,562180,26456
1235.98,1.322692,567975,27017
1239.46,1.320669,574815,27470
1242.94,1.319980,582782,27895
1246.41,1.318053,591476,28437
1251.03,1.323772,604016,28660
1254.5,1.323990,612289,29038
1257.96,1.326753,619125,29176
1261.41,1.324628,624551,29576
1264.86,1.332389,629900,29301
1268.31,1.325277,634345,29995
1271.75,1.337307,638574,29370
1276.33,1.329869,642499,30061
1279.76,1.325983,645905,30492
1283.19,1.331961,648307,30187
1286.61,1.332615,650446,30241
1290.03,1.329339,652132,30549
1293.44,1.326317,653907,30846
1296.85,1.335336,655963,30307
1301.39,1.331125,657349,30667
1304.8,1.332085,657558,30609
1308.19,1.329437,658515,30841
1311.58,1.331816,658804,30686
1314.97,1.327881,659011,30975
1318.36,1.328827,658272,30873
1321.73,1.336339,658022,30332
1326.23,1.324877,657870,31136
1329.6,1.337216,656482,30200
1332.97,1.338738,654926,30023
1336.33,1.331823,653727,30449
1339.69,1.330806,652497,30463
1343.04,1.330768,649913,30345
1346.39,1.332759,647671,30102
1349.73,1.328144,645338,30314
1354.18,1.331770,641175,29868
1357.52,1.326755,638376,30083
1360.85,1.328685,635805,29829
1364.17,1.331262,633413,29541
1367.49,1.333788,631026,29259
1370.81,1.334579,628050,29068
1374.12,1.326406,625034,29478
1378.54,1.327080,620272,29208
1381.84,1.329657,616892,28877
1385.14,1.325167,613613,29022
1388.43,1.325788,611526,28882
1391.72,1.327224,610663,28746
1395.01,1.324132,610634,28950
1398.29,1.330704,611700,28565
1402.66,1.332021,614051,28588
1405.93,1.329759,616268,28841
1409.2,1.330277,617795,28878
1412.46,1.325653,618872,29238
1415.72,1.329012,619795,29056
1418.98,1.338107,620495,28486
1422.23,1.336149,621087,28642
1426.56,1.333811,621375,28810
1429.8,1.338738,621616,28496
1433.04,1.337925,622129,28573
1436.27,1.334006,621526,28804
1439.5,1.334457,621113,28755
1442.72,1.334112,620921,28769
1445.94,1.333234,620270,28797
1450.23,1.333665,618860,28703
1453.44,1.335139,617697,28552
1456.64,1.336280,616264,28411
1459.85,1.333555,614413,28504
1463.04,1.333574,612307,28405
1466.24,1.333474,610032,28306
1469.43,1.332356,607345,28254
1473.67,1.333526,603789,28013
1476.85,1.337431,601175,27642
1480.02,1.337525,597737,27478
1483.19,1.337974,594479,27300
1486.36,1.338949,591232,27090
1489.52,1.337937,587853,26998
1492.68,1.332678,583875,27142
1496.89,1.334894,578062,26735
1500.03,1.337132,574159,26418
1503.18,1.345348,570285,25748
1506.32,1.339073,565444,25901
1509.45,1.332606,560571,26063
1512.58,1.336390,555821,25618
1515.71,1.342416,550344,25016
1519.87,1.341572,543983,24775
1522.99,1.336912,538764,24802
1526.1,1.335668,533692,24639
1529.21,1.342396,527902,23997
1532.32,1.340069,521886,23851
1535.42,1.332326,515888,24001
1538.51,1.333893,509987,23641
1541.6,1.336158,503936,23239
1545.72,1.337164,494694,22760
1548.8,1.339537,488378,22347
1551.88,1.337620,481832,22145
1554.95,1.338028,474989,21810
1558.02,1.346928,467818,21045
1561.08,1.336006,460730,21254
1564.15,1.335952,454170,20954
1568.22,1.336145,444181,20484
1571.27,1.338943,436947,20021
1574.32,1.339192,429598,19673
1577.36,1.329368,422039,19769
1580.4,1.325071,414375,19603
1583.43,1.334077,406354,18829
1586.46,1.329373,398475,18665
1590.49,1.334850,388982,17992
1593.51,1.338573,380708,17459
1596.53,1.333797,372727,17282
1599.54,1.322865,365060,17358
1602.55,1.318204,357543,17184
1605.55,1.325089,349495,16533
1608.55,1.321243,341154,16282
1612.54,1.321532,330877,15781
1615.53,1.325348,322904,15266
1618.51,1.333167,315116,14632
1621.49,1.326227,307217,14495
1624.47,1.323348,299481,14224
1627.44,1.319701,292112,13991
1630.41,1.319803,284245,13611
1634.36,1.314318,274079,13291
1637.32,1.310564,266916,13056
1640.27,1.314748,259612,12577
1643.22,1.329070,251804,11803
1646.16,1.318785,244348,11728
1649.1,1.327007,236703,11148
1652.04,1.312507,228171,11111
1655.95,1.304447,215408,10686
1658.88,1.286560,204937,10594
1661.8,1.296417,193395,9773
1664.72,1.288099,179728,9258
1667.63,1.264749,163642,8895
1670.54,1.243541,146312,8351
1673.44,1.224849,128451,7654
1677.31,1.200269,105080,6626
1680.21,1.222775,88906,5323
1683.1,1.171789,75033,5052
1685.99,1.221302,63520,3816
1688.87,1.187013,53714,3492
1691.75,1.211691,45653,2804
1694.62,1.223186,39137,2341
1697.49,1.173924,33776,2263
1701.31,1.156501,28175,1965

File: Column 1_078389_20241121_170017.csv
Method:,Column 1,,
Host Date-Time:,21/11/24 @ 17:0:17,,
Header Version:,1,,
System Temp (C):,34.4,,
Detector Temp (C):,34.14,,
Humidity (%):,2.4,,
Lamp PD:,3802,,
Shift Vector Coefficients:,-10.5391,0.0761263,-0.000134223,,
Pixel to Wavelength Coefficients:,1775.68,-0.916766,-0.000235065,,
Serial Number:,5510004,,
Scan Config Name:,Column 1,,
Scan Config Type:,Slew,,
Section 1,,
Start wavelength (nm):,900,,
End wavelength (nm):,1700,,
Pattern Pixel Width (nm):,   7.03,,,,
Exposure (ms):,  0.635,,,,
Digital Resolution:,228,,
Num Repeats:,6,,
PGA Gain:,64,,
Total Measurement Time in sec:,  2.729,,
Wavelength (nm),Absorbance (AU),Reference Signal (unitless),Sample Signal (unitless)
901.51,1.341731,108485,4939
905.376,1.269901,121306,6516
909.237,1.331823,131909,6144
913.095,1.336239,143299,6607
916.948,1.320847,156982,7499
922.079,1.317904,179937,8654
925.923,1.336968,200504,9229
929.762,1.331361,222660,10382
933.597,1.340289,244426,11165
937.427,1.321532,263972,12590
941.254,1.314750,281845,13654
945.076,1.327863,297271,13973
950.165,1.310272,315605,15448
953.978,1.305032,328029,16251
957.786,1.310612,340470,16652
961.59,1.309993,352317,17256
965.389,1.302943,363056,18073
969.185,1.307410,373162,18386
972.976,1.314040,382632,18567
976.763,1.319817,391202,18732
981.806,1.312722,400190,19478
985.583,1.307568,406088,20001
989.355,1.317740,410162,19734
993.124,1.309365,412868,20251
996.888,1.314210,414263,20094
1000.65,1.310644,415476,20319
1004.4,1.298569,415479,20892
1009.41,1.308897,414358,20346
1013.15,1.308566,412923,20291
1016.89,1.308917,411526,20206
1020.63,1.307626,409066,20145
1024.36,1.312034,406777,19830
1028.09,1.317742,404427,19458
1031.82,1.330342,401911,18784
1036.78,1.301477,398410,19900
1040.49,1.314753,396204,19194
1044.2,1.321344,394236,18811
1047.91,1.305732,392042,19391
1051.61,1.313809,389823,18926
1055.31,1.315930,388234,18757
1059,1.311186,387599,18932
1063.92,1.309545,386688,18959
1067.61,1.320887,386598,18466
1071.29,1.321244,387377,18488
1074.96,1.317892,388536,18687
1078.63,1.318829,389855,18710
1082.3,1.315081,391215,18938
1085.96,1.314188,393215,19074
1090.84,1.309340,396270,19438
1094.49,1.314031,398760,19350
1098.14,1.323806,400987,19025
1101.79,1.316899,403477,19450
1105.43,1.317459,406116,19552
1109.06,1.324874,407701,19296
1112.7,1.328700,409859,19228
1117.53,1.314127,412494,20012
1121.15,1.316966,414909,19998
1124.77,1.313852,416559,20222
1128.38,1.322483,418532,19918
1131.99,1.322521,419956,19984
1135.6,1.321866,421946,20109
1139.2,1.325650,423881,20026
1143.99,1.330420,426786,19943
1147.58,1.315009,428617,20752
1151.17,1.318405,431169,20713
1154.75,1.326035,433579,20466
1158.33,1.321832,436264,20793
1161.91,1.318251,439132,21103
1165.48,1.318221,442389,21261
1169.04,1.320626,446101,21321
1173.79,1.319151,451929,21673
1177.34,1.322050,456026,21724
1180.9,1.318478,461306,22157
1184.44,1.319369,467657,22416
1187.99,1.325793,473969,22385
1191.52,1.323157,479856,22801
1195.06,1.314985,487372,23598
1199.76,1.325056,497347,23529
1203.29,1.320717,504311,24098
1206.81,1.316859,511507,24660
1210.33,1.327256,519078,24433
1213.84,1.322150,527163,25107
1217.35,1.320285,534208,25552
1220.85,1.324482,540472,25603
1225.51,1.320466,549929,26293
1229.01,1.328412,556888,26143
1232.5,1.328403,562180,26392
1235.98,1.326827,567975,26761
1239.46,1.324162,574815,27250
1242.94,1.323513,582782,27669
1246.41,1.326162,591476,27911
1251.03,1.325914,604016,28519
1254.5,1.332584,612289,28469
1257.96,1.327170,619125,29148
1261.41,1.331332,624551,29123
1264.86,1.329508,629900,29496
1268.31,1.329818,634345,29683
1271.75,1.326659,638574,30099
1276.33,1.331055,642499,29979
1279.76,1.323540,645905,30664
1283.19,1.330524,648307,30287
1286.61,1.332658,650446,30238
1290.03,1.329609,652132,30530
1293.44,1.338236,653907,30011
1296.85,1.333335,655963,30447
1301.39,1.328442,657349,30857
1304.8,1.328355,657558,30873
1308.19,1.337611,658515,30266
1311.58,1.334855,658804,30472
1314.97,1.335705,659011,30422
1318.36,1.332712,658272,30598
1321.73,1.333812,658022,30509
1326.23,1.328716,657870,30862
1329.6,1.335823,656482,30297
1332.97,1.339129,654926,29996
1336.33,1.332094,653727,30430
1339.69,1.332320,652497,30357
1343.04,1.339208,649913,29761
1346.39,1.331808,647671,30168
1349.73,1.333564,645338,29938
1354.18,1.330696,641175,29942
1357.52,1.332393,638376,29695
1360.85,1.329618,635805,29765
1364.17,1.334627,633413,29313
1367.49,1.326925,631026,29725
1370.81,1.331334,628050,29286
1374.12,1.329184,625034,29290
1378.54,1.329720,620272,29031
1381.84,1.330847,616892,28798
1385.14,1.333553,613613,28467
1388.43,1.333785,611526,28355
1391.72,1.327632,610663,28719
1395.01,1.327506,610634,28726
1398.29,1.329945,611700,28615
1402.66,1.327622,614051,28879
1405.93,1.331827,616268,28704
1409.2,1.331030,617795,28828
1412.46,1.333356,618872,28724
1415.72,1.330045,619795,28987
1418.98,1.333361,620495,28799
1422.23,1.335498,621087,28685
1426.56,1.341705,621375,28291
1429.8,1.336398,621616,28650
1433.04,1.334443,622129,28803
1436.27,1.334731,621526,28756
1439.5,1.333612,621113,28811
1442.72,1.341050,620921,28313
1445.94,1.337401,620270,28522
1450.23,1.331974,618860,28815
1453.44,1.340372,617697,28210
1456.64,1.333021,616264,28625
1459.85,1.333280,614413,28522
1463.04,1.337213,612307,28168
1466.24,1.335874,610032,28150
1469.43,1.339531,607345,27791
1473.67,1.339536,603789,27628
1476.85,1.344496,601175,27196
1480.02,1.336641,597737,27534
1483.19,1.341472,594479,27081
1486.36,1.335866,591232,27283
1489.52,1.335195,587853,27169
1492.68,1.335439,583875,26970
1496.89,1.345084,578062,26115
1500.03,1.336820,574159,26437
1503.18,1.338404,570285,26163
1506.32,1.339828,565444,25856
1509.45,1.337735,560571,25757
1512.58,1.339982,555821,25407
1515.71,1.341636,550344,25061
1519.87,1.334823,543983,25163
1522.99,1.339934,538764,24630
1526.1,1.341684,533692,24300
1529.21,1.343357,527902,23944
1532.32,1.337545,521886,23990
1535.42,1.337459,515888,23719
1538.51,1.337805,509987,23429
1541.6,1.337374,503936,23174
1545.72,1.343565,494694,22427
1548.8,1.351616,488378,21734
1551.88,1.334085,481832,22326
1554.95,1.337431,474989,21840
1558.02,1.334679,467818,21647
1561.08,1.339123,460730,21102
1564.15,1.340284,454170,20746
1568.22,1.343199,444181,20154
1571.27,1.331736,436947,20356
1574.32,1.347302,429598,19309
1577.36,1.328885,422039,19791
1580.4,1.333188,414375,19240
1583.43,1.336668,406354,18717
1586.46,1.334240,398475,18457
1590.49,1.337149,388982,17897
1593.51,1.332643,380708,17699
1596.53,1.340763,372727,17007
1599.54,1.333630,365060,16933
1602.55,1.330196,357543,16716
1605.55,1.331173,349495,16303
1608.55,1.317815,341154,16411
1612.54,1.335458,330877,15283
1615.53,1.340311,322904,14749
1618.51,1.341165,315116,14365
1621.49,1.330442,307217,14355
1624.47,1.322189,299481,14262
1627.44,1.324006,292112,13853
1630.41,1.320346,284245,13594
1634.36,1.323732,274079,13006
1637.32,1.324765,266916,12636
1640.27,1.325728,259612,12263
1643.22,1.310487,251804,12319
1646.16,1.327386,244348,11498
1649.1,1.316120,236703,11431
1652.04,1.301584,228171,11394
1655.95,1.323811,215408,10220
1658.88,1.311577,204937,10001
1661.8,1.281007,193395,10126
1664.72,1.290120,179728,9215
1667.63,1.270796,163642,8772
1670.54,1.260889,146312,8024
1673.44,1.235882,128451,7462
1677.31,1.198046,105080,6660
1680.21,1.206206,88906,5530
1683.1,1.177152,75033,4990
1685.99,1.250242,63520,3570
1688.87,1.187138,53714,3491
1691.75,1.207990,45653,2828
1694.62,1.234082,39137,2283
1697.49,1.217915,33776,2045
1701.31,1.386155,28175,1158

File: Column 1_078391_20241121_170023.csv
Method:,Column 1,,
Host Date-Time:,21/11/24 @ 17:0:23,,
Header Version:,1,,
System Temp (C):,34.37,,
Detector Temp (C):,34.15,,
Humidity (%):,2.55,,
Lamp PD:,3802,,
Shift Vector Coefficients:,-10.5391,0.0761263,-0.000134223,,
Pixel to Wavelength Coefficients:,1775.68,-0.916766,-0.000235065,,
Serial Number:,5510004,,
Scan Config Name:,Column 1,,
Scan Config Type:,Slew,,
Section 1,,
Start wavelength (nm):,900,,
End wavelength (nm):,1700,,
Pattern Pixel Width (nm):,   7.03,,,,
Exposure (ms):,  0.635,,,,
Digital Resolution:,228,,
Num Repeats:,6,,
PGA Gain:,64,,
Total Measurement Time in sec:,  2.730,,
Wavelength (nm),Absorbance (AU),Reference Signal (unitless),Sample Signal (unitless)
901.51,1.319116,108485,5203
905.376,1.337326,121306,5579
909.237,1.283444,131909,6868
913.095,1.313509,143299,6962
916.948,1.303199,156982,7810
922.079,1.332966,179937,8359
925.923,1.319400,200504,9610
929.762,1.323033,222660,10583
933.597,1.332654,244426,11363
937.427,1.326703,263972,12441
941.254,1.324724,281845,13344
945.076,1.308651,297271,14605
950.165,1.329411,315605,14782
953.978,1.316816,328029,15816
957.786,1.322671,340470,16196
961.59,1.317969,352317,16942
965.389,1.310140,363056,17776
969.185,1.300707,373162,18672
972.976,1.308116,382632,18822
976.763,1.319516,391202,18745
981.806,1.314487,400190,19399
985.583,1.314705,406088,19675
989.355,1.318577,410162,19696
993.124,1.311256,412868,20163
996.888,1.308626,414263,20354
1000.65,1.304447,415476,20611
1004.4,1.297407,415479,20948
1009.41,1.309666,414358,20310
1013.15,1.305898,412923,20416
1016.89,1.306046,411526,20340
1020.63,1.313989,409066,19852
1024.36,1.311552,406777,19852
1028.09,1.304942,404427,20040
1031.82,1.314987,401911,19460
1036.78,1.316035,398410,19244
1040.49,1.307862,396204,19501
1044.2,1.308918,394236,19357
1047.91,1.310801,392042,19166
1051.61,1.310175,389823,19085
1055.31,1.311966,388234,18929
1059,1.310109,387599,18979
1063.92,1.322850,386688,18387
1067.61,1.316604,386598,18649
1071.29,1.317385,387377,18653
1074.96,1.308148,388536,19111
1078.63,1.311396,389855,19033
1082.3,1.315288,391215,18929
1085.96,1.311012,393215,19214
1090.84,1.313290,396270,19262
1094.49,1.312172,398760,19433
1098.14,1.318226,400987,19271
1101.79,1.321636,403477,19239
1105.43,1.322081,406116,19345
1109.06,1.315633,407701,19711
1112.7,1.315093,409859,19840
1117.53,1.311207,412494,20147
1121.15,1.308919,414909,20372
1124.77,1.314089,416559,20211
1128.38,1.316227,418532,20207
1131.99,1.314831,419956,20341
1135.6,1.319497,421946,20219
1139.2,1.314326,423881,20555
1143.99,1.323249,426786,20275
1147.58,1.317276,428617,20644
1151.17,1.320675,431169,20605
1154.75,1.313775,433579,21052
1158.33,1.314029,436264,21170
1161.91,1.309975,439132,21509
1165.48,1.315594,442389,21390
1169.04,1.312334,446101,21732
1173.79,1.315500,451929,21856
1177.34,1.316271,456026,22015
1180.9,1.315295,461306,22320
1184.44,1.311650,467657,22818
1187.99,1.316845,473969,22851
1191.52,1.319837,479856,22976
1195.06,1.326189,487372,22997
1199.76,1.319208,497347,23848
1203.29,1.316467,504311,24335
1206.81,1.325341,511507,24183
1210.33,1.323204,519078,24662
1213.84,1.319856,527163,25240
1217.35,1.316545,534208,25773
1220.85,1.325756,540472,25528
1225.51,1.328266,549929,25825
1229.01,1.324855,556888,26358
1232.5,1.327499,562180,26447
1235.98,1.323770,567975,26950
1239.46,1.322968,574815,27325
1242.94,1.321118,582782,27822
1246.41,1.326909,591476,27863
1251.03,1.324273,604016,28627
1254.5,1.324813,612289,28983
1257.96,1.327706,619125,29112
1261.41,1.329353,624551,29256
1264.86,1.329744,629900,29480
1268.31,1.331812,634345,29547
1271.75,1.328597,638574,29965
1276.33,1.333525,642499,29809
1279.76,1.325670,645905,30514
1283.19,1.330524,648307,30287
1286.61,1.325564,650446,30736
1290.03,1.326250,652132,30767
1293.44,1.330988,653907,30516
1296.85,1.330605,655963,30639
1301.39,1.330757,657349,30693
1304.8,1.329228,657558,30811
1308.19,1.334665,658515,30472
1311.58,1.327899,658804,30964
1314.97,1.332859,659011,30622
1318.36,1.331324,658272,30696
1321.73,1.328071,658022,30915
1326.23,1.330323,657870,30748
1329.6,1.332653,656482,30519
1332.97,1.331850,654926,30503
1336.33,1.328088,653727,30712
1339.69,1.329539,652497,30552
1343.04,1.329197,649913,30455
1346.39,1.329955,647671,30297
1349.73,1.326871,645338,30403
1354.18,1.329320,641175,30037
1357.52,1.334519,638376,29550
1360.85,1.327478,635805,29912
1364.17,1.323568,633413,30069
1367.49,1.331759,631026,29396
1370.81,1.326585,628050,29608
1374.12,1.327970,625034,29372
1378.54,1.324456,620272,29385
1381.84,1.331843,616892,28732
1385.14,1.325556,613613,28996
1388.43,1.329943,611526,28607
1391.72,1.325084,610663,28888
1395.01,1.325936,610634,28830
1398.29,1.329323,611700,28656
1402.66,1.326991,614051,28921
1405.93,1.336727,616268,28382
1409.2,1.332479,617795,28732
1412.46,1.330373,618872,28922
1415.72,1.330195,619795,28977
1418.98,1.332216,620495,28875
1422.23,1.333458,621087,28820
1426.56,1.327480,621375,29233
1429.8,1.330930,621616,29013
1433.04,1.333283,622129,28880
1436.27,1.334882,621526,28746
1439.5,1.336425,621113,28625
1442.72,1.334701,620921,28730
1445.94,1.335305,620270,28660
1450.23,1.334407,618860,28654
1453.44,1.332198,617697,28746
1456.64,1.334678,616264,28516
1459.85,1.331305,614413,28652
1463.04,1.333055,612307,28439
1466.24,1.334426,610032,28244
1469.43,1.336821,607345,27965
1473.67,1.338437,603789,27698
1476.85,1.334503,601175,27829
1480.02,1.331810,597737,27842
1483.19,1.338276,594479,27281
1486.36,1.344321,591232,26757
1489.52,1.337407,587853,27031
1492.68,1.344683,583875,26402
1496.89,1.332481,578062,26884
1500.03,1.340019,574159,26243
1503.18,1.333765,570285,26444
1506.32,1.331560,565444,26353
1509.45,1.339205,560571,25670
1512.58,1.339759,555821,25420
1515.71,1.334571,550344,25472
1519.87,1.333135,543983,25261
1522.99,1.339423,538764,24659
1526.1,1.333944,533692,24737
1529.21,1.336768,527902,24310
1532.32,1.340251,521886,23841
1535.42,1.335760,515888,23812
1538.51,1.336122,509987,23520
1541.6,1.341063,503936,22978
1545.72,1.335355,494694,22855
1548.8,1.338780,488378,22386
1551.88,1.340532,481832,21997
1554.95,1.332488,474989,22090
1558.02,1.336066,467818,21578
1561.08,1.334700,460730,21318
1564.15,1.336906,454170,20908
1568.22,1.331527,444181,20703
1571.27,1.330075,436947,20434
1574.32,1.339678,429598,19651
1577.36,1.327308,422039,19863
1580.4,1.333911,414375,19208
1583.43,1.344583,406354,18379
1586.46,1.333934,398475,18470
1590.49,1.330598,388982,18169
1593.51,1.334488,380708,17624
1596.53,1.317617,372727,17938
1599.54,1.338557,365060,16742
1602.55,1.327399,357543,16824
1605.55,1.326220,349495,16490
1608.55,1.327638,341154,16044
1612.54,1.322662,330877,15740
1615.53,1.325035,322904,15277
1618.51,1.324614,315116,14923
1621.49,1.318771,307217,14746
1624.47,1.321003,299481,14301
1627.44,1.331723,292112,13609
1630.41,1.312714,284245,13835
1634.36,1.321667,274079,13068
1637.32,1.304519,266916,13239
1640.27,1.311171,259612,12681
1643.22,1.321628,251804,12007
1646.16,1.323813,244348,11593
1649.1,1.314943,236703,11462
1652.04,1.329161,228171,10693
1655.95,1.329801,215408,10080
1658.88,1.303873,204937,10180
1661.8,1.297084,193395,9758
1664.72,1.282320,179728,9382
1667.63,1.264505,163642,8900
1670.54,1.249880,146312,8230
1673.44,1.232866,128451,7514
1677.31,1.183049,105080,6894
1680.21,1.185953,88906,5794
1683.1,1.181877,75033,4936
1685.99,1.176673,63520,4229
1688.87,1.139469,53714,3896
1691.75,1.201587,45653,2870
1694.62,1.163643,39137,2685
1697.49,1.191548,33776,2173
1701.31,1.135365,28175,2063