Folder: textile_sorting_NIRSCAN_/ML/samples/unknown (part 132)

File: Column 1_078983_20241121_173136.csv
Method:,Column 1,,
Host Date-Time:,21/11/24 @ 17:31:36,,
Header Version:,1,,
System Temp (C):,37.55,,
Detector Temp (C):,36.91,,
Humidity (%):,0.64,,
Lamp PD:,3796,,
Shift Vector Coefficients:,-10.5391,0.0761263,-0.000134223,,
Pixel to Wavelength Coefficients:,1775.68,-0.916766,-0.000235065,,
Serial Number:,5510004,,
Scan Config Name:,Column 1,,
Scan Config Type:,Slew,,
Section 1,,
Start wavelength (nm):,900,,
End wavelength (nm):,1700,,
Pattern Pixel Width (nm):,   7.03,,,,
Exposure (ms):,  0.635,,,,
Digital Resolution:,228,,
Num Repeats:,6,,
PGA Gain:,64,,
Total Measurement Time in sec:,  2.727,,
Wavelength (nm),Absorbance (AU),Reference Signal (unitless),Sample Signal (unitless)
901.51,1.330705,108485,5066
905.376,1.299336,121306,6089
909.237,1.323007,131909,6270
913.095,1.325783,143299,6768
916.948,1.335452,156982,7251
922.079,1.328624,179937,8443
925.923,1.319626,200504,9605
929.762,1.335438,222660,10285
933.597,1.329797,244426,11438
937.427,1.325274,263972,12482
941.254,1.306309,281845,13922
945.076,1.313766,297271,14434
950.165,1.302940,315605,15711
953.978,1.298902,328029,16482
957.786,1.300023,340470,17063
961.59,1.321418,352317,16808
965.389,1.300762,363056,18164
969.185,1.314027,373162,18108
972.976,1.312079,382632,18651
976.763,1.302924,391202,19475
981.806,1.294685,400190,20304
985.583,1.305079,406088,20116
989.355,1.313296,410162,19937
993.124,1.315433,412868,19970
996.888,1.307987,414263,20384
1000.65,1.301005,415476,20775
1004.4,1.309153,415479,20389
1009.41,1.302056,414358,20669
1013.15,1.308009,412923,20317
1016.89,1.308960,411526,20204
1020.63,1.302824,409066,20369
1024.36,1.305297,406777,20140
1028.09,1.306810,404427,19954
1031.82,1.302905,401911,20009
1036.78,1.309873,398410,19519
1040.49,1.312092,396204,19312
1044.2,1.300651,394236,19729
1047.91,1.306831,392042,19342
1051.61,1.304815,389823,19322
1055.31,1.311324,388234,18957
1059,1.302128,387599,19331
1063.92,1.304127,386688,19197
1067.61,1.317163,386598,18625
1071.29,1.308627,387377,19033
1074.96,1.316152,388536,18762
1078.63,1.313913,389855,18923
1082.3,1.317796,391215,18820
1085.96,1.321953,393215,18736
1090.84,1.320726,396270,18935
1094.49,1.308323,398760,19606
1098.14,1.309171,400987,19677
1101.79,1.310428,403477,19742
1105.43,1.317548,406116,19548
1109.06,1.310638,407701,19939
1112.7,1.324184,409859,19429
1117.53,1.306597,412494,20362
1121.15,1.314757,414909,20100
1124.77,1.322639,416559,19817
1128.38,1.318209,418532,20115
1131.99,1.317122,419956,20234
1135.6,1.319218,421946,20232
1139.2,1.325736,423881,20022
1143.99,1.313946,426786,20714
1147.58,1.311965,428617,20898
1151.17,1.317065,431169,20777
1154.75,1.313259,433579,21077
1158.33,1.312452,436264,21247
1161.91,1.313726,439132,21324
1165.48,1.318405,442389,21252
1169.04,1.319324,446101,21385
1173.79,1.309030,451929,22184
1177.34,1.312324,456026,22216
1180.9,1.312986,461306,22439
1184.44,1.320029,467657,22382
1187.99,1.312759,473969,23067
1191.52,1.319629,479856,22987
1195.06,1.322298,487372,23204
1199.76,1.324908,497347,23537
1203.29,1.318399,504311,24227
1206.81,1.322638,511507,24334
1210.33,1.323980,519078,24618
1213.84,1.315950,527163,25468
1217.35,1.322877,534208,25400
1220.85,1.317934,540472,25992
1225.51,1.316930,549929,26508
1229.01,1.322325,556888,26512
1232.5,1.319816,562180,26919
1235.98,1.317324,567975,27353
1239.46,1.315874,574815,27775
1242.94,1.322368,582782,27742
1246.41,1.315571,591476,28600
1251.03,1.319475,604016,28945
1254.5,1.320608,612289,29265
1257.96,1.325816,619125,29239
1261.41,1.328315,624551,29326
1264.86,1.327833,629900,29610
1268.31,1.324785,634345,30029
1271.75,1.324070,638574,30279
1276.33,1.323388,642499,30513
1279.76,1.320716,645905,30864
1283.19,1.326542,648307,30566
1286.61,1.325239,650446,30759
1290.03,1.326505,652132,30749
1293.44,1.322211,653907,31139
1296.85,1.326598,655963,30923
1301.39,1.322557,657349,31278
1304.8,1.331589,657558,30644
1308.19,1.326169,658515,31074
1311.58,1.328264,658804,30938
1314.97,1.324710,659011,31202
1318.36,1.329883,658272,30798
1321.73,1.331484,658022,30673
1326.23,1.326302,657870,31034
1329.6,1.333051,656482,30491
1332.97,1.331394,654926,30535
1336.33,1.322901,653727,31081
1339.69,1.332434,652497,30349
1343.04,1.324925,649913,30756
1346.39,1.324995,647671,30645
1349.73,1.324478,645338,30571
1354.18,1.328742,641175,30077
1357.52,1.324279,638376,30255
1360.85,1.322857,635805,30232
1364.17,1.325363,633413,29945
1367.49,1.327057,631026,29716
1370.81,1.330490,628050,29343
1374.12,1.324994,625034,29574
1378.54,1.323940,620272,29420
1381.84,1.324960,616892,29191
1385.14,1.326681,613613,28921
1388.43,1.323703,611526,29021
1391.72,1.328874,610663,28637
1395.01,1.314680,610634,29587
1398.29,1.332869,611700,28423
1402.66,1.327262,614051,28903
1405.93,1.324982,616268,29160
1409.2,1.324822,617795,29243
1412.46,1.327484,618872,29115
1415.72,1.331155,619795,28913
1418.98,1.335356,620495,28667
1422.23,1.329857,621087,29060
1426.56,1.327376,621375,29240
1429.8,1.325973,621616,29346
1433.04,1.329764,622129,29115
1436.27,1.334399,621526,28778
1439.5,1.336334,621113,28631
1442.72,1.326554,620921,29274
1445.94,1.326975,620270,29215
1450.23,1.326835,618860,29158
1453.44,1.331790,617697,28773
1456.64,1.327773,616264,28973
1459.85,1.336076,614413,28339
1463.04,1.325216,612307,28957
1466.24,1.334611,610032,28232
1469.43,1.328210,607345,28525
1473.67,1.333650,603789,28005
1476.85,1.329368,601175,28160
1480.02,1.329771,597737,27973
1483.19,1.332379,594479,27654
1486.36,1.336439,591232,27247
1489.52,1.329589,587853,27522
1492.68,1.335342,583875,26976
1496.89,1.334667,578062,26749
1500.03,1.341560,574159,26150
1503.18,1.332846,570285,26500
1506.32,1.329636,565444,26470
1509.45,1.336002,560571,25860
1512.58,1.333399,555821,25795
1515.71,1.332479,550344,25595
1519.87,1.330068,543983,25440
1522.99,1.327901,538764,25322
1526.1,1.335051,533692,24674
1529.21,1.334203,527902,24454
1532.32,1.334191,521886,24176
1535.42,1.336015,515888,23798
1538.51,1.328635,509987,23929
1541.6,1.326529,503936,23760
1545.72,1.332439,494694,23009
1548.8,1.333496,488378,22660
1551.88,1.337228,481832,22165
1554.95,1.330487,474989,22192
1558.02,1.334880,467818,21637
1561.08,1.327187,460730,21690
1564.15,1.338154,454170,20848
1568.22,1.328287,444181,20858
1571.27,1.328209,436947,20522
1574.32,1.323752,429598,20385
1577.36,1.333340,422039,19589
1580.4,1.327248,414375,19505
1583.43,1.335718,406354,18758
1586.46,1.330841,398475,18602
1590.49,1.326341,388982,18348
1593.51,1.326866,380708,17936
1596.53,1.323418,372727,17700
1599.54,1.326432,365060,17216
1602.55,1.321375,357543,17059
1605.55,1.318416,349495,16789
1608.55,1.328641,341154,16007
1612.54,1.327573,330877,15563
1615.53,1.321355,322904,15407
1618.51,1.322698,315116,14989
1621.49,1.322617,307217,14616
1624.47,1.317525,299481,14416
1627.44,1.311674,292112,14252
1630.41,1.318433,284245,13654
1634.36,1.302203,274079,13667
1637.32,1.303177,266916,13280
1640.27,1.325409,259612,12272
1643.22,1.306626,251804,12429
1646.16,1.286846,244348,12623
1649.1,1.309297,236703,11612
1652.04,1.307997,228171,11227
1655.95,1.297112,215408,10868
1658.88,1.278840,204937,10784
1661.8,1.277717,193395,10203
1664.72,1.278725,179728,9460
1667.63,1.233210,163642,9565
1670.54,1.232451,146312,8567
1673.44,1.206408,128451,7986
1677.31,1.161662,105080,7242
1680.21,1.152634,88906,6256
1683.1,1.152618,75033,5280
1685.99,1.129337,63520,4716
1688.87,1.120920,53714,4066
1691.75,1.094094,45653,3676
1694.62,1.092763,39137,3161
1697.49,1.083004,33776,2790
1701.31,1.123528,28175,2120

File: Column 1_078985_20241121_173141.csv
Method:,Column 1,,
Host Date-Time:,21/11/24 @ 17:31:41,,
Header Version:,1,,
System Temp (C):,37.57,,
Detector Temp (C):,36.96,,
Humidity (%):,0.59,,
Lamp PD:,3795,,
Shift Vector Coefficients:,-10.5391,0.0761263,-0.000134223,,
Pixel to Wavelength Coefficients:,1775.68,-0.916766,-0.000235065,,
Serial Number:,5510004,,
Scan Config Name:,Column 1,,
Scan Config Type:,Slew,,
Section 1,,
Start wavelength (nm):,900,,
End wavelength (nm):,1700,,
Pattern Pixel Width (nm):,   7.03,,,,
Exposure (ms):,  0.635,,,,
Digital Resolution:,228,,
Num Repeats:,6,,
PGA Gain:,64,,
Total Measurement Time in sec:,  2.725,,
Wavelength (nm),Absorbance (AU),Reference Signal (unitless),Sample Signal (unitless)
901.51,1.317450,108485,5223
905.376,1.333065,121306,5634
909.237,1.320245,131909,6310
913.095,1.311828,143299,6989
916.948,1.323111,156982,7460
922.079,1.329138,179937,8433
925.923,1.333687,200504,9299
929.762,1.334679,222660,10303
933.597,1.322941,244426,11620
937.427,1.331688,263972,12299
941.254,1.319451,281845,13507
945.076,1.313946,297271,14428
950.165,1.309794,315605,15465
953.978,1.326899,328029,15453
957.786,1.313806,340470,16530
961.59,1.306659,352317,17389
965.389,1.310702,363056,17753
969.185,1.309233,373162,18309
972.976,1.313595,382632,18586
976.763,1.310800,391202,19125
981.806,1.307690,400190,19705
985.583,1.310597,406088,19862
989.355,1.306638,410162,20245
993.124,1.306032,412868,20407
996.888,1.310251,414263,20278
1000.65,1.310601,415476,20321
1004.4,1.301615,415479,20746
1009.41,1.303593,414358,20596
1013.15,1.305920,412923,20415
1016.89,1.305812,411526,20351
1020.63,1.305862,409066,20227
1024.36,1.308500,406777,19992
1028.09,1.314628,404427,19598
1031.82,1.307004,401911,19821
1036.78,1.310340,398410,19498
1040.49,1.314776,396204,19193
1044.2,1.307440,394236,19423
1047.91,1.309692,392042,19215
1051.61,1.309062,389823,19134
1055.31,1.303829,388234,19287
1059,1.310521,387599,18961
1063.92,1.315194,386688,18714
1067.61,1.321075,386598,18458
1071.29,1.308513,387377,19038
1074.96,1.316476,388536,18748
1078.63,1.317393,389855,18772
1082.3,1.308843,391215,19212
1085.96,1.307299,393215,19379
1090.84,1.314599,396270,19204
1094.49,1.311792,398760,19450
1098.14,1.307959,400987,19732
1101.79,1.313341,403477,19610
1105.43,1.319306,406116,19469
1109.06,1.309529,407701,19990
1112.7,1.312452,409859,19961
1117.53,1.314627,412494,19989
1121.15,1.307855,414909,20422
1124.77,1.317302,416559,20062
1128.38,1.319333,418532,20063
1131.99,1.319619,419956,20118
1135.6,1.305589,421946,20877
1139.2,1.323983,423881,20103
1143.99,1.313171,426786,20751
1147.58,1.318856,428617,20569
1151.17,1.318908,431169,20689
1154.75,1.321917,433579,20661
1158.33,1.322459,436264,20763
1161.91,1.318704,439132,21081
1165.48,1.312760,442389,21530
1169.04,1.316288,446101,21535
1173.79,1.324393,451929,21413
1177.34,1.316113,456026,22023
1180.9,1.316132,461306,22277
1184.44,1.312374,467657,22780
1187.99,1.314816,473969,22958
1191.52,1.315024,479856,23232
1195.06,1.314728,487372,23612
1199.76,1.310000,497347,24359
1203.29,1.313196,504311,24519
1206.81,1.327141,511507,24083
1210.33,1.320974,519078,24789
1213.84,1.320837,527163,25183
1217.35,1.323938,534208,25338
1220.85,1.314439,540472,26202
1225.51,1.309667,549929,26955
1229.01,1.324674,556888,26369
1232.5,1.319946,562180,26911
1235.98,1.320112,567975,27178
1239.46,1.317974,574815,27641
1242.94,1.320322,582782,27873
1246.41,1.321119,591476,28237
1251.03,1.323939,604016,28649
1254.5,1.329256,612289,28688
1257.96,1.322678,619125,29451
1261.41,1.320536,624551,29856
1264.86,1.323920,629900,29878
1268.31,1.323687,634345,30105
1271.75,1.328945,638574,29941
1276.33,1.322563,642499,30571
1279.76,1.328454,645905,30319
1283.19,1.327581,648307,30493
1286.61,1.327930,650446,30569
1290.03,1.328274,652132,30624
1293.44,1.337484,653907,30063
1296.85,1.325994,655963,30966
1301.39,1.329542,657349,30779
1304.8,1.330654,657558,30710
1308.19,1.327933,658515,30948
1311.58,1.325912,658804,31106
1314.97,1.328990,659011,30896
1318.36,1.331394,658272,30691
1321.73,1.323349,658022,31253
1326.23,1.329378,657870,30815
1329.6,1.331942,656482,30569
1332.97,1.331252,654926,30545
1336.33,1.328938,653727,30652
1339.69,1.329596,652497,30548
1343.04,1.324714,649913,30771
1346.39,1.323283,647671,30766
1349.73,1.325004,645338,30534
1354.18,1.329812,641175,30003
1357.52,1.328375,638376,29971
1360.85,1.322455,635805,30260
1364.17,1.320459,633413,30285
1367.49,1.324391,631026,29899
1370.81,1.322686,628050,29875
1374.12,1.324509,625034,29607
1378.54,1.321878,620272,29560
1381.84,1.326331,616892,29099
1385.14,1.323435,613613,29138
1388.43,1.325998,611526,28868
1391.72,1.324784,610663,28908
1395.01,1.318321,610634,29340
1398.29,1.324995,611700,28943
1402.66,1.324610,614051,29080
1405.93,1.328151,616268,28948
1409.2,1.326623,617795,29122
1412.46,1.329398,618872,28987
1415.72,1.326122,619795,29250
1418.98,1.330985,620495,28957
1422.23,1.333248,621087,28834
1426.56,1.331645,621375,28954
1429.8,1.338860,621616,28488
1433.04,1.327992,622129,29234
1436.27,1.335003,621526,28738
1439.5,1.331372,621113,28960
1442.72,1.334640,620921,28734
1445.94,1.338148,620270,28473
1450.23,1.331416,618860,28852
1453.44,1.334941,617697,28565
1456.64,1.329109,616264,28884
1459.85,1.336659,614413,28301
1463.04,1.330801,612307,28587
1466.24,1.333275,610032,28319
1469.43,1.330668,607345,28364
1473.67,1.332009,603789,28111
1476.85,1.336302,601175,27714
1480.02,1.337146,597737,27502
1483.19,1.326885,594479,28006
1486.36,1.334277,591232,27383
1489.52,1.337342,587853,27035
1492.68,1.337683,583875,26831
1496.89,1.331496,578062,26945
1500.03,1.333009,574159,26670
1503.18,1.332469,570285,26523
1506.32,1.339409,565444,25881
1509.45,1.339120,560571,25675
1512.58,1.334850,555821,25709
1515.71,1.330397,550344,25718
1519.87,1.329590,543983,25468
1522.99,1.341347,538764,24550
1526.1,1.331755,533692,24862
1529.21,1.335110,527902,24403
1532.32,1.334012,521886,24186
1535.42,1.332272,515888,24004
1538.51,1.338956,509987,23367
1541.6,1.330901,503936,23522
1545.72,1.335812,494694,22831
1548.8,1.334436,488378,22611
1551.88,1.331331,481832,22468
1554.95,1.326571,474989,22393
1558.02,1.332757,467818,21743
1561.08,1.336169,460730,21246
1564.15,1.333595,454170,21068
1568.22,1.334220,444181,20575
1571.27,1.330756,436947,20402
1574.32,1.336222,429598,19808
1577.36,1.326325,422039,19908
1580.4,1.331634,414375,19309
1583.43,1.331158,406354,18956
1586.46,1.334687,398475,18438
1590.49,1.328881,388982,18241
1593.51,1.325127,380708,18008
1596.53,1.331491,372727,17374
1599.54,1.320743,365060,17443
1602.55,1.318659,357543,17166
1605.55,1.318209,349495,16797
1608.55,1.326962,341154,16069
1612.54,1.312194,330877,16124
1615.53,1.323475,322904,15332
1618.51,1.316484,315116,15205
1621.49,1.329143,307217,14398
1624.47,1.305492,299481,14821
1627.44,1.317904,292112,14049
1630.41,1.311867,284245,13862
1634.36,1.314449,274079,13287
1637.32,1.313937,266916,12955
1640.27,1.328927,259612,12173
1643.22,1.305092,251804,12473
1646.16,1.311733,244348,11920
1649.1,1.319361,236703,11346
1652.04,1.312273,228171,11117
1655.95,1.284354,215408,11192
1658.88,1.298867,204937,10298
1661.8,1.289277,193395,9935
1664.72,1.282876,179728,9370
1667.63,1.241785,163642,9378
1670.54,1.225212,146312,8711
1673.44,1.218932,128451,7759
1677.31,1.165638,105080,7176
1680.21,1.140383,88906,6435
1683.1,1.128696,75033,5579
1685.99,1.109008,63520,4942
1688.87,1.098137,53714,4285
1691.75,1.125062,45653,3423
1694.62,1.127353,39137,2919
1697.49,1.123091,33776,2544
1701.31,1.141300,28175,2035

File: Column 1_078986_20241121_173144.csv
Method:,Column 1,,
Host Date-Time:,21/11/24 @ 17:31:44,,
Header Version:,1,,
System Temp (C):,37.61,,
Detector Temp (C):,36.96,,
Humidity (%):,0.64,,
Lamp PD:,3795,,
Shift Vector Coefficients:,-10.5391,0.0761263,-0.000134223,,
Pixel to Wavelength Coefficients:,1775.68,-0.916766,-0.000235065,,
Serial Number:,5510004,,
Scan Config Name:,Column 1,,
Scan Config Type:,Slew,,
Section 1,,
Start wavelength (nm):,900,,
End wavelength (nm):,1700,,
Pattern Pixel Width (nm):,   7.03,,,,
Exposure (ms):,  0.635,,,,
Digital Resolution:,228,,
Num Repeats:,6,,
PGA Gain:,64,,
Total Measurement Time in sec:,  2.715,,
Wavelength (nm),Absorbance (AU),Reference Signal (unitless),Sample Signal (unitless)
901.51,1.299771,108485,5440
905.376,1.333528,121306,5628
909.237,1.325996,131909,6227
913.095,1.298248,143299,7211
916.948,1.306828,156982,7745
922.079,1.313460,179937,8743
925.923,1.323577,200504,9518
929.762,1.327778,222660,10468
933.597,1.332922,244426,11356
937.427,1.308250,263972,12981
941.254,1.316184,281845,13609
945.076,1.318759,297271,14269
950.165,1.313687,315605,15327
953.978,1.316678,328029,15821
957.786,1.310378,340470,16661
961.59,1.303970,352317,17497
965.389,1.308895,363056,17827
969.185,1.302501,373162,18595
972.976,1.300091,382632,19173
976.763,1.310573,391202,19135
981.806,1.302759,400190,19930
985.583,1.310882,406088,19849
989.355,1.305652,410162,20291
993.124,1.295956,412868,20886
996.888,1.305967,414263,20479
1000.65,1.304278,415476,20619
1004.4,1.312918,415479,20213
1009.41,1.305749,414358,20494
1013.15,1.302255,412923,20588
1016.89,1.310230,411526,20145
1020.63,1.301058,409066,20452
1024.36,1.301347,406777,20324
1028.09,1.296806,404427,20419
1031.82,1.306982,401911,19822
1036.78,1.309050,398410,19556
1040.49,1.308464,396204,19474
1044.2,1.301202,394236,19704
1047.91,1.303098,392042,19509
1051.61,1.299587,389823,19556
1055.31,1.298525,388234,19524
1059,1.308032,387599,19070
1063.92,1.308653,386688,18998
1067.61,1.305340,386598,19139
1071.29,1.310983,387377,18930
1074.96,1.310975,388536,18987
1078.63,1.306901,389855,19231
1082.3,1.307241,391215,19283
1085.96,1.302152,393215,19610
1090.84,1.306267,396270,19576
1094.49,1.304441,398760,19782
1098.14,1.310653,400987,19610
1101.79,1.310142,403477,19755
1105.43,1.305346,406116,20105
1109.06,1.320218,407701,19504
1112.7,1.309071,409859,20117
1117.53,1.308136,412494,20290
1121.15,1.308195,414909,20406
1124.77,1.312287,416559,20295
1128.38,1.312802,418532,20367
1131.99,1.314469,419956,20358
1135.6,1.309832,421946,20674
1139.2,1.304054,423881,21047
1143.99,1.318732,426786,20487
1147.58,1.309230,428617,21030
1151.17,1.314356,431169,20907
1154.75,1.311573,433579,21159
1158.33,1.315632,436264,21092
1161.91,1.316833,439132,21172
1165.48,1.313265,442389,21505
1169.04,1.309505,446101,21874
1173.79,1.316235,451929,21819
1177.34,1.312089,456026,22228
1180.9,1.310246,461306,22581
1184.44,1.311574,467657,22822
1187.99,1.308469,473969,23296
1191.52,1.316279,479856,23165
1195.06,1.323253,487372,23153
1199.76,1.311751,497347,24261
1203.29,1.312877,504311,24537
1206.81,1.326204,511507,24135
1210.33,1.319452,519078,24876
1213.84,1.314571,527163,25549
1217.35,1.316158,534208,25796
1220.85,1.320884,540472,25816
1225.51,1.315948,549929,26568
1229.01,1.317309,556888,26820
1232.5,1.325402,562180,26575
1235.98,1.323513,567975,26966
1239.46,1.314500,574815,27863
1242.94,1.317140,582782,28078
1246.41,1.318695,591476,28395
1251.03,1.322139,604016,28768
1254.5,1.322214,612289,29157
1257.96,1.321677,619125,29519
1261.41,1.329338,624551,29257
1264.86,1.319063,629900,30214
1268.31,1.319967,634345,30364
1271.75,1.319632,638574,30590
1276.33,1.326172,642499,30318
1279.76,1.324703,645905,30582
1283.19,1.320097,648307,31023
1286.61,1.323858,650446,30857
1290.03,1.330962,652132,30435
1293.44,1.326190,653907,30855
1296.85,1.321779,655963,31268
1301.39,1.324366,657349,31148
1304.8,1.327049,657558,30966
1308.19,1.329254,658515,30854
1311.58,1.323295,658804,31294
1314.97,1.326244,659011,31092
1318.36,1.322251,658272,31344
1321.73,1.330409,658022,30749
1326.23,1.325128,657870,31118
1329.6,1.326071,656482,30985
1332.97,1.329394,654926,30676
1336.33,1.327650,653727,30743
1339.69,1.324255,652497,30926
1343.04,1.326439,649913,30649
1346.39,1.325576,647671,30604
1349.73,1.325658,645338,30488
1354.18,1.324189,641175,30394
1357.52,1.326423,638376,30106
1360.85,1.329355,635805,29783
1364.17,1.322846,633413,30119
1367.49,1.323708,631026,29946
1370.81,1.326805,628050,29593
1374.12,1.326067,625034,29501
1378.54,1.322775,620272,29499
1381.84,1.325347,616892,29165
1385.14,1.324524,613613,29065
1388.43,1.316505,611526,29506
1391.72,1.322835,610663,29038
1395.01,1.324898,610634,28899
1398.29,1.322302,611700,29123
1402.66,1.325642,614051,29011
1405.93,1.325772,616268,29107
1409.2,1.321405,617795,29474
1412.46,1.328410,618872,29053
1415.72,1.330240,619795,28974
1418.98,1.334372,620495,28732
1422.23,1.331834,621087,28928
1426.56,1.324165,621375,29457
1429.8,1.332790,621616,28889
1433.04,1.329585,622129,29127
1436.27,1.333103,621526,28864
1439.5,1.332513,621113,28884
1442.72,1.331763,620921,28925
1445.94,1.328449,620270,29116
1450.23,1.331251,618860,28863
1453.44,1.327599,617697,29052
1456.64,1.327159,616264,29014
1459.85,1.334317,614413,28454
1463.04,1.333024,612307,28441
1466.24,1.332233,610032,28387
1469.43,1.327525,607345,28570
1473.67,1.324550,603789,28598
1476.85,1.329646,601175,28142
1480.02,1.325999,597737,28217
1483.19,1.334094,594479,27545
1486.36,1.330173,591232,27643
1489.52,1.327511,587853,27654
1492.68,1.330746,583875,27263
1496.89,1.330128,578062,27030
1500.03,1.332602,574159,26695
1503.18,1.330053,570285,26671
1506.32,1.333078,565444,26261
1509.45,1.332940,560571,26043
1512.58,1.334698,555821,25718
1515.71,1.333788,550344,25518
1519.87,1.335704,543983,25112
1522.99,1.330446,538764,25174
1526.1,1.324273,533692,25294
1529.21,1.333795,527902,24477
1532.32,1.330881,521886,24361
1535.42,1.334612,515888,23875
1538.51,1.335163,509987,23572
1541.6,1.336494,503936,23221
1545.72,1.338521,494694,22689
1548.8,1.329604,488378,22864
1551.88,1.331447,481832,22462
1554.95,1.323267,474989,22564
1558.02,1.323216,467818,22226
1561.08,1.323459,460730,21877
1564.15,1.336097,454170,20947
1568.22,1.330291,444181,20762
1571.27,1.317982,436947,21011
1574.32,1.329326,429598,20125
1577.36,1.327680,422039,19846
1580.4,1.333572,414375,19223
1583.43,1.327712,406354,19107
1586.46,1.326266,398475,18799
1590.49,1.327170,388982,18313
1593.51,1.328467,380708,17870
1596.53,1.328502,372727,17494
1599.54,1.322215,365060,17384
1602.55,1.323570,357543,16973
1605.55,1.319063,349495,16764
1608.55,1.312346,341154,16619
1612.54,1.309188,330877,16236
1615.53,1.313672,322904,15682
1618.51,1.320386,315116,15069
1621.49,1.311093,307217,15009
1624.47,1.316802,299481,14440
1627.44,1.311460,292112,14259
1630.41,1.314475,284245,13779
1634.36,1.310091,274079,13421
1637.32,1.329499,266916,12499
1640.27,1.311480,259612,12672
1643.22,1.305963,251804,12448
1646.16,1.303433,244348,12150
1649.1,1.307878,236703,11650
1652.04,1.315764,228171,11028
1655.95,1.284315,215408,11193
1658.88,1.284965,204937,10633
1661.8,1.259626,193395,10637
1664.72,1.287817,179728,9264
1667.63,1.238969,163642,9439
1670.54,1.205523,146312,9115
1673.44,1.185390,128451,8382
1677.31,1.163766,105080,7207
1680.21,1.155490,88906,6215
1683.1,1.142778,75033,5401
1685.99,1.111741,63520,4911
1688.87,1.087722,53714,4389
1691.75,1.060898,45653,3968
1694.62,1.055777,39137,3442
1697.49,1.101934,33776,2671
1701.31,1.091358,28175,2283