Folder: textile_sorting_NIRSCAN_/ML/samples/unknown (part 104)

File: Column 1_078737_20241121_171945.csv
Method:,Column 1,,
Host Date-Time:,21/11/24 @ 17:19:45,,
Header Version:,1,,
System Temp (C):,35.96,,
Detector Temp (C):,34.57,,
Humidity (%):,1.03,,
Lamp PD:,3799,,
Shift Vector Coefficients:,-10.5391,0.0761263,-0.000134223,,
Pixel to Wavelength Coefficients:,1775.68,-0.916766,-0.000235065,,
Serial Number:,5510004,,
Scan Config Name:,Column 1,,
Scan Config Type:,Slew,,
Section 1,,
Start wavelength (nm):,900,,
End wavelength (nm):,1700,,
Pattern Pixel Width (nm):,   7.03,,,,
Exposure (ms):,  0.635,,,,
Digital Resolution:,228,,
Num Repeats:,6,,
PGA Gain:,64,,
Total Measurement Time in sec:,  2.693,,
Wavelength (nm),Absorbance (AU),Reference Signal (unitless),Sample Signal (unitless)
901.51,1.334061,108485,5027
905.376,1.338964,121306,5558
909.237,1.308297,131909,6486
913.095,1.306885,143299,7069
916.948,1.317386,156982,7559
922.079,1.320218,179937,8608
925.923,1.338005,200504,9207
929.762,1.328235,222660,10457
933.597,1.323240,244426,11612
937.427,1.324648,263972,12500
941.254,1.315706,281845,13624
945.076,1.304802,297271,14735
950.165,1.316016,315605,15245
953.978,1.305781,328029,16223
957.786,1.310221,340470,16667
961.59,1.307634,352317,17350
965.389,1.317457,363056,17479
969.185,1.300893,373162,18664
972.976,1.306986,382632,18871
976.763,1.309552,391202,19180
981.806,1.318897,400190,19203
985.583,1.297651,406088,20463
989.355,1.310084,410162,20085
993.124,1.302366,412868,20580
996.888,1.307114,414263,20425
1000.65,1.302953,415476,20682
1004.4,1.314727,415479,20129
1009.41,1.306810,414358,20444
1013.15,1.310647,412923,20194
1016.89,1.305087,411526,20385
1020.63,1.306550,409066,20195
1024.36,1.308261,406777,20003
1028.09,1.303903,404427,20088
1031.82,1.310679,401911,19654
1036.78,1.314525,398410,19311
1040.49,1.309424,396204,19431
1044.2,1.308425,394236,19379
1047.91,1.315540,392042,18958
1051.61,1.310380,389823,19076
1055.31,1.318857,388234,18631
1059,1.312243,387599,18886
1063.92,1.309110,386688,18978
1067.61,1.308758,386598,18989
1071.29,1.308239,387377,19050
1074.96,1.320129,388536,18591
1078.63,1.313088,389855,18959
1082.3,1.310201,391215,19152
1085.96,1.311668,393215,19185
1090.84,1.319924,396270,18970
1094.49,1.317546,398760,19194
1098.14,1.314635,400987,19431
1101.79,1.314805,403477,19544
1105.43,1.304203,406116,20158
1109.06,1.314819,407701,19748
1112.7,1.317331,409859,19738
1117.53,1.315431,412494,19952
1121.15,1.318010,414909,19950
1124.77,1.311796,416559,20318
1128.38,1.319376,418532,20061
1131.99,1.320375,419956,20083
1135.6,1.318660,421946,20258
1139.2,1.316487,423881,20453
1143.99,1.323442,426786,20266
1147.58,1.322184,428617,20412
1151.17,1.320780,431169,20600
1154.75,1.322274,433579,20644
1158.33,1.328653,436264,20469
1161.91,1.317942,439132,21118
1165.48,1.306969,442389,21819
1169.04,1.310897,446101,21804
1173.79,1.317471,451929,21757
1177.34,1.315620,456026,22048
1180.9,1.319499,461306,22105
1184.44,1.313137,467657,22740
1187.99,1.311424,473969,23138
1191.52,1.321978,479856,22863
1195.06,1.315870,487372,23550
1199.76,1.318989,497347,23860
1203.29,1.318058,504311,24246
1206.81,1.320076,511507,24478
1210.33,1.315576,519078,25099
1213.84,1.322860,527163,25066
1217.35,1.317710,534208,25704
1220.85,1.315069,540472,26164
1225.51,1.326856,549929,25909
1229.01,1.322735,556888,26487
1232.5,1.314381,562180,27258
1235.98,1.324480,567975,26906
1239.46,1.313971,574815,27897
1242.94,1.322760,582782,27717
1246.41,1.320642,591476,28268
1251.03,1.318965,604016,28979
1254.5,1.321931,612289,29176
1257.96,1.324377,619125,29336
1261.41,1.319026,624551,29960
1264.86,1.324997,629900,29804
1268.31,1.323615,634345,30110
1271.75,1.324601,638574,30242
1276.33,1.322108,642499,30603
1279.76,1.327467,645905,30388
1283.19,1.330238,648307,30307
1286.61,1.328442,650446,30533
1290.03,1.323002,652132,30998
1293.44,1.328363,653907,30701
1296.85,1.326808,655963,30908
1301.39,1.325958,657349,31034
1304.8,1.328299,657558,30877
1308.19,1.331767,658515,30676
1311.58,1.328713,658804,30906
1314.97,1.326929,659011,31043
1318.36,1.334405,658272,30479
1321.73,1.327033,658022,30989
1326.23,1.329265,657870,30823
1329.6,1.327208,656482,30904
1332.97,1.321398,654926,31246
1336.33,1.330485,653727,30543
1339.69,1.331091,652497,30443
1343.04,1.317450,649913,31290
1346.39,1.326941,647671,30508
1349.73,1.326757,645338,30411
1354.18,1.329624,641175,30016
1357.52,1.327044,638376,30063
1360.85,1.325783,635805,30029
1364.17,1.331438,633413,29529
1367.49,1.326444,631026,29758
1370.81,1.326233,628050,29632
1374.12,1.327453,625034,29407
1378.54,1.325922,620272,29286
1381.84,1.330515,616892,28820
1385.14,1.327673,613613,28855
1388.43,1.324781,611526,28949
1391.72,1.318727,610663,29314
1395.01,1.324988,610634,28893
1398.29,1.325716,611700,28895
1402.66,1.327156,614051,28910
1405.93,1.328001,616268,28958
1409.2,1.329301,617795,28943
1412.46,1.326769,618872,29163
1415.72,1.331125,619795,28915
1418.98,1.328070,620495,29152
1422.23,1.327145,621087,29242
1426.56,1.327718,621375,29217
1429.8,1.330421,621616,29047
1433.04,1.334790,622129,28780
1436.27,1.329447,621526,29108
1439.5,1.332498,621113,28885
1442.72,1.331418,620921,28948
1445.94,1.323215,620270,29469
1450.23,1.334225,618860,28666
1453.44,1.332410,617697,28732
1456.64,1.329380,616264,28866
1459.85,1.333676,614413,28496
1463.04,1.329769,612307,28655
1466.24,1.332157,610032,28392
1469.43,1.334019,607345,28146
1473.67,1.328347,603789,28349
1476.85,1.331269,601175,28037
1480.02,1.335869,597737,27583
1483.19,1.335357,594479,27465
1486.36,1.334737,591232,27354
1489.52,1.339226,587853,26918
1492.68,1.330523,583875,27277
1496.89,1.335349,578062,26707
1500.03,1.334657,574159,26569
1503.18,1.334636,570285,26391
1506.32,1.340888,565444,25793
1509.45,1.333040,560571,26037
1512.58,1.330028,555821,25996
1515.71,1.336074,550344,25384
1519.87,1.336656,543983,25057
1522.99,1.331051,538764,25139
1526.1,1.338479,533692,24480
1529.21,1.332007,527902,24578
1532.32,1.335090,521886,24126
1535.42,1.337734,515888,23704
1538.51,1.338900,509987,23370
1541.6,1.333531,503936,23380
1545.72,1.339115,494694,22658
1548.8,1.332348,488378,22720
1551.88,1.331699,481832,22449
1554.95,1.341266,474989,21648
1558.02,1.331760,467818,21793
1561.08,1.337439,460730,21184
1564.15,1.334090,454170,21044
1568.22,1.330165,444181,20768
1571.27,1.329353,436947,20468
1574.32,1.332989,429598,19956
1577.36,1.327461,422039,19856
1580.4,1.334998,414375,19160
1583.43,1.327508,406354,19116
1586.46,1.324031,398475,18896
1590.49,1.321867,388982,18538
1593.51,1.320974,380708,18181
1596.53,1.327510,372727,17534
1599.54,1.326331,365060,17220
1602.55,1.318153,357543,17186
1605.55,1.326141,349495,16493
1608.55,1.321830,341154,16260
1612.54,1.322662,330877,15740
1615.53,1.329292,322904,15128
1618.51,1.318173,315116,15146
1621.49,1.327067,307217,14467
1624.47,1.323348,299481,14224
1627.44,1.320322,292112,13971
1630.41,1.321017,284245,13573
1634.36,1.325103,274079,12965
1637.32,1.317167,266916,12859
1640.27,1.316825,259612,12517
1643.22,1.314063,251804,12218
1646.16,1.305798,244348,12084
1649.1,1.318940,236703,11357
1652.04,1.297676,228171,11497
1655.95,1.308489,215408,10587
1658.88,1.284026,204937,10656
1661.8,1.291381,193395,9887
1664.72,1.276801,179728,9502
1667.63,1.235486,163642,9515
1670.54,1.230176,146312,8612
1673.44,1.201111,128451,8084
1677.31,1.201845,105080,6602
1680.21,1.172375,88906,5978
1683.1,1.189959,75033,4845
1685.99,1.152603,63520,4470
1688.87,1.128788,53714,3993
1691.75,1.171060,45653,3079
1694.62,1.117643,39137,2985
1697.49,1.205562,33776,2104
1701.31,1.215853,28175,1714

File: Column 1_078742_20241121_172000.csv
Method:,Column 1,,
Host Date-Time:,21/11/24 @ 17:20:0,,
Header Version:,1,,
System Temp (C):,36.36,,
Detector Temp (C):,34.62,,
Humidity (%):,0.98,,
Lamp PD:,3799,,
Shift Vector Coefficients:,-10.5391,0.0761263,-0.000134223,,
Pixel to Wavelength Coefficients:,1775.68,-0.916766,-0.000235065,,
Serial Number:,5510004,,
Scan Config Name:,Column 1,,
Scan Config Type:,Slew,,
Section 1,,
Start wavelength (nm):,900,,
End wavelength (nm):,1700,,
Pattern Pixel Width (nm):,   7.03,,,,
Exposure (ms):,  0.635,,,,
Digital Resolution:,228,,
Num Repeats:,6,,
PGA Gain:,64,,
Total Measurement Time in sec:,  2.717,,
Wavelength (nm),Absorbance (AU),Reference Signal (unitless),Sample Signal (unitless)
901.51,1.309540,108485,5319
905.376,1.331066,121306,5660
909.237,1.293422,131909,6712
913.095,1.316702,143299,6911
916.948,1.321542,156982,7487
922.079,1.340249,179937,8220
925.923,1.305174,200504,9930
929.762,1.324102,222660,10557
933.597,1.316707,244426,11788
937.427,1.314280,263972,12802
941.254,1.311234,281845,13765
945.076,1.317786,297271,14301
950.165,1.309654,315605,15470
953.978,1.311196,328029,16022
957.786,1.321012,340470,16258
961.59,1.318277,352317,16930
965.389,1.302319,363056,18099
969.185,1.310801,373162,18243
972.976,1.299367,382632,19205
976.763,1.311754,391202,19083
981.806,1.301692,400190,19979
985.583,1.308677,406088,19950
989.355,1.309565,410162,20109
993.124,1.301986,412868,20598
996.888,1.302756,414263,20631
1000.65,1.303247,415476,20668
1004.4,1.299881,415479,20829
1009.41,1.309452,414358,20320
1013.15,1.298433,412923,20770
1016.89,1.303279,411526,20470
1020.63,1.308900,409066,20086
1024.36,1.291377,406777,20796
1028.09,1.297402,404427,20391
1031.82,1.310878,401911,19645
1036.78,1.297848,398410,20067
1040.49,1.310229,396204,19395
1044.2,1.306480,394236,19466
1047.91,1.311958,392042,19115
1051.61,1.301345,389823,19477
1055.31,1.308424,388234,19084
1059,1.309629,387599,19000
1063.92,1.313272,386688,18797
1067.61,1.310430,386598,18916
1071.29,1.310181,387377,18965
1074.96,1.301070,388536,19425
1078.63,1.313982,389855,18920
1082.3,1.308753,391215,19216
1085.96,1.322696,393215,18704
1090.84,1.310682,396270,19378
1094.49,1.307880,398760,19626
1098.14,1.320463,400987,19172
1101.79,1.310758,403477,19727
1105.43,1.315332,406116,19648
1109.06,1.313918,407701,19789
1112.7,1.314524,409859,19866
1117.53,1.317438,412494,19860
1121.15,1.320652,414909,19829
1124.77,1.310281,416559,20389
1128.38,1.306788,418532,20651
1131.99,1.318756,419956,20158
1135.6,1.317975,421946,20290
1139.2,1.308555,423881,20830
1143.99,1.324021,426786,20239
1147.58,1.309106,428617,21036
1151.17,1.316814,431169,20789
1154.75,1.318066,433579,20845
1158.33,1.317799,436264,20987
1161.91,1.321370,439132,20952
1165.48,1.315127,442389,21413
1169.04,1.322647,446101,21222
1173.79,1.310816,451929,22093
1177.34,1.318407,456026,21907
1180.9,1.314731,461306,22349
1184.44,1.319427,467657,22413
1187.99,1.312345,473969,23089
1191.52,1.315735,479856,23194
1195.06,1.317033,487372,23487
1199.76,1.322498,497347,23668
1203.29,1.317021,504311,24304
1206.81,1.323299,511507,24297
1210.33,1.317571,519078,24984
1213.84,1.315234,527163,25510
1217.35,1.314360,534208,25903
1220.85,1.322975,540472,25692
1225.51,1.320929,549929,26265
1229.01,1.321507,556888,26562
1232.5,1.318367,562180,27009
1235.98,1.315455,567975,27471
1239.46,1.317754,574815,27655
1242.94,1.318658,582782,27980
1246.41,1.318879,591476,28383
1251.03,1.314789,604016,29259
1254.5,1.317901,612289,29448
1257.96,1.327065,619125,29155
1261.41,1.322928,624551,29692
1264.86,1.321543,629900,30042
1268.31,1.324192,634345,30070
1271.75,1.329540,638574,29900
1276.33,1.329133,642499,30112
1279.76,1.322606,645905,30730
1283.19,1.330223,648307,30308
1286.61,1.324844,650446,30787
1290.03,1.323843,652132,30938
1293.44,1.326796,653907,30812
1296.85,1.330562,655963,30642
1301.39,1.328105,657349,30881
1304.8,1.323974,657558,31186
1308.19,1.325442,658515,31126
1311.58,1.324017,658804,31242
1314.97,1.331161,659011,30742
1318.36,1.331989,658272,30649
1321.73,1.328338,658022,30896
1326.23,1.329984,657870,30772
1329.6,1.326871,656482,30928
1332.97,1.324047,654926,31056
1336.33,1.329235,653727,30631
1339.69,1.332091,652497,30373
1343.04,1.322588,649913,30922
1346.39,1.327824,647671,30446
1349.73,1.328502,645338,30289
1354.18,1.325104,641175,30330
1357.52,1.318448,638376,30664
1360.85,1.322728,635805,30241
1364.17,1.322284,633413,30158
1367.49,1.322608,631026,30022
1370.81,1.331275,628050,29290
1374.12,1.325567,625034,29535
1378.54,1.329421,620272,29051
1381.84,1.320844,616892,29469
1385.14,1.326907,613613,28906
1388.43,1.323867,611526,29010
1391.72,1.330195,610663,28550
1395.01,1.327400,610634,28733
1398.29,1.328657,611700,28700
1402.66,1.328435,614051,28825
1405.93,1.327087,616268,29019
1409.2,1.328611,617795,28989
1412.46,1.325668,618872,29237
1415.72,1.328474,619795,29092
1418.98,1.328577,620495,29118
1422.23,1.327457,621087,29221
1426.56,1.331375,621375,28972
1429.8,1.331199,621616,28995
1433.04,1.330944,622129,29036
1436.27,1.331196,621526,28991
1439.5,1.327119,621113,29245
1442.72,1.338695,620921,28467
1445.94,1.329225,620270,29064
1450.23,1.332275,618860,28795
1453.44,1.332848,617697,28703
1456.64,1.330857,616264,28768
1459.85,1.328104,614413,28864
1463.04,1.337445,612307,28153
1466.24,1.350752,610032,27202
1469.43,1.331296,607345,28323
1473.67,1.339473,603789,27632
1476.85,1.331455,601175,28025
1480.02,1.332215,597737,27816
1483.19,1.334646,594479,27510
1486.36,1.331053,591232,27587
1489.52,1.329904,587853,27502
1492.68,1.333671,583875,27080
1496.89,1.329005,578062,27100
1500.03,1.333694,574159,26628
1503.18,1.333158,570285,26481
1506.32,1.333889,565444,26212
1509.45,1.326336,560571,26442
1512.58,1.328344,555821,26097
1515.71,1.334145,550344,25497
1519.87,1.338149,543983,24971
1522.99,1.335566,538764,24879
1526.1,1.325098,533692,25246
1529.21,1.333228,527902,24509
1532.32,1.334012,521886,24186
1535.42,1.330358,515888,24110
1538.51,1.334850,509987,23589
1541.6,1.328471,503936,23654
1545.72,1.338100,494694,22711
1548.8,1.341094,488378,22267
1551.88,1.324371,481832,22831
1554.95,1.332449,474989,22092
1558.02,1.332039,467818,21779
1561.08,1.332546,460730,21424
1564.15,1.330187,454170,21234
1568.22,1.335870,444181,20497
1571.27,1.323390,436947,20751
1574.32,1.335564,429598,19838
1577.36,1.341667,422039,19217
1580.4,1.328228,414375,19461
1583.43,1.332765,406354,18886
1586.46,1.335985,398475,18383
1590.49,1.336373,388982,17929
1593.51,1.321548,380708,18157
1596.53,1.321826,372727,17765
1599.54,1.329698,365060,17087
1602.55,1.328459,357543,16783
1605.55,1.321870,349495,16656
1608.55,1.322766,341154,16225
1612.54,1.313300,330877,16083
1615.53,1.314670,322904,15646
1618.51,1.320847,315116,15053
1621.49,1.315339,307217,14863
1624.47,1.314193,299481,14527
1627.44,1.309485,292112,14324
1630.41,1.312933,284245,13828
1634.36,1.307381,274079,13505
1637.32,1.316290,266916,12885
1640.27,1.312818,259612,12633
1643.22,1.302938,251804,12535
1646.16,1.303147,244348,12158
1649.1,1.296364,236703,11963
1652.04,1.315252,228171,11041
1655.95,1.299115,215408,10818
1658.88,1.290721,204937,10493
1661.8,1.293009,193395,9850
1664.72,1.272933,179728,9587
1667.63,1.251241,163642,9176
1670.54,1.225112,146312,8713
1673.44,1.210506,128451,7911
1677.31,1.187545,105080,6823
1680.21,1.174998,88906,5942
1683.1,1.174116,75033,5025
1685.99,1.146812,63520,4530
1688.87,1.142377,53714,3870
1691.75,1.094094,45653,3676
1694.62,1.200418,39137,2467
1697.49,1.185594,33776,2203
1701.31,1.093838,28175,2270

File: Column 1_078743_20241121_172003.csv
Method:,Column 1,,
Host Date-Time:,21/11/24 @ 17:20:3,,
Header Version:,1,,
System Temp (C):,36.34,,
Detector Temp (C):,34.65,,
Humidity (%):,0.98,,
Lamp PD:,3799,,
Shift Vector Coefficients:,-10.5391,0.0761263,-0.000134223,,
Pixel to Wavelength Coefficients:,1775.68,-0.916766,-0.000235065,,
Serial Number:,5510004,,
Scan Config Name:,Column 1,,
Scan Config Type:,Slew,,
Section 1,,
Start wavelength (nm):,900,,
End wavelength (nm):,1700,,
Pattern Pixel Width (nm):,   7.03,,,,
Exposure (ms):,  0.635,,,,
Digital Resolution:,228,,
Num Repeats:,6,,
PGA Gain:,64,,
Total Measurement Time in sec:,  2.725,,
Wavelength (nm),Absorbance (AU),Reference Signal (unitless),Sample Signal (unitless)
901.51,1.295323,108485,5496
905.376,1.320679,121306,5797
909.237,1.325577,131909,6233
913.095,1.338744,143299,6569
916.948,1.318479,156982,7540
922.079,1.333694,179937,8345
925.923,1.323486,200504,9520
929.762,1.322541,222660,10595
933.597,1.313514,244426,11875
937.427,1.320774,263972,12612
941.254,1.326028,281845,13304
945.076,1.312864,297271,14464
950.165,1.308308,315605,15518
953.978,1.300063,328029,16438
957.786,1.312337,340470,16586
961.59,1.306909,352317,17379
965.389,1.318153,363056,17451
969.185,1.305242,373162,18478
972.976,1.296415,382632,19336
976.763,1.311663,391202,19087
981.806,1.308351,400190,19675
985.583,1.299331,406088,20384
989.355,1.301944,410162,20465
993.124,1.303042,412868,20548
996.888,1.297858,414263,20865
1000.65,1.301821,415476,20736
1004.4,1.303566,415479,20653
1009.41,1.295798,414358,20969
1013.15,1.303671,412923,20521
1016.89,1.304533,411526,20411
1020.63,1.306442,409066,20200
1024.36,1.311312,406777,19863
1028.09,1.309561,404427,19828
1031.82,1.308673,401911,19745
1036.78,1.308562,398410,19578
1040.49,1.310005,396204,19405
1044.2,1.307216,394236,19433
1047.91,1.305039,392042,19422
1051.61,1.306685,389823,19239
1055.31,1.309906,388234,19019
1059,1.306010,387599,19159
1063.92,1.304557,386688,19178
1067.61,1.313518,386598,18782
1071.29,1.298545,387377,19480
1074.96,1.304144,388536,19288
1078.63,1.316653,389855,18804
1082.3,1.313525,391215,19006
1085.96,1.318421,393215,18889
1090.84,1.307734,396270,19510
1094.49,1.312462,398760,19420
1098.14,1.302491,400987,19982
1101.79,1.320892,403477,19272
1105.43,1.318237,406116,19517
1109.06,1.309812,407701,19977
1112.7,1.305845,409859,20267
1117.53,1.306491,412494,20367
1121.15,1.315254,414909,20077
1124.77,1.307457,416559,20522
1128.38,1.320330,418532,20017
1131.99,1.314469,419956,20358
1135.6,1.319884,421946,20201
1139.2,1.312345,423881,20649
1143.99,1.310334,426786,20887
1147.58,1.304384,428617,21266
1151.17,1.314086,431169,20920
1154.75,1.314518,433579,21016
1158.33,1.311798,436264,21279
1161.91,1.321577,439132,20942
1165.48,1.313790,442389,21479
1169.04,1.310340,446101,21832
1173.79,1.316196,451929,21821
1177.34,1.310393,456026,22315
1180.9,1.320167,461306,22071
1184.44,1.318595,467657,22456
1187.99,1.317644,473969,22809
1191.52,1.321845,479856,22870
1195.06,1.320672,487372,23291
1199.76,1.320375,497347,23784
1203.29,1.319242,504311,24180
1206.81,1.319845,511507,24491
1210.33,1.323204,519078,24662
1213.84,1.321027,527163,25172
1217.35,1.316647,534208,25767
1220.85,1.322097,540472,25744
1225.51,1.319658,549929,26342
1229.01,1.313167,556888,27077
1232.5,1.317933,562180,27036
1235.98,1.320895,567975,27129
1239.46,1.320022,574815,27511
1242.94,1.323136,582782,27693
1246.41,1.317458,591476,28476
1251.03,1.313544,604016,29343
1254.5,1.322765,612289,29120
1257.96,1.327408,619125,29132
1261.41,1.325407,624551,29523
1264.86,1.319567,629900,30179
1268.31,1.321127,634345,30283
1271.75,1.319930,638574,30569
1276.33,1.328787,642499,30136
1279.76,1.323143,645905,30692
1283.19,1.324741,648307,30693
1286.61,1.326894,650446,30642
1290.03,1.330420,652132,30473
1293.44,1.325614,653907,30896
1296.85,1.324426,655963,31078
1301.39,1.328077,657349,30883
1304.8,1.324044,657558,31181
1308.19,1.328130,658515,30934
1311.58,1.330248,658804,30797
1314.97,1.321922,659011,31403
1318.36,1.328700,658272,30882
1321.73,1.325271,658022,31115
1326.23,1.335152,657870,30408
1329.6,1.328207,656482,30833
1332.97,1.326740,654926,30864
1336.33,1.327467,653727,30756
1339.69,1.329226,652497,30574
1343.04,1.327389,649913,30582
1346.39,1.329554,647671,30325
1349.73,1.325630,645338,30490
1354.18,1.329797,641175,30004
1357.52,1.328955,638376,29931
1360.85,1.326101,635805,30007
1364.17,1.325276,633413,29951
1367.49,1.323056,631026,29991
1370.81,1.329160,628050,29433
1374.12,1.322913,625034,29716
1378.54,1.324634,620272,29373
1381.84,1.319608,616892,29553
1385.14,1.322437,613613,29205
1388.43,1.314185,611526,29664
1391.72,1.321133,610663,29152
1395.01,1.325560,610634,28855
1398.29,1.320398,611700,29251
1402.66,1.319857,614051,29400
1405.93,1.328782,616268,28906
1409.2,1.321229,617795,29486
1412.46,1.323047,618872,29414
1415.72,1.328027,619795,29122
1418.98,1.325145,620495,29349
1422.23,1.327398,621087,29225
1426.56,1.325953,621375,29336
1429.8,1.324983,621616,29413
1433.04,1.330794,622129,29046
1436.27,1.331391,621526,28978
1439.5,1.324690,621113,29409
1442.72,1.333101,620921,28836
1445.94,1.329794,620270,29026
1450.23,1.331914,618860,28819
1453.44,1.331911,617697,28765
1456.64,1.331386,616264,28733
1459.85,1.332170,614413,28595
1463.04,1.331957,612307,28511
1466.24,1.326518,610032,28763
1469.43,1.335967,607345,28020
1473.67,1.326178,603789,28491
1476.85,1.328967,601175,28186
1480.02,1.329213,597737,28009
1483.19,1.331876,594479,27686
1486.36,1.326714,591232,27864
1489.52,1.326773,587853,27701
1492.68,1.332294,583875,27166
1496.89,1.332287,578062,26896
1500.03,1.332749,574159,26686
1503.18,1.329304,570285,26717
1506.32,1.331131,565444,26379
1509.45,1.331757,560571,26114
1512.58,1.325756,555821,26253
1515.71,1.334111,550344,25499
1519.87,1.338097,543983,24974
1522.99,1.335286,538764,24895
1526.1,1.331737,533692,24863
1529.21,1.333618,527902,24487
1532.32,1.324580,521886,24717
1535.42,1.333304,515888,23947
1538.51,1.329470,509987,23883
1541.6,1.329961,503936,23573
1545.72,1.330800,494694,23096
1548.8,1.334763,488378,22594
1551.88,1.327061,481832,22690
1554.95,1.335071,474989,21959
1558.02,1.339988,467818,21384
1561.08,1.322527,460730,21924
1564.15,1.327251,454170,21378
1568.22,1.335573,444181,20511
1571.27,1.329438,436947,20464
1574.32,1.338993,429598,19682
1577.36,1.331659,422039,19665
1580.4,1.323016,414375,19696
1583.43,1.325355,406354,19211
1586.46,1.331145,398475,18589
1590.49,1.326886,388982,18325
1593.51,1.331369,380708,17751
1596.53,1.324868,372727,17641
1599.54,1.330283,365060,17064
1602.55,1.323723,357543,16967
1605.55,1.317073,349495,16841
1608.55,1.319672,341154,16341
1612.54,1.328076,330877,15545
1615.53,1.319359,322904,15478
1618.51,1.318259,315116,15143
1621.49,1.325628,307217,14515
1624.47,1.314163,299481,14528
1627.44,1.310456,292112,14292
1630.41,1.324971,284245,13450
1634.36,1.310674,274079,13403
1637.32,1.316223,266916,12887
1640.27,1.313920,259612,12601
1643.22,1.296576,251804,12720
1646.16,1.307671,244348,12032
1649.1,1.307170,236703,11669
1652.04,1.303954,228171,11332
1655.95,1.293055,215408,10970
1658.88,1.288697,204937,10542
1661.8,1.286185,193395,10006
1664.72,1.289461,179728,9229
1667.63,1.251952,163642,9161
1670.54,1.230883,146312,8598
1673.44,1.207388,128451,7968
1677.31,1.178911,105080,6960
1680.21,1.159703,88906,6155
1683.1,1.136234,75033,5483
1685.99,1.185176,63520,4147
1688.87,1.143613,53714,3859
1691.75,1.114534,45653,3507
1694.62,1.111002,39137,3031
1697.49,1.127898,33776,2516
1701.31,1.113004,28175,2172