Folder: textile_sorting_NIRSCAN_/ML/samples/unknown (part 78)

File: Column 1_078544_20241121_170754.csv
Method:,Column 1,,
Host Date-Time:,21/11/24 @ 17:7:54,,
Header Version:,1,,
System Temp (C):,36.04,,
Detector Temp (C):,34.31,,
Humidity (%):,1.57,,
Lamp PD:,3799,,
Shift Vector Coefficients:,-10.5391,0.0761263,-0.000134223,,
Pixel to Wavelength Coefficients:,1775.68,-0.916766,-0.000235065,,
Serial Number:,5510004,,
Scan Config Name:,Column 1,,
Scan Config Type:,Slew,,
Section 1,,
Start wavelength (nm):,900,,
End wavelength (nm):,1700,,
Pattern Pixel Width (nm):,   7.03,,,,
Exposure (ms):,  0.635,,,,
Digital Resolution:,228,,
Num Repeats:,6,,
PGA Gain:,64,,
Total Measurement Time in sec:,  2.726,,
Wavelength (nm),Absorbance (AU),Reference Signal (unitless),Sample Signal (unitless)
901.51,1.305557,108485,5368
905.376,1.301410,121306,6060
909.237,1.298564,131909,6633
913.095,1.301937,143299,7150
916.948,1.290216,156982,8047
922.079,1.317904,179937,8654
925.923,1.305174,200504,9930
929.762,1.335269,222660,10289
933.597,1.323989,244426,11592
937.427,1.320705,263972,12614
941.254,1.312498,281845,13725
945.076,1.306160,297271,14689
950.165,1.306939,315605,15567
953.978,1.308466,328029,16123
957.786,1.303371,340470,16932
961.59,1.309038,352317,17294
965.389,1.305595,363056,17963
969.185,1.313763,373162,18119
972.976,1.301657,382632,19104
976.763,1.298244,391202,19686
981.806,1.300282,400190,20044
985.583,1.302217,406088,20249
989.355,1.303900,410162,20373
993.124,1.300219,412868,20682
996.888,1.298608,414263,20829
1000.65,1.306136,415476,20531
1004.4,1.294349,415479,21096
1009.41,1.299250,414358,20803
1013.15,1.309616,412923,20242
1016.89,1.307394,411526,20277
1020.63,1.293918,409066,20791
1024.36,1.297751,406777,20493
1028.09,1.302975,404427,20131
1031.82,1.297212,401911,20273
1036.78,1.303599,398410,19803
1040.49,1.301846,396204,19773
1044.2,1.306859,394236,19449
1047.91,1.307393,392042,19317
1051.61,1.300276,389823,19525
1055.31,1.307469,388234,19126
1059,1.302960,387599,19294
1063.92,1.309614,386688,18956
1067.61,1.307479,386598,19045
1071.29,1.304833,387377,19200
1074.96,1.300155,388536,19466
1078.63,1.308100,389855,19178
1082.3,1.304547,391215,19403
1085.96,1.303417,393215,19553
1090.84,1.307667,396270,19513
1094.49,1.313918,398760,19355
1098.14,1.304146,400987,19906
1101.79,1.308912,403477,19811
1105.43,1.313743,406116,19720
1109.06,1.312450,407701,19856
1112.7,1.309849,409859,20081
1117.53,1.308307,412494,20282
1121.15,1.316164,414909,20035
1124.77,1.324307,416559,19741
1128.38,1.312418,418532,20385
1131.99,1.318175,419956,20185
1135.6,1.313948,421946,20479
1139.2,1.312135,423881,20659
1143.99,1.314576,426786,20684
1147.58,1.307519,428617,21113
1151.17,1.314564,431169,20897
1154.75,1.311224,433579,21176
1158.33,1.307311,436264,21500
1161.91,1.302488,439132,21883
1165.48,1.316976,442389,21322
1169.04,1.315080,446101,21595
1173.79,1.313319,451929,21966
1177.34,1.303423,456026,22676
1180.9,1.310304,461306,22578
1184.44,1.313710,467657,22710
1187.99,1.318711,473969,22753
1191.52,1.312805,479856,23351
1195.06,1.321195,487372,23263
1199.76,1.318825,497347,23869
1203.29,1.313603,504311,24496
1206.81,1.312687,511507,24898
1210.33,1.320798,519078,24799
1213.84,1.321545,527163,25142
1217.35,1.311719,534208,26061
1220.85,1.314107,540472,26222
1225.51,1.315294,549929,26608
1229.01,1.320217,556888,26641
1232.5,1.318045,562180,27029
1235.98,1.319952,567975,27188
1239.46,1.314843,574815,27841
1242.94,1.312065,582782,28408
1246.41,1.314934,591476,28642
1251.03,1.315249,604016,29228
1254.5,1.323885,612289,29045
1257.96,1.326559,619125,29189
1261.41,1.321512,624551,29789
1264.86,1.324880,629900,29812
1268.31,1.320697,634345,30313
1271.75,1.323826,638574,30296
1276.33,1.315979,642499,31038
1279.76,1.319199,645905,30972
1283.19,1.326230,648307,30588
1286.61,1.320926,650446,31066
1290.03,1.324883,652132,30864
1293.44,1.326557,653907,30829
1296.85,1.322099,655963,31245
1301.39,1.330997,657349,30676
1304.8,1.325439,657558,31081
1308.19,1.323827,658515,31242
1311.58,1.330544,658804,30776
1314.97,1.326328,659011,31086
1318.36,1.325757,658272,31092
1321.73,1.325690,658022,31085
1326.23,1.328392,657870,30885
1329.6,1.325693,656482,31012
1332.97,1.326023,654926,30915
1336.33,1.322860,653727,31084
1339.69,1.326028,652497,30800
1343.04,1.325321,649913,30728
1346.39,1.321677,647671,30880
1349.73,1.324648,645338,30559
1354.18,1.320220,641175,30673
1357.52,1.323018,638376,30343
1360.85,1.319836,635805,30443
1364.17,1.324276,633413,30020
1367.49,1.327115,631026,29712
1370.81,1.328334,628050,29489
1374.12,1.324905,625034,29580
1378.54,1.320777,620272,29635
1381.84,1.323965,616892,29258
1385.14,1.318942,613613,29441
1388.43,1.317536,611526,29436
1391.72,1.321089,610663,29155
1395.01,1.325906,610634,28832
1398.29,1.322392,611700,29117
1402.66,1.327983,614051,28855
1405.93,1.327117,616268,29017
1409.2,1.323917,617795,29304
1412.46,1.323726,618872,29368
1415.72,1.319755,619795,29682
1418.98,1.323476,620495,29462
1422.23,1.328276,621087,29166
1426.56,1.332681,621375,28885
1429.8,1.324599,621616,29439
1433.04,1.324014,622129,29503
1436.27,1.327541,621526,29236
1439.5,1.326926,621113,29258
1442.72,1.329576,620921,29071
1445.94,1.329405,620270,29052
1450.23,1.331010,618860,28879
1453.44,1.328587,617697,28986
1456.64,1.330616,616264,28784
1459.85,1.334653,614413,28432
1463.04,1.328588,612307,28733
1466.24,1.329503,610032,28566
1469.43,1.329613,607345,28433
1473.67,1.326879,603789,28445
1476.85,1.335879,601175,27741
1480.02,1.333028,597737,27764
1483.19,1.335499,594479,27456
1486.36,1.331699,591232,27546
1489.52,1.329510,587853,27527
1492.68,1.335391,583875,26973
1496.89,1.329711,578062,27056
1500.03,1.332716,574159,26688
1503.18,1.333814,570285,26441
1506.32,1.328063,565444,26566
1509.45,1.331358,560571,26138
1512.58,1.328062,555821,26114
1515.71,1.331073,550344,25678
1519.87,1.324454,543983,25771
1522.99,1.326770,538764,25388
1526.1,1.329194,533692,25009
1529.21,1.331177,527902,24625
1532.32,1.332059,521886,24295
1535.42,1.331260,515888,24060
1538.51,1.332316,509987,23727
1541.6,1.325780,503936,23801
1545.72,1.328119,494694,23239
1548.8,1.327841,488378,22957
1551.88,1.327674,481832,22658
1554.95,1.327173,474989,22362
1558.02,1.326570,467818,22055
1561.08,1.326787,460730,21710
1564.15,1.321360,454170,21670
1568.22,1.325837,444181,20976
1571.27,1.335486,436947,20181
1574.32,1.329996,429598,20094
1577.36,1.321099,422039,20149
1580.4,1.328809,414375,19435
1583.43,1.317225,406354,19574
1586.46,1.331239,398475,18585
1590.49,1.326791,388982,18329
1593.51,1.322554,380708,18115
1596.53,1.318077,372727,17919
1599.54,1.308203,365060,17954
1602.55,1.325185,357543,16910
1605.55,1.327433,349495,16444
1608.55,1.329211,341154,15986
1612.54,1.320625,330877,15814
1615.53,1.314282,322904,15660
1618.51,1.314774,315116,15265
1621.49,1.308037,307217,15115
1624.47,1.303212,299481,14899
1627.44,1.296581,292112,14756
1630.41,1.324616,284245,13461
1634.36,1.318851,274079,13153
1637.32,1.304388,266916,13243
1640.27,1.319574,259612,12438
1643.22,1.305092,251804,12473
1646.16,1.315649,244348,11813
1649.1,1.310645,236703,11576
1652.04,1.292233,228171,11642
1655.95,1.288604,215408,11083
1658.88,1.288450,204937,10548
1661.8,1.277845,193395,10200
1664.72,1.279874,179728,9435
1667.63,1.261684,163642,8958
1670.54,1.260835,146312,8025
1673.44,1.216198,128451,7808
1677.31,1.201450,105080,6608
1680.21,1.151664,88906,6270
1683.1,1.140692,75033,5427
1685.99,1.110064,63520,4930
1688.87,1.123706,53714,4040
1691.75,1.153506,45653,3206
1694.62,1.174784,39137,2617
1697.49,1.138734,33776,2454
1701.31,1.117830,28175,2148

File: Column 1_078547_20241121_170803.csv
Method:,Column 1,,
Host Date-Time:,21/11/24 @ 17:8:3,,
Header Version:,1,,
System Temp (C):,35.93,,
Detector Temp (C):,34.37,,
Humidity (%):,1.52,,
Lamp PD:,3800,,
Shift Vector Coefficients:,-10.5391,0.0761263,-0.000134223,,
Pixel to Wavelength Coefficients:,1775.68,-0.916766,-0.000235065,,
Serial Number:,5510004,,
Scan Config Name:,Column 1,,
Scan Config Type:,Slew,,
Section 1,,
Start wavelength (nm):,900,,
End wavelength (nm):,1700,,
Pattern Pixel Width (nm):,   7.03,,,,
Exposure (ms):,  0.635,,,,
Digital Resolution:,228,,
Num Repeats:,6,,
PGA Gain:,64,,
Total Measurement Time in sec:,  2.724,,
Wavelength (nm),Absorbance (AU),Reference Signal (unitless),Sample Signal (unitless)
901.51,1.304426,108485,5382
905.376,1.320305,121306,5802
909.237,1.305361,131909,6530
913.095,1.329521,143299,6710
916.948,1.312302,156982,7648
922.079,1.321633,179937,8580
925.923,1.341414,200504,9135
929.762,1.317974,222660,10707
933.597,1.335607,244426,11286
937.427,1.323607,263972,12530
941.254,1.325213,281845,13329
945.076,1.318424,297271,14280
950.165,1.310609,315605,15436
953.978,1.313288,328029,15945
957.786,1.298068,340470,17140
961.59,1.312695,352317,17149
965.389,1.308481,363056,17844
969.185,1.293533,373162,18983
972.976,1.303639,382632,19017
976.763,1.304487,391202,19405
981.806,1.304637,400190,19844
985.583,1.301788,406088,20269
989.355,1.309133,410162,20129
993.124,1.309322,412868,20253
996.888,1.307944,414263,20386
1000.65,1.304784,415476,20595
1004.4,1.306435,415479,20517
1009.41,1.302140,414358,20665
1013.15,1.306409,412923,20392
1016.89,1.300762,411526,20589
1020.63,1.307389,409066,20156
1024.36,1.317344,406777,19589
1028.09,1.302177,404427,20168
1031.82,1.305495,401911,19890
1036.78,1.308074,398410,19600
1040.49,1.297911,396204,19953
1044.2,1.313202,394236,19167
1047.91,1.308428,392042,19271
1051.61,1.309857,389823,19099
1055.31,1.309085,388234,19055
1059,1.312289,387599,18884
1063.92,1.304173,386688,19195
1067.61,1.317443,386598,18613
1071.29,1.313353,387377,18827
1074.96,1.311249,388536,18975
1078.63,1.310325,389855,19080
1082.3,1.310201,391215,19152
1085.96,1.309163,393215,19296
1090.84,1.316753,396270,19109
1094.49,1.313335,398760,19381
1098.14,1.310122,400987,19634
1101.79,1.312766,403477,19636
1105.43,1.308642,406116,19953
1109.06,1.309290,407701,20001
1112.7,1.320135,409859,19611
1117.53,1.313325,412494,20049
1121.15,1.316641,414909,20013
1124.77,1.315272,416559,20156
1128.38,1.317217,418532,20161
1131.99,1.311365,419956,20504
1135.6,1.313927,421946,20480
1139.2,1.312724,423881,20631
1143.99,1.317694,426786,20536
1147.58,1.314570,428617,20773
1151.17,1.316730,431169,20793
1154.75,1.317109,433579,20891
1158.33,1.316209,436264,21064
1161.91,1.315236,439132,21250
1165.48,1.319714,442389,21188
1169.04,1.319263,446101,21388
1173.79,1.319312,451929,21665
1177.34,1.314991,456026,22080
1180.9,1.306950,461306,22753
1184.44,1.314342,467657,22677
1187.99,1.315384,473969,22928
1191.52,1.317499,479856,23100
1195.06,1.309772,487372,23883
1199.76,1.311286,497347,24287
1203.29,1.312170,504311,24577
1206.81,1.316929,511507,24656
1210.33,1.317936,519078,24963
1213.84,1.319374,527163,25268
1217.35,1.319148,534208,25619
1220.85,1.318736,540472,25944
1225.51,1.321128,549929,26253
1229.01,1.314034,556888,27023
1232.5,1.320123,562180,26900
1235.98,1.324965,567975,26876
1239.46,1.320875,574815,27457
1242.94,1.321758,582782,27781
1246.41,1.322335,591476,28158
1251.03,1.319715,604016,28929
1254.5,1.325938,612289,28908
1257.96,1.328737,619125,29043
1261.41,1.326394,624551,29456
1264.86,1.321283,629900,30060
1268.31,1.324915,634345,30020
1271.75,1.326731,638574,30094
1276.33,1.322321,642499,30588
1279.76,1.327452,645905,30389
1283.19,1.325988,648307,30605
1286.61,1.324505,650446,30811
1290.03,1.320933,652132,31146
1293.44,1.325094,653907,30933
1296.85,1.325154,655963,31026
1301.39,1.332373,657349,30579
1304.8,1.325914,657558,31047
1308.19,1.325052,658515,31154
1311.58,1.325786,658804,31115
1314.97,1.328836,659011,30907
1318.36,1.331437,658272,30688
1321.73,1.325913,658022,31069
1326.23,1.334282,657870,30469
1329.6,1.322387,656482,31249
1332.97,1.322065,654926,31198
1336.33,1.329008,653727,30647
1339.69,1.326070,652497,30797
1343.04,1.324954,649913,30754
1346.39,1.326073,647671,30569
1349.73,1.320026,645338,30886
1354.18,1.322079,641175,30542
1357.52,1.323634,638376,30300
1360.85,1.328409,635805,29848
1364.17,1.328477,633413,29731
1367.49,1.324725,631026,29876
1370.81,1.325984,628050,29649
1374.12,1.324803,625034,29587
1378.54,1.329675,620272,29034
1381.84,1.323060,616892,29319
1385.14,1.325811,613613,28979
1388.43,1.324556,611526,28964
1391.72,1.320062,610663,29224
1395.01,1.324703,610634,28912
1398.29,1.326107,611700,28869
1402.66,1.324311,614051,29100
1405.93,1.327192,616268,29012
1409.2,1.325432,617795,29202
1412.46,1.334188,618872,28669
1415.72,1.332358,619795,28833
1418.98,1.326138,620495,29282
1422.23,1.330141,621087,29041
1426.56,1.325923,621375,29338
1429.8,1.329958,621616,29078
1433.04,1.333960,622129,28835
1436.27,1.330927,621526,29009
1439.5,1.328621,621113,29144
1442.72,1.332048,620921,28906
1445.94,1.327808,620270,29159
1450.23,1.328073,618860,29075
1453.44,1.332440,617697,28730
1456.64,1.328223,616264,28943
1459.85,1.334638,614413,28433
1463.04,1.338340,612307,28095
1466.24,1.332769,610032,28352
1469.43,1.323636,607345,28827
1473.67,1.333944,603789,27986
1476.85,1.337479,601175,27639
1480.02,1.334627,597737,27662
1483.19,1.334756,594479,27503
1486.36,1.333960,591232,27403
1489.52,1.330853,587853,27442
1492.68,1.334795,583875,27010
1496.89,1.339959,578062,26425
1500.03,1.331092,574159,26788
1503.18,1.332142,570285,26543
1506.32,1.335466,565444,26117
1509.45,1.336876,560571,25808
1512.58,1.340324,555821,25387
1515.71,1.352054,550344,24467
1519.87,1.325973,543983,25681
1522.99,1.336055,538764,24851
1526.1,1.335192,533692,24666
1529.21,1.332325,527902,24560
1532.32,1.339287,521886,23894
1535.42,1.333685,515888,23926
1538.51,1.337564,509987,23442
1541.6,1.337824,503936,23150
1545.72,1.332684,494694,22996
1548.8,1.333247,488378,22673
1551.88,1.336777,481832,22188
1554.95,1.334221,474989,22002
1558.02,1.328821,467818,21941
1561.08,1.338013,460730,21156
1564.15,1.324538,454170,21512
1568.22,1.331674,444181,20696
1571.27,1.334283,436947,20237
1574.32,1.331750,429598,20013
1577.36,1.329698,422039,19754
1580.4,1.331027,414375,19336
1583.43,1.331525,406354,18940
1586.46,1.323847,398475,18904
1590.49,1.322218,388982,18523
1593.51,1.323273,380708,18085
1596.53,1.320873,372727,17804
1599.54,1.330080,365060,17072
1602.55,1.330716,357543,16696
1605.55,1.327592,349495,16438
1608.55,1.317604,341154,16419
1612.54,1.315628,330877,15997
1615.53,1.326830,322904,15214
1618.51,1.307103,315116,15537
1621.49,1.332717,307217,14280
1624.47,1.315271,299481,14491
1627.44,1.308758,292112,14348
1630.41,1.327074,284245,13385
1634.36,1.329209,274079,12843
1637.32,1.311830,266916,13018
1640.27,1.315923,259612,12543
1643.22,1.309959,251804,12334
1646.16,1.311587,244348,11924
1649.1,1.317756,236703,11388
1652.04,1.317026,228171,10996
1655.95,1.300160,215408,10792
1658.88,1.292754,204937,10444
1661.8,1.290678,193395,9903
1664.72,1.270764,179728,9635
1667.63,1.254806,163642,9101
1670.54,1.236423,146312,8489
1673.44,1.227068,128451,7615
1677.31,1.202108,105080,6598
1680.21,1.206992,88906,5520
1683.1,1.184259,75033,4909
1685.99,1.134338,63520,4662
1688.87,1.152596,53714,3780
1691.75,1.134684,45653,3348
1694.62,1.151678,39137,2760
1697.49,1.247120,33776,1912
1701.31,1.230279,28175,1658

File: Column 1_078548_20241121_170806.csv
Method:,Column 1,,
Host Date-Time:,21/11/24 @ 17:8:6,,
Header Version:,1,,
System Temp (C):,35.72,,
Detector Temp (C):,34.37,,
Humidity (%):,1.42,,
Lamp PD:,3800,,
Shift Vector Coefficients:,-10.5391,0.0761263,-0.000134223,,
Pixel to Wavelength Coefficients:,1775.68,-0.916766,-0.000235065,,
Serial Number:,5510004,,
Scan Config Name:,Column 1,,
Scan Config Type:,Slew,,
Section 1,,
Start wavelength (nm):,900,,
End wavelength (nm):,1700,,
Pattern Pixel Width (nm):,   7.03,,,,
Exposure (ms):,  0.635,,,,
Digital Resolution:,228,,
Num Repeats:,6,,
PGA Gain:,64,,
Total Measurement Time in sec:,  2.727,,
Wavelength (nm),Absorbance (AU),Reference Signal (unitless),Sample Signal (unitless)
901.51,1.307178,108485,5348
905.376,1.318735,121306,5823
909.237,1.317501,131909,6350
913.095,1.317457,143299,6899
916.948,1.338759,156982,7196
922.079,1.330789,179937,8401
925.923,1.305261,200504,9928
929.762,1.308307,222660,10948
933.597,1.332349,244426,11371
937.427,1.311170,263972,12894
941.254,1.317879,281845,13556
945.076,1.312744,297271,14468
950.165,1.313800,315605,15323
953.978,1.307820,328029,16147
957.786,1.308843,340470,16720
961.59,1.309566,352317,17273
965.389,1.312614,363056,17675
969.185,1.310278,373162,18265
972.976,1.306228,382632,18904
976.763,1.307226,391202,19283
981.806,1.315047,400190,19374
985.583,1.310466,406088,19868
989.355,1.301307,410162,20495
993.124,1.309966,412868,20223
996.888,1.308797,414263,20346
1000.65,1.300921,415476,20779
1004.4,1.303335,415479,20664
1009.41,1.309281,414358,20328
1013.15,1.302825,412923,20561
1016.89,1.298742,411526,20685
1020.63,1.301993,409066,20408
1024.36,1.311990,406777,19832
1028.09,1.299515,404427,20292
1031.82,1.310171,401911,19677
1036.78,1.300779,398410,19932
1040.49,1.305641,396204,19601
1044.2,1.307373,394236,19426
1047.91,1.312095,392042,19109
1051.61,1.310335,389823,19078
1055.31,1.293197,388234,19765
1059,1.309195,387599,19019
1063.92,1.306782,386688,19080
1067.61,1.300601,386598,19349
1071.29,1.308809,387377,19025
1074.96,1.304955,388536,19252
1078.63,1.309847,389855,19101
1082.3,1.306611,391215,19311
1085.96,1.309028,393215,19302
1090.84,1.306090,396270,19584
1094.49,1.308145,398760,19614
1098.14,1.309900,400987,19644
1101.79,1.316274,403477,19478
1105.43,1.312007,406116,19799
1109.06,1.313984,407701,19786
1112.7,1.314174,409859,19882
1117.53,1.311962,412494,20112
1121.15,1.311957,414909,20230
1124.77,1.306294,416559,20577
1128.38,1.318144,418532,20118
1131.99,1.319835,419956,20108
1135.6,1.311242,421946,20607
1139.2,1.319171,423881,20327
1143.99,1.316891,426786,20574
1147.58,1.311217,428617,20934
1151.17,1.312056,431169,21018
1154.75,1.313734,433579,21054
1158.33,1.324577,436264,20662
1161.91,1.317942,439132,21118
1165.48,1.318078,442389,21268
1169.04,1.317702,446101,21465
1173.79,1.315500,451929,21856
1177.34,1.310354,456026,22317
1180.9,1.315470,461306,22311
1184.44,1.321019,467657,22331
1187.99,1.320548,473969,22657
1191.52,1.319799,479856,22978
1195.06,1.316294,487372,23527
1199.76,1.318025,497347,23913
1203.29,1.312629,504311,24551
1206.81,1.314645,511507,24786
1210.33,1.309852,519078,25432
1213.84,1.321960,527163,25118
1217.35,1.316950,534208,25749
1220.85,1.319826,540472,25879
1225.51,1.314626,549929,26649
1229.01,1.321425,556888,26567
1232.5,1.321870,562180,26792
1235.98,1.312195,567975,27678
1239.46,1.322587,574815,27349
1242.94,1.314073,582782,28277
1246.41,1.325089,591476,27980
1251.03,1.316991,604016,29111
1254.5,1.325728,612289,28922
1257.96,1.324437,619125,29332
1261.41,1.320493,624551,29859
1264.86,1.323484,629900,29908
1268.31,1.324149,634345,30073
1271.75,1.327280,638574,30056
1276.33,1.318843,642499,30834
1279.76,1.321364,645905,30818
1283.19,1.327438,648307,30503
1286.61,1.325056,650446,30772
1290.03,1.331205,652132,30418
1293.44,1.326754,653907,30815
1296.85,1.323547,655963,31141
1301.39,1.328935,657349,30822
1304.8,1.324978,657558,31114
1308.19,1.331046,658515,30727
1311.58,1.326331,658804,31076
1314.97,1.325560,659011,31141
1318.36,1.328742,658272,30879
1321.73,1.330961,658022,30710
1326.23,1.328829,657870,30854
1329.6,1.332553,656482,30526
1332.97,1.328051,654926,30771
1336.33,1.327636,653727,30744
1339.69,1.318909,652497,31309
1343.04,1.330539,649913,30361
1346.39,1.329854,647671,30304
1349.73,1.328244,645338,30307
1354.18,1.322108,641175,30540
1357.52,1.325400,638376,30177
1360.85,1.326695,635805,29966
1364.17,1.320359,633413,30292
1367.49,1.331036,631026,29445
1370.81,1.320309,628050,30039
1374.12,1.325537,625034,29537
1378.54,1.318264,620272,29807
1381.84,1.318126,616892,29654
1385.14,1.325467,613613,29002
1388.43,1.323239,611526,29052
1391.72,1.324153,610663,28950
1395.01,1.322441,610634,29063
1398.29,1.322452,611700,29113
1402.66,1.330292,614051,28702
1405.93,1.329142,616268,28882
1409.2,1.329706,617795,28916
1412.46,1.324333,618872,29327
1415.72,1.333988,619795,28725
1418.98,1.328621,620495,29115
1422.23,1.333383,621087,28825
1426.56,1.327763,621375,29214
1429.8,1.325855,621616,29354
1433.04,1.330435,622129,29070
1436.27,1.328404,621526,29178
1439.5,1.327803,621113,29199
1442.72,1.329412,620921,29082
1445.94,1.331743,620270,28896
1450.23,1.328431,618860,29051
1453.44,1.334637,617697,28585
1456.64,1.330933,616264,28763
1459.85,1.331760,614413,28622
1463.04,1.332109,612307,28501
1466.24,1.329883,610032,28541
1469.43,1.329262,607345,28456
1473.67,1.332612,603789,28072
1476.85,1.335144,601175,27788
1480.02,1.331919,597737,27835
1483.19,1.329951,594479,27809
1486.36,1.334499,591232,27369
1489.52,1.335259,587853,27165
1492.68,1.331097,583875,27241
1496.89,1.334229,578062,26776
1500.03,1.329732,574159,26872
1503.18,1.334159,570285,26420
1506.32,1.333343,565444,26245
1509.45,1.328906,560571,26286
1512.58,1.337136,555821,25574
1515.71,1.331428,550344,25657
1519.87,1.326921,543983,25625
1522.99,1.331742,538764,25099
1526.1,1.332296,533692,24831
1529.21,1.341800,527902,24030
1532.32,1.330827,521886,24364
1535.42,1.324916,515888,24414
1538.51,1.326552,509987,24044
1541.6,1.327792,503936,23691
1545.72,1.326943,494694,23302
1548.8,1.337675,488378,22443
1551.88,1.335019,481832,22278
1554.95,1.328106,474989,22314
1558.02,1.331899,467818,21786
1561.08,1.330665,460730,21517
1564.15,1.329757,454170,21255
1568.22,1.335615,444181,20509
1571.27,1.327532,436947,20554
1574.32,1.322921,429598,20424
1577.36,1.330049,422039,19738
1580.4,1.324164,414375,19644
1583.43,1.335903,406354,18750
1586.46,1.331122,398475,18590
1590.49,1.334271,388982,18016
1593.51,1.326963,380708,17932
1596.53,1.333998,372727,17274
1599.54,1.335275,365060,16869
1602.55,1.322190,357543,17027
1605.55,1.329950,349495,16349
1608.55,1.330489,341154,15939
1612.54,1.329279,330877,15502
1615.53,1.311793,322904,15750
1618.51,1.330445,315116,14724
1621.49,1.327337,307217,14458
1624.47,1.307018,299481,14769
1627.44,1.322253,292112,13909
1630.41,1.323777,284245,13487
1634.36,1.318257,274079,13171
1637.32,1.315953,266916,12895
1640.27,1.312269,259612,12649
1643.22,1.299522,251804,12634
1646.16,1.309624,244348,11978
1649.1,1.297855,236703,11922
1652.04,1.314309,228171,11065
1655.95,1.294483,215408,10934
1658.88,1.284720,204937,10639
1661.8,1.300346,193395,9685
1664.72,1.263744,179728,9792
1667.63,1.255426,163642,9088
1670.54,1.228515,146312,8645
1673.44,1.214532,128451,7838
1677.31,1.186337,105080,6842
1680.21,1.196345,88906,5657
1683.1,1.164966,75033,5132
1685.99,1.163524,63520,4359
1688.87,1.179859,53714,3550
1691.75,1.205845,45653,2842
1694.62,1.199363,39137,2473
1697.49,1.157171,33776,2352
1701.31,1.183397,28175,1847