Folder: textile_sorting_NIRSCAN_/ML/samples/unknown (part 47)

File: Column 1_078298_20241121_165512.csv
Method:,Column 1,,
Host Date-Time:,21/11/24 @ 16:55:12,,
Header Version:,1,,
System Temp (C):,34.44,,
Detector Temp (C):,32.51,,
Humidity (%):,2.15,,
Lamp PD:,3802,,
Shift Vector Coefficients:,-10.5391,0.0761263,-0.000134223,,
Pixel to Wavelength Coefficients:,1775.68,-0.916766,-0.000235065,,
Serial Number:,5510004,,
Scan Config Name:,Column 1,,
Scan Config Type:,Slew,,
Section 1,,
Start wavelength (nm):,900,,
End wavelength (nm):,1700,,
Pattern Pixel Width (nm):,   7.03,,,,
Exposure (ms):,  0.635,,,,
Digital Resolution:,228,,
Num Repeats:,6,,
PGA Gain:,64,,
Total Measurement Time in sec:,  2.676,,
Wavelength (nm),Absorbance (AU),Reference Signal (unitless),Sample Signal (unitless)
901.51,1.343228,108485,4922
905.376,1.349563,121306,5424
909.237,1.324812,131909,6244
913.095,1.305230,143299,7096
916.948,1.323169,156982,7459
922.079,1.331359,179937,8390
925.923,1.338099,200504,9205
929.762,1.327074,222660,10485
933.597,1.318368,244426,11743
937.427,1.317071,263972,12720
941.254,1.318777,281845,13528
945.076,1.327490,297271,13985
950.165,1.323487,315605,14985
953.978,1.317530,328029,15790
957.786,1.316309,340470,16435
961.59,1.318610,352317,16917
965.389,1.315919,363056,17541
969.185,1.311158,373162,18228
972.976,1.316173,382632,18476
976.763,1.311868,391202,19078
981.806,1.307293,400190,19723
985.583,1.309745,406088,19901
989.355,1.305695,410162,20289
993.124,1.311472,412868,20153
996.888,1.311173,414263,20235
1000.65,1.317255,415476,20012
1004.4,1.308706,415479,20410
1009.41,1.308854,414358,20348
1013.15,1.319599,412923,19782
1016.89,1.309089,411526,20198
1020.63,1.309073,409066,20078
1024.36,1.315067,406777,19692
1028.09,1.318032,404427,19445
1031.82,1.311143,401911,19633
1036.78,1.309317,398410,19544
1040.49,1.313330,396204,19257
1044.2,1.310739,394236,19276
1047.91,1.308812,392042,19254
1051.61,1.319746,389823,18669
1055.31,1.324252,388234,18401
1059,1.310430,387599,18965
1063.92,1.310233,386688,18929
1067.61,1.307205,386598,19057
1071.29,1.315387,387377,18739
1074.96,1.314281,388536,18843
1078.63,1.315177,389855,18868
1082.3,1.318974,391215,18769
1085.96,1.312597,393215,19144
1090.84,1.317140,396270,19092
1094.49,1.317614,398760,19191
1098.14,1.324560,400987,18992
1101.79,1.315784,403477,19500
1105.43,1.312819,406116,19762
1109.06,1.319284,407701,19546
1112.7,1.320556,409859,19592
1117.53,1.313845,412494,20025
1121.15,1.321068,414909,19810
1124.77,1.325762,416559,19675
1128.38,1.318705,418532,20092
1131.99,1.322217,419956,19998
1135.6,1.319433,421946,20222
1139.2,1.325780,423881,20020
1143.99,1.325483,426786,20171
1147.58,1.326417,428617,20214
1151.17,1.329942,431169,20170
1154.75,1.319485,433579,20777
1158.33,1.319977,436264,20882
1161.91,1.324031,439132,20824
1165.48,1.321481,442389,21102
1169.04,1.323979,446101,21157
1173.79,1.321180,451929,21572
1177.34,1.322290,456026,21712
1180.9,1.329113,461306,21621
1184.44,1.317301,467657,22523
1187.99,1.323799,473969,22488
1191.52,1.323005,479856,22809
1195.06,1.327438,487372,22931
1199.76,1.321252,497347,23736
1203.29,1.319602,504311,24160
1206.81,1.323281,511507,24298
1210.33,1.322588,519078,24697
1213.84,1.327318,527163,24810
1217.35,1.322672,534208,25412
1220.85,1.351514,540472,24058
1225.51,1.318917,549929,26387
1229.01,1.326010,556888,26288
1232.5,1.331574,562180,26200
1235.98,1.321088,567975,27117
1239.46,1.324576,574815,27224
1242.94,1.326173,582782,27500
1246.41,1.326769,591476,27872
1251.03,1.327073,604016,28443
1254.5,1.326419,612289,28876
1257.96,1.325519,619125,29259
1261.41,1.331317,624551,29124
1264.86,1.325201,629900,29790
1268.31,1.333225,634345,29451
1271.75,1.333260,638574,29645
1276.33,1.332317,642499,29892
1279.76,1.332411,645905,30044
1283.19,1.330367,648307,30298
1286.61,1.335266,650446,30057
1290.03,1.336997,652132,30015
1293.44,1.333601,653907,30333
1296.85,1.333620,655963,30427
1301.39,1.330149,657349,30736
1304.8,1.330117,657558,30748
1308.19,1.329353,658515,30847
1311.58,1.330008,658804,30814
1314.97,1.334507,659011,30506
1318.36,1.332627,658272,30604
1321.73,1.334839,658022,30437
1326.23,1.333627,657870,30515
1329.6,1.335036,656482,30352
1332.97,1.337049,654926,30140
1336.33,1.331609,653727,30464
1339.69,1.330535,652497,30482
1343.04,1.332374,649913,30233
1346.39,1.333163,647671,30074
1349.73,1.334203,645338,29894
1354.18,1.331422,641175,29892
1357.52,1.338505,638376,29280
1360.85,1.332531,635805,29566
1364.17,1.334419,633413,29327
1367.49,1.327759,631026,29668
1370.81,1.328526,628050,29476
1374.12,1.333027,625034,29032
1378.54,1.327795,620272,29160
1381.84,1.331692,616892,28742
1385.14,1.328457,613613,28803
1388.43,1.335981,611526,28212
1391.72,1.333049,610663,28363
1395.01,1.328474,610634,28662
1398.29,1.327659,611700,28766
1402.66,1.336464,614051,28297
1405.93,1.331736,616268,28710
1409.2,1.335558,617795,28529
1412.46,1.340290,618872,28269
1415.72,1.331260,619795,28906
1418.98,1.334493,620495,28724
1422.23,1.337516,621087,28552
1426.56,1.339409,621375,28441
1429.8,1.335202,621616,28729
1433.04,1.331033,622129,29030
1436.27,1.337154,621526,28596
1439.5,1.342337,621113,28238
1442.72,1.342649,620921,28209
1445.94,1.336108,620270,28607
1450.23,1.337602,618860,28444
1453.44,1.338805,617697,28312
1456.64,1.335898,616264,28436
1459.85,1.339337,614413,28127
1463.04,1.335060,612307,28308
1466.24,1.336152,610032,28132
1469.43,1.343834,607345,27517
1473.67,1.341853,603789,27481
1476.85,1.338045,601175,27603
1480.02,1.339712,597737,27340
1483.19,1.341328,594479,27090
1486.36,1.341296,591232,26944
1489.52,1.338791,587853,26945
1492.68,1.338104,583875,26805
1496.89,1.341326,578062,26342
1500.03,1.337280,574159,26409
1503.18,1.332944,570285,26494
1506.32,1.347265,565444,25417
1509.45,1.334343,560571,25959
1512.58,1.334377,555821,25737
1515.71,1.341774,550344,25053
1519.87,1.339473,543983,24895
1522.99,1.337192,538764,24786
1526.1,1.346483,533692,24033
1529.21,1.332767,527902,24535
1532.32,1.331934,521886,24302
1535.42,1.337148,515888,23736
1538.51,1.338585,509987,23387
1541.6,1.333178,503936,23399
1545.72,1.339921,494694,22616
1548.8,1.339071,488378,22371
1551.88,1.334454,481832,22307
1554.95,1.339704,474989,21726
1558.02,1.337841,467818,21490
1561.08,1.330160,460730,21542
1564.15,1.337883,454170,20861
1568.22,1.336188,444181,20482
1571.27,1.345302,436947,19730
1574.32,1.348767,429598,19244
1577.36,1.338245,422039,19369
1580.4,1.333844,414375,19211
1583.43,1.340397,406354,18557
1586.46,1.331332,398475,18581
1590.49,1.343825,388982,17624
1593.51,1.334217,380708,17635
1596.53,1.334652,372727,17248
1599.54,1.346119,365060,16453
1602.55,1.331914,357543,16650
1605.55,1.333256,349495,16225
1608.55,1.340049,341154,15592
1612.54,1.338452,330877,15178
1615.53,1.319246,322904,15482
1618.51,1.326978,315116,14842
1621.49,1.328450,307217,14421
1624.47,1.305257,299481,14829
1627.44,1.317410,292112,14065
1630.41,1.326037,284245,13417
1634.36,1.310123,274079,13420
1637.32,1.324902,266916,12632
1640.27,1.330070,259612,12141
1643.22,1.327161,251804,11855
1646.16,1.316606,244348,11787
1649.1,1.317642,236703,11391
1652.04,1.323592,228171,10831
1655.95,1.299557,215408,10807
1658.88,1.298867,204937,10298
1661.8,1.307580,193395,9525
1664.72,1.286133,179728,9300
1667.63,1.282081,163642,8547
1670.54,1.267103,146312,7910
1673.44,1.245891,128451,7292
1677.31,1.216836,105080,6378
1680.21,1.215573,88906,5412
1683.1,1.183022,75033,4923
1685.99,1.142614,63520,4574
1688.87,1.115507,53714,4117
1691.75,1.185690,45653,2977
1694.62,1.173458,39137,2625
1697.49,1.162372,33776,2324
1701.31,1.206082,28175,1753

File: Column 1_078299_20241121_165515.csv
Method:,Column 1,,
Host Date-Time:,21/11/24 @ 16:55:15,,
Header Version:,1,,
System Temp (C):,34.43,,
Detector Temp (C):,32.51,,
Humidity (%):,2.15,,
Lamp PD:,3802,,
Shift Vector Coefficients:,-10.5391,0.0761263,-0.000134223,,
Pixel to Wavelength Coefficients:,1775.68,-0.916766,-0.000235065,,
Serial Number:,5510004,,
Scan Config Name:,Column 1,,
Scan Config Type:,Slew,,
Section 1,,
Start wavelength (nm):,900,,
End wavelength (nm):,1700,,
Pattern Pixel Width (nm):,   7.03,,,,
Exposure (ms):,  0.635,,,,
Digital Resolution:,228,,
Num Repeats:,6,,
PGA Gain:,64,,
Total Measurement Time in sec:,  2.732,,
Wavelength (nm),Absorbance (AU),Reference Signal (unitless),Sample Signal (unitless)
901.51,1.307910,108485,5339
905.376,1.314136,121306,5885
909.237,1.339022,131909,6043
913.095,1.292920,143299,7300
916.948,1.328265,156982,7372
922.079,1.317452,179937,8663
925.923,1.307322,200504,9881
929.762,1.328651,222660,10447
933.597,1.312418,244426,11905
937.427,1.324092,263972,12516
941.254,1.318103,281845,13549
945.076,1.322243,297271,14155
950.165,1.317272,315605,15201
953.978,1.310221,328029,16058
957.786,1.310065,340470,16673
961.59,1.306160,352317,17409
965.389,1.310286,363056,17770
969.185,1.313595,373162,18126
972.976,1.308901,382632,18788
976.763,1.308377,391202,19232
981.806,1.317024,400190,19286
985.583,1.307134,406088,20021
989.355,1.320854,410162,19593
993.124,1.305564,412868,20429
996.888,1.305205,414263,20515
1000.65,1.314163,415476,20155
1004.4,1.316175,415479,20062
1009.41,1.309238,414358,20330
1013.15,1.297451,412923,20817
1016.89,1.310618,411526,20127
1020.63,1.306915,409066,20178
1024.36,1.306204,406777,20098
1028.09,1.308927,404427,19857
1031.82,1.307443,401911,19801
1036.78,1.309806,398410,19522
1040.49,1.317636,396204,19067
1044.2,1.307216,394236,19433
1047.91,1.310846,392042,19164
1051.61,1.312800,389823,18970
1055.31,1.323168,388234,18447
1059,1.310590,387599,18958
1063.92,1.314058,386688,18763
1067.61,1.316325,386598,18661
1071.29,1.300064,387377,19412
1074.96,1.317056,388536,18723
1078.63,1.321227,389855,18607
1082.3,1.307083,391215,19290
1085.96,1.315694,393215,19008
1090.84,1.316594,396270,19116
1094.49,1.323905,398760,18915
1098.14,1.322597,400987,19078
1101.79,1.320509,403477,19289
1105.43,1.316593,406116,19591
1109.06,1.312188,407701,19868
1112.7,1.321466,409859,19551
1117.53,1.322320,412494,19638
1121.15,1.316120,414909,20037
1124.77,1.321654,416559,19862
1128.38,1.322004,418532,19940
1131.99,1.323544,419956,19937
1135.6,1.319154,421946,20235
1139.2,1.313482,423881,20595
1143.99,1.316765,426786,20580
1147.58,1.323868,428617,20333
1151.17,1.320401,431169,20618
1154.75,1.318588,433579,20820
1158.33,1.319686,436264,20896
1161.91,1.312913,439132,21364
1165.48,1.318854,442389,21230
1169.04,1.314859,446101,21606
1173.79,1.319592,451929,21651
1177.34,1.317456,456026,21955
1180.9,1.318772,461306,22142
1184.44,1.316280,467657,22576
1187.99,1.319877,473969,22692
1191.52,1.316035,479856,23178
1195.06,1.319778,487372,23339
1199.76,1.325333,497347,23514
1203.29,1.323738,504311,23931
1206.81,1.322656,511507,24333
1210.33,1.316130,519078,25067
1213.84,1.321925,527163,25120
1217.35,1.321852,534208,25460
1220.85,1.317783,540472,26001
1225.51,1.324366,549929,26058
1229.01,1.325383,556888,26326
1232.5,1.325157,562180,26590
1235.98,1.318358,567975,27288
1239.46,1.328712,574815,26966
1242.94,1.320525,582782,27860
1246.41,1.322335,591476,28158
1251.03,1.325899,604016,28520
1254.5,1.334357,612289,28353
1257.96,1.323712,619125,29381
1261.41,1.329799,624551,29226
1264.86,1.327467,629900,29635
1268.31,1.326989,634345,29877
1271.75,1.326428,638574,30115
1276.33,1.326674,642499,30283
1279.76,1.332180,645905,30060
1283.19,1.327481,648307,30500
1286.61,1.332055,650446,30280
1290.03,1.330207,652132,30488
1293.44,1.331387,653907,30488
1296.85,1.334663,655963,30354
1301.39,1.331224,657349,30660
1304.8,1.334675,657558,30427
1308.19,1.335321,658515,30426
1311.58,1.338060,658804,30248
1314.97,1.333029,659011,30610
1318.36,1.329446,658272,30829
1321.73,1.333002,658022,30566
1326.23,1.331738,657870,30648
1329.6,1.335365,656482,30329
1332.97,1.333562,654926,30383
1336.33,1.333166,653727,30355
1339.69,1.332448,652497,30348
1343.04,1.329882,649913,30407
1346.39,1.331894,647671,30162
1349.73,1.332767,645338,29993
1354.18,1.333096,641175,29777
1357.52,1.331502,638376,29756
1360.85,1.331124,635805,29662
1364.17,1.328171,633413,29752
1367.49,1.330093,631026,29509
1370.81,1.332076,628050,29236
1374.12,1.332937,625034,29038
1378.54,1.331084,620272,28940
1381.84,1.327512,616892,29020
1385.14,1.324883,613613,29041
1388.43,1.331722,611526,28490
1391.72,1.331063,610663,28493
1395.01,1.326358,610634,28802
1398.29,1.328475,611700,28712
1402.66,1.330701,614051,28675
1405.93,1.335596,616268,28456
1409.2,1.333265,617795,28680
1412.46,1.333220,618872,28733
1415.72,1.336247,619795,28576
1418.98,1.333557,620495,28786
1422.23,1.336058,621087,28648
1426.56,1.330208,621375,29050
1429.8,1.332129,621616,28933
1433.04,1.335167,622129,28755
1436.27,1.335063,621526,28734
1439.5,1.331942,621113,28922
1442.72,1.341112,620921,28309
1445.94,1.340242,620270,28336
1450.23,1.336382,618860,28524
1453.44,1.335824,617697,28507
1456.64,1.340026,616264,28167
1459.85,1.336290,614413,28325
1463.04,1.332429,612307,28480
1466.24,1.334334,610032,28250
1469.43,1.337753,607345,27905
1473.67,1.338892,603789,27669
1476.85,1.333926,601175,27866
1480.02,1.331295,597737,27875
1483.19,1.332866,594479,27623
1486.36,1.337524,591232,27179
1489.52,1.334444,587853,27216
1492.68,1.336229,583875,26921
1496.89,1.339417,578062,26458
1500.03,1.334984,574159,26549
1503.18,1.339734,570285,26083
1506.32,1.336649,565444,26046
1509.45,1.340764,560571,25578
1512.58,1.333618,555821,25782
1515.71,1.341740,550344,25055
1519.87,1.333100,543983,25263
1522.99,1.340552,538764,24595
1526.1,1.343081,533692,24222
1529.21,1.333902,527902,24471
1532.32,1.344774,521886,23594
1535.42,1.336435,515888,23775
1538.51,1.340632,509987,23277
1541.6,1.336663,503936,23212
1545.72,1.343720,494694,22419
1548.8,1.335282,488378,22567
1551.88,1.334727,481832,22293
1554.95,1.337968,474989,21813
1558.02,1.336952,467818,21534
1561.08,1.340525,460730,21034
1564.15,1.341941,454170,20667
1568.22,1.333545,444181,20607
1571.27,1.334283,436947,20237
1574.32,1.337056,429598,19770
1577.36,1.342232,422039,19192
1580.4,1.335997,414375,19116
1583.43,1.329489,406354,19029
1586.46,1.335229,398475,18415
1590.49,1.333308,388982,18056
1593.51,1.335079,380708,17600
1596.53,1.330916,372727,17397
1599.54,1.332708,365060,16969
1602.55,1.336793,357543,16464
1605.55,1.330402,349495,16332
1608.55,1.315414,341154,16502
1612.54,1.333615,330877,15348
1615.53,1.323503,322904,15331
1618.51,1.327886,315116,14811
1621.49,1.310371,307217,15034
1624.47,1.319790,299481,14341
1627.44,1.330576,292112,13645
1630.41,1.324648,284245,13460
1634.36,1.320969,274079,13089
1637.32,1.332743,266916,12406
1640.27,1.324773,259612,12290
1643.22,1.312218,251804,12270
1646.16,1.320529,244348,11681
1649.1,1.307729,236703,11654
1652.04,1.300899,228171,11412
1655.95,1.301813,215408,10751
1658.88,1.313187,204937,9964
1661.8,1.282812,193395,10084
1664.72,1.271802,179728,9612
1667.63,1.278539,163642,8617
1670.54,1.269305,146312,7870
1673.44,1.245296,128451,7302
1677.31,1.212904,105080,6436
1680.21,1.211738,88906,5460
1683.1,1.189242,75033,4853
1685.99,1.190339,63520,4098
1688.87,1.221154,53714,3228
1691.75,1.237044,45653,2645
1694.62,1.193953,39137,2504
1697.49,1.218552,33776,2042
1701.31,1.204105,28175,1761

File: Column 1_078300_20241121_165518.csv
Method:,Column 1,,
Host Date-Time:,21/11/24 @ 16:55:18,,
Header Version:,1,,
System Temp (C):,34.5,,
Detector Temp (C):,32.55,,
Humidity (%):,2.15,,
Lamp PD:,3802,,
Shift Vector Coefficients:,-10.5391,0.0761263,-0.000134223,,
Pixel to Wavelength Coefficients:,1775.68,-0.916766,-0.000235065,,
Serial Number:,5510004,,
Scan Config Name:,Column 1,,
Scan Config Type:,Slew,,
Section 1,,
Start wavelength (nm):,900,,
End wavelength (nm):,1700,,
Pattern Pixel Width (nm):,   7.03,,,,
Exposure (ms):,  0.635,,,,
Digital Resolution:,228,,
Num Repeats:,6,,
PGA Gain:,64,,
Total Measurement Time in sec:,  2.677,,
Wavelength (nm),Absorbance (AU),Reference Signal (unitless),Sample Signal (unitless)
901.51,1.310766,108485,5304
905.376,1.347247,121306,5453
909.237,1.331965,131909,6142
913.095,1.297045,143299,7231
916.948,1.313098,156982,7634
922.079,1.307246,179937,8869
925.923,1.324399,200504,9500
929.762,1.330066,222660,10413
933.597,1.325453,244426,11553
937.427,1.307715,263972,12997
941.254,1.321773,281845,13435
945.076,1.320100,297271,14225
950.165,1.319966,315605,15107
953.978,1.315062,328029,15880
957.786,1.315491,340470,16466
961.59,1.319947,352317,16865
965.389,1.316291,363056,17526
969.185,1.314051,373162,18107
972.976,1.306067,382632,18911
976.763,1.300744,391202,19573
981.806,1.317790,400190,19252
985.583,1.312526,406088,19774
989.355,1.308422,410162,20162
993.124,1.307161,412868,20354
996.888,1.309224,414263,20326
1000.65,1.306453,415476,20516
1004.4,1.306668,415479,20506
1009.41,1.305685,414358,20497
1013.15,1.309187,412923,20262
1016.89,1.303492,411526,20460
1020.63,1.311263,409066,19977
1024.36,1.308500,406777,19992
1028.09,1.306375,404427,19974
1031.82,1.309091,401911,19726
1036.78,1.311723,398410,19436
1040.49,1.310834,396204,19368
1044.2,1.315292,394236,19075
1047.91,1.323423,392042,18617
1051.61,1.309652,389823,19108
1055.31,1.308197,388234,19094
1059,1.311003,387599,18940
1063.92,1.312718,386688,18821
1067.61,1.313587,386598,18779
1071.29,1.306850,387377,19111
1074.96,1.309035,388536,19072
1078.63,1.307896,389855,19187
1082.3,1.311928,391215,19076
1085.96,1.315694,393215,19008
1090.84,1.312231,396270,19309
1094.49,1.317139,398760,19212
1098.14,1.307497,400987,19753
1101.79,1.327454,403477,18983
1105.43,1.315155,406116,19656
1109.06,1.329559,407701,19089
1112.7,1.324542,409859,19413
1117.53,1.313477,412494,20042
1121.15,1.318010,414909,19950
1124.77,1.319146,416559,19977
1128.38,1.309234,418532,20535
1131.99,1.320678,419956,20069
1135.6,1.325946,421946,19921
1139.2,1.320326,423881,20273
1143.99,1.322073,426786,20330
1147.58,1.321610,428617,20439
1151.17,1.324741,431169,20413
1154.75,1.326417,433579,20448
1158.33,1.322355,436264,20768
1161.91,1.316505,439132,21188
1165.48,1.319653,442389,21191
1169.04,1.320952,446101,21305
1173.79,1.327262,451929,21272
1177.34,1.319479,456026,21853
1180.9,1.316698,461306,22248
1184.44,1.322422,467657,22259
1187.99,1.325599,473969,22395
1191.52,1.317349,479856,23108
1195.06,1.323047,487372,23164
1199.76,1.328838,497347,23325
1203.29,1.327749,504311,23711
1206.81,1.321978,511507,24371
1210.33,1.326102,519078,24498
1213.84,1.329125,527163,24707
1217.35,1.319742,534208,25584
1220.85,1.327290,540472,25438
1225.51,1.325016,549929,26019
1229.01,1.323523,556888,26439
1232.5,1.332719,562180,26131
1235.98,1.323883,567975,26943
1239.46,1.329276,574815,26931
1242.94,1.326758,582782,27463
1246.41,1.326551,591476,27886
1251.03,1.325032,604016,28577
1254.5,1.324304,612289,29017
1257.96,1.326277,619125,29208
1261.41,1.333365,624551,28987
1264.86,1.327188,629900,29654
1268.31,1.323182,634345,30140
1271.75,1.334771,638574,29542
1276.33,1.323188,642499,30527
1279.76,1.329371,645905,30255
1283.19,1.328450,648307,30432
1286.61,1.330023,650446,30422
1290.03,1.328557,652132,30604
1293.44,1.331102,653907,30508
1296.85,1.332665,655963,30494
1301.39,1.327739,657349,30907
1304.8,1.331447,657558,30654
1308.19,1.332546,658515,30621
1311.58,1.332836,658804,30614
1314.97,1.329919,659011,30830
1318.36,1.336147,658272,30357
1321.73,1.339443,658022,30116
1326.23,1.333428,657870,30529
1329.6,1.334792,656482,30369
1332.97,1.330528,654926,30596
1336.33,1.337856,653727,30029
1339.69,1.329070,652497,30585
1343.04,1.339237,649913,29759
1346.39,1.328795,647671,30378
1349.73,1.336563,645338,29732
1354.18,1.330957,641175,29924
1357.52,1.330365,638376,29834
1360.85,1.332429,635805,29573
1364.17,1.325493,633413,29936
1367.49,1.329563,631026,29545
1370.81,1.322352,628050,29898
1374.12,1.325111,625034,29566
1378.54,1.333235,620272,28797
1381.84,1.329958,616892,28857
1385.14,1.330073,613613,28696
1388.43,1.327445,611526,28772
1391.72,1.332055,610663,28428
1395.01,1.331775,610634,28445
1398.29,1.326558,611700,28839
1402.66,1.332659,614051,28546
1405.93,1.333419,616268,28599
1409.2,1.322852,617795,29376
1412.46,1.336238,618872,28534
1415.72,1.330554,619795,28953
1418.98,1.329682,620495,29044
1422.23,1.329663,621087,29073
1426.56,1.340173,621375,28391
1429.8,1.337779,621616,28559
1433.04,1.335908,622129,28706
1436.27,1.335048,621526,28735
1439.5,1.331372,621113,28960
1442.72,1.334655,620921,28733
1445.94,1.333098,620270,28806
1450.23,1.335849,618860,28559
1453.44,1.334956,617697,28564
1456.64,1.334419,616264,28533
1459.85,1.339229,614413,28134
1463.04,1.340184,612307,27976
1466.24,1.336276,610032,28124
1469.43,1.340924,607345,27702
1473.67,1.339426,603789,27635
1476.85,1.332169,601175,27979
1480.02,1.338585,597737,27411
1483.19,1.344820,594479,26873
1486.36,1.340057,591232,27021
1489.52,1.337439,587853,27029
1492.68,1.336664,583875,26894
1496.89,1.341887,578062,26308
1500.03,1.342026,574159,26122
1503.18,1.334620,570285,26392
1506.32,1.343777,565444,25622
1509.45,1.340781,560571,25577
1512.58,1.345209,555821,25103
1515.71,1.339441,550344,25188
1519.87,1.348320,543983,24393
1522.99,1.345524,538764,24315
1526.1,1.333575,533692,24758
1529.21,1.341330,527902,24056
1532.32,1.337672,521886,23983
1535.42,1.337551,515888,23714
1538.51,1.341454,509987,23233
1541.6,1.336551,503936,23218
1545.72,1.338502,494694,22690
1548.8,1.332845,488378,22694
1551.88,1.336680,481832,22193
1554.95,1.332566,474989,22086
1558.02,1.332797,467818,21741
1561.08,1.326547,460730,21722
1564.15,1.336698,454170,20918
1568.22,1.334706,444181,20552
1571.27,1.338553,436947,20039
1574.32,1.340319,429598,19622
1577.36,1.331019,422039,19694
1580.4,1.330421,414375,19363
1583.43,1.333616,406354,18849
1586.46,1.338853,398475,18262
1590.49,1.338048,388982,17860
1593.51,1.333503,380708,17664
1596.53,1.327386,372727,17539
1599.54,1.330156,365060,17069
1602.55,1.318432,357543,17175
1605.55,1.330934,349495,16312
1608.55,1.334843,341154,15780
1612.54,1.326932,330877,15586
1615.53,1.321581,322904,15399
1618.51,1.318689,315116,15128
1621.49,1.316421,307217,14826
1624.47,1.338541,299481,13735
1627.44,1.331340,292112,13621
1630.41,1.329221,284245,13319
1634.36,1.321766,274079,13065
1637.32,1.334778,266916,12348
1640.27,1.326934,259612,12229
1643.22,1.316272,251804,12156
1646.16,1.321161,244348,11664
1649.1,1.322010,236703,11277
1652.04,1.309508,228171,11188
1655.95,1.313149,215408,10474
1658.88,1.302765,204937,10206
1661.8,1.296106,193395,9780
1664.72,1.289791,179728,9222
1667.63,1.277180,163642,8644
1670.54,1.259160,146312,8056
1673.44,1.244048,128451,7323
1677.31,1.217244,105080,6372
1680.21,1.180515,88906,5867
1683.1,1.203247,75033,4699
1685.99,1.224845,63520,3785
1688.87,1.174389,53714,3595
1691.75,1.241334,45653,2619
1694.62,1.231994,39137,2294
1697.49,1.152031,33776,2380
1701.31,1.256739,28175,1560