Folder: textile_sorting_NIRSCAN_/ML/samples/unknown (part 49)

File: Column 1_078318_20241121_165610.csv
Method:,Column 1,,
Host Date-Time:,21/11/24 @ 16:56:10,,
Header Version:,1,,
System Temp (C):,34.71,,
Detector Temp (C):,32.84,,
Humidity (%):,2.25,,
Lamp PD:,3802,,
Shift Vector Coefficients:,-10.5391,0.0761263,-0.000134223,,
Pixel to Wavelength Coefficients:,1775.68,-0.916766,-0.000235065,,
Serial Number:,5510004,,
Scan Config Name:,Column 1,,
Scan Config Type:,Slew,,
Section 1,,
Start wavelength (nm):,900,,
End wavelength (nm):,1700,,
Pattern Pixel Width (nm):,   7.03,,,,
Exposure (ms):,  0.635,,,,
Digital Resolution:,228,,
Num Repeats:,6,,
PGA Gain:,64,,
Total Measurement Time in sec:,  2.724,,
Wavelength (nm),Absorbance (AU),Reference Signal (unitless),Sample Signal (unitless)
901.51,1.332939,108485,5040
905.376,1.309292,121306,5951
909.237,1.301257,131909,6592
913.095,1.322714,143299,6816
916.948,1.333659,156982,7281
922.079,1.328984,179937,8436
925.923,1.323760,200504,9514
929.762,1.320293,222660,10650
933.597,1.325942,244426,11540
937.427,1.333032,263972,12261
941.254,1.313543,281845,13692
945.076,1.324087,297271,14095
950.165,1.320023,315605,15105
953.978,1.309491,328029,16085
957.786,1.319305,340470,16322
961.59,1.311254,352317,17206
965.389,1.310971,363056,17742
969.185,1.312710,373162,18163
972.976,1.320212,382632,18305
976.763,1.309847,391202,19167
981.806,1.307976,400190,19692
985.583,1.305705,406088,20087
989.355,1.310322,410162,20074
993.124,1.332126,412868,19217
996.888,1.306434,414263,20457
1000.65,1.311799,415476,20265
1004.4,1.307771,415479,20454
1009.41,1.303045,414358,20622
1013.15,1.308694,412923,20285
1016.89,1.315370,411526,19908
1020.63,1.311307,409066,19975
1024.36,1.320325,406777,19455
1028.09,1.318010,404427,19446
1031.82,1.317516,401911,19347
1036.78,1.310853,398410,19475
1040.49,1.322446,396204,18857
1044.2,1.317437,394236,18981
1047.91,1.305128,392042,19418
1051.61,1.321144,389823,18609
1055.31,1.311737,388234,18939
1059,1.307759,387599,19082
1063.92,1.306259,386688,19103
1067.61,1.315441,386598,18699
1071.29,1.316943,387377,18672
1074.96,1.312901,388536,18903
1078.63,1.313271,389855,18951
1082.3,1.323136,391215,18590
1085.96,1.324277,393215,18636
1090.84,1.314328,396270,19216
1094.49,1.315830,398760,19270
1098.14,1.319739,400987,19204
1101.79,1.312832,403477,19633
1105.43,1.319797,406116,19447
1109.06,1.319439,407701,19539
1112.7,1.318278,409859,19695
1117.53,1.320445,412494,19723
1121.15,1.324148,414909,19670
1124.77,1.322814,416559,19809
1128.38,1.306577,418532,20661
1131.99,1.315729,419956,20299
1135.6,1.325619,421946,19936
1139.2,1.328238,423881,19907
1143.99,1.321710,426786,20347
1147.58,1.321312,428617,20453
1151.17,1.330006,431169,20167
1154.75,1.311737,433579,21151
1158.33,1.318524,436264,20952
1161.91,1.326856,439132,20689
1165.48,1.316875,442389,21327
1169.04,1.318512,446101,21425
1173.79,1.314190,451929,21922
1177.34,1.321610,456026,21746
1180.9,1.318949,461306,22133
1184.44,1.323966,467657,22180
1187.99,1.320260,473969,22672
1191.52,1.319402,479856,22999
1195.06,1.316423,487372,23520
1199.76,1.321343,497347,23731
1203.29,1.326962,504311,23754
1206.81,1.326997,511507,24091
1210.33,1.326297,519078,24487
1213.84,1.330339,527163,24638
1217.35,1.328712,534208,25061
1220.85,1.327632,540472,25418
1225.51,1.325885,549929,25967
1229.01,1.327284,556888,26211
1232.5,1.326073,562180,26534
1235.98,1.324997,567975,26874
1239.46,1.325950,574815,27138
1242.94,1.320993,582782,27830
1246.41,1.325214,591476,27972
1251.03,1.326356,604016,28490
1254.5,1.326901,612289,28844
1257.96,1.328513,619125,29058
1261.41,1.323646,624551,29643
1264.86,1.330614,629900,29421
1268.31,1.329496,634345,29705
1271.75,1.328148,638574,29996
1276.33,1.330375,642499,30026
1279.76,1.329946,645905,30215
1283.19,1.327766,648307,30480
1286.61,1.336539,650446,29969
1290.03,1.329339,652132,30549
1293.44,1.327078,653907,30792
1296.85,1.327385,655963,30867
1301.39,1.330898,657349,30683
1304.8,1.333008,657558,30544
1308.19,1.332305,658515,30638
1311.58,1.332354,658804,30648
1314.97,1.333938,659011,30546
1318.36,1.331819,658272,30661
1321.73,1.335124,658022,30417
1326.23,1.337042,657870,30276
1329.6,1.334835,656482,30366
1332.97,1.335496,654926,30248
1336.33,1.336527,653727,30121
1339.69,1.333480,652497,30276
1343.04,1.330253,649913,30381
1346.39,1.327297,647671,30483
1349.73,1.331740,645338,30064
1354.18,1.328829,641175,30071
1357.52,1.330773,638376,29806
1360.85,1.329706,635805,29759
1364.17,1.329867,633413,29636
1367.49,1.329064,631026,29579
1370.81,1.331097,628050,29302
1374.12,1.332160,625034,29090
1378.54,1.330619,620272,28971
1381.84,1.329868,616892,28863
1385.14,1.329695,613613,28721
1388.43,1.330413,611526,28576
1391.72,1.333662,610663,28323
1395.01,1.326117,610634,28818
1398.29,1.326182,611700,28864
1402.66,1.325283,614051,29035
1405.93,1.329353,616268,28868
1409.2,1.331527,617795,28795
1412.46,1.335675,618872,28571
1415.72,1.334563,619795,28687
1418.98,1.334841,620495,28701
1422.23,1.329439,621087,29088
1426.56,1.334520,621375,28763
1429.8,1.335943,621616,28680
1433.04,1.332862,622129,28908
1436.27,1.336001,621526,28672
1439.5,1.336789,621113,28601
1442.72,1.336230,620921,28629
1445.94,1.335835,620270,28625
1450.23,1.336367,618860,28525
1453.44,1.331821,617697,28771
1456.64,1.338610,616264,28259
1459.85,1.334974,614413,28411
1463.04,1.340106,612307,27981
1466.24,1.340574,610032,27847
1469.43,1.332755,607345,28228
1473.67,1.334348,603789,27960
1476.85,1.336020,601175,27732
1480.02,1.336247,597737,27559
1483.19,1.336909,594479,27367
1486.36,1.338596,591232,27112
1489.52,1.338323,587853,26974
1492.68,1.341014,583875,26626
1496.89,1.338057,578062,26541
1500.03,1.337346,574159,26405
1503.18,1.339784,570285,26080
1506.32,1.337316,565444,26006
1509.45,1.340866,560571,25572
1512.58,1.338020,555821,25522
1515.71,1.343303,550344,24965
1519.87,1.343170,543983,24684
1522.99,1.342162,538764,24504
1526.1,1.340881,533692,24345
1529.21,1.346762,527902,23757
1532.32,1.340944,521886,23803
1535.42,1.338486,515888,23663
1538.51,1.333324,509987,23672
1541.6,1.335448,503936,23277
1545.72,1.336078,494694,22817
1548.8,1.337636,488378,22445
1551.88,1.340216,481832,22013
1554.95,1.339284,474989,21747
1558.02,1.341493,467818,21310
1561.08,1.332688,460730,21417
1564.15,1.333121,454170,21091
1568.22,1.340513,444181,20279
1571.27,1.330969,436947,20392
1574.32,1.339854,429598,19643
1577.36,1.338672,422039,19350
1580.4,1.333731,414375,19216
1583.43,1.323257,406354,19304
1586.46,1.335796,398475,18391
1590.49,1.338876,388982,17826
1593.51,1.332717,380708,17696
1596.53,1.334275,372727,17263
1599.54,1.331150,365060,17030
1602.55,1.329417,357543,16746
1605.55,1.330561,349495,16326
1608.55,1.333854,341154,15816
1612.54,1.325152,330877,15650
1615.53,1.323956,322904,15315
1618.51,1.326247,315116,14867
1621.49,1.318889,307217,14742
1624.47,1.333323,299481,13901
1627.44,1.312100,292112,14238
1630.41,1.329221,284245,13319
1634.36,1.323231,274079,13021
1637.32,1.313636,266916,12964
1640.27,1.315958,259612,12542
1643.22,1.319211,251804,12074
1646.16,1.318526,244348,11735
1649.1,1.314489,236703,11474
1652.04,1.320515,228171,10908
1655.95,1.313606,215408,10463
1658.88,1.292296,204937,10455
1661.8,1.299987,193395,9693
1664.72,1.275432,179728,9532
1667.63,1.280762,163642,8573
1670.54,1.250250,146312,8223
1673.44,1.231021,128451,7546
1677.31,1.229409,105080,6196
1680.21,1.179111,88906,5886
1683.1,1.200759,75033,4726
1685.99,1.214303,63520,3878
1688.87,1.191514,53714,3456
1691.75,1.208605,45653,2824
1694.62,1.209670,39137,2415
1697.49,1.173924,33776,2263
1701.31,1.139596,28175,2043

File: Column 1_078323_20241121_165625.csv
Method:,Column 1,,
Host Date-Time:,21/11/24 @ 16:56:25,,
Header Version:,1,,
System Temp (C):,34.72,,
Detector Temp (C):,32.89,,
Humidity (%):,2.16,,
Lamp PD:,3801,,
Shift Vector Coefficients:,-10.5391,0.0761263,-0.000134223,,
Pixel to Wavelength Coefficients:,1775.68,-0.916766,-0.000235065,,
Serial Number:,5510004,,
Scan Config Name:,Column 1,,
Scan Config Type:,Slew,,
Section 1,,
Start wavelength (nm):,900,,
End wavelength (nm):,1700,,
Pattern Pixel Width (nm):,   7.03,,,,
Exposure (ms):,  0.635,,,,
Digital Resolution:,228,,
Num Repeats:,6,,
PGA Gain:,64,,
Total Measurement Time in sec:,  2.727,,
Wavelength (nm),Absorbance (AU),Reference Signal (unitless),Sample Signal (unitless)
901.51,1.320956,108485,5181
905.376,1.320829,121306,5795
909.237,1.335087,131909,6098
913.095,1.321568,143299,6834
916.948,1.313496,156982,7627
922.079,1.316701,179937,8678
925.923,1.326416,200504,9456
929.762,1.317285,222660,10724
933.597,1.318812,244426,11731
937.427,1.327471,263972,12419
941.254,1.320933,281845,13461
945.076,1.323626,297271,14110
950.165,1.315675,315605,15257
953.978,1.319404,328029,15722
957.786,1.315755,340470,16456
961.59,1.310094,352317,17252
965.389,1.307412,363056,17888
969.185,1.308853,373162,18325
972.976,1.312126,382632,18649
976.763,1.312050,391202,19070
981.806,1.308462,400190,19670
985.583,1.316320,406088,19602
989.355,1.316203,410162,19804
993.124,1.308315,412868,20300
996.888,1.304211,414263,20562
1000.65,1.312958,415476,20211
1004.4,1.313305,415479,20195
1009.41,1.310951,414358,20250
1013.15,1.312198,412923,20122
1016.89,1.306281,411526,20329
1020.63,1.308900,409066,20086
1024.36,1.310634,406777,19894
1028.09,1.310943,404427,19765
1031.82,1.307969,401911,19777
1036.78,1.314953,398410,19292
1040.49,1.311193,396204,19352
1044.2,1.305299,394236,19519
1047.91,1.302519,392042,19535
1051.61,1.296820,389823,19681
1055.31,1.313920,388234,18844
1059,1.310751,387599,18951
1063.92,1.320447,386688,18489
1067.61,1.309192,386598,18970
1071.29,1.318738,387377,18595
1074.96,1.303132,388536,19333
1078.63,1.309733,389855,19106
1082.3,1.309997,391215,19161
1085.96,1.312076,393215,19167
1090.84,1.309273,396270,19441
1094.49,1.309343,398760,19560
1098.14,1.315261,400987,19403
1101.79,1.314672,403477,19550
1105.43,1.324332,406116,19245
1109.06,1.318596,407701,19577
1112.7,1.314087,409859,19886
1117.53,1.314236,412494,20007
1121.15,1.315860,414909,20049
1124.77,1.318104,416559,20025
1128.38,1.321155,418532,19979
1131.99,1.313276,419956,20414
1135.6,1.316628,421946,20353
1139.2,1.312240,423881,20654
1143.99,1.321390,426786,20362
1147.58,1.326181,428617,20225
1151.17,1.320612,431169,20608
1154.75,1.314684,433579,21008
1158.33,1.313721,436264,21185
1161.91,1.319653,439132,21035
1165.48,1.320412,442389,21154
1169.04,1.316914,446101,21504
1173.79,1.313636,451929,21950
1177.34,1.322050,456026,21724
1180.9,1.315918,461306,22288
1184.44,1.316569,467657,22561
1187.99,1.319705,473969,22701
1191.52,1.318346,479856,23055
1195.06,1.321382,487372,23253
1199.76,1.320229,497347,23792
1203.29,1.317879,504311,24256
1206.81,1.325000,511507,24202
1210.33,1.325411,519078,24537
1213.84,1.328440,527163,24746
1217.35,1.321733,534208,25467
1220.85,1.318669,540472,25948
1225.51,1.324799,549929,26032
1229.01,1.318850,556888,26725
1232.5,1.322730,562180,26739
1235.98,1.326324,567975,26792
1239.46,1.320527,574815,27479
1242.94,1.323183,582782,27690
1246.41,1.321211,591476,28231
1251.03,1.319955,604016,28913
1254.5,1.326089,612289,28898
1257.96,1.328259,619125,29075
1261.41,1.326910,624551,29421
1264.86,1.325945,629900,29739
1268.31,1.327964,634345,29810
1271.75,1.332323,638574,29709
1276.33,1.323444,642499,30509
1279.76,1.331674,645905,30095
1283.19,1.327908,648307,30470
1286.61,1.331024,650446,30352
1290.03,1.331476,652132,30399
1293.44,1.330476,653907,30552
1296.85,1.330435,655963,30651
1301.39,1.328330,657349,30865
1304.8,1.334176,657558,30462
1308.19,1.336078,658515,30373
1311.58,1.330163,658804,30803
1314.97,1.332391,659011,30655
1318.36,1.334790,658272,30452
1321.73,1.335467,658022,30393
1326.23,1.328238,657870,30896
1329.6,1.333023,656482,30493
1332.97,1.324536,654926,31021
1336.33,1.330314,653727,30555
1339.69,1.332391,652497,30352
1343.04,1.330010,649913,30398
1346.39,1.334871,647671,29956
1349.73,1.329134,645338,30245
1354.18,1.327805,641175,30142
1357.52,1.330190,638376,29846
1360.85,1.328860,635805,29817
1364.17,1.324841,633413,29981
1367.49,1.335081,631026,29172
1370.81,1.331230,628050,29293
1374.12,1.333161,625034,29023
1378.54,1.326293,620272,29261
1381.84,1.328921,616892,28926
1385.14,1.327222,613613,28885
1388.43,1.329472,611526,28638
1391.72,1.331964,610663,28434
1395.01,1.325575,610634,28854
1398.29,1.331724,611700,28498
1402.66,1.336096,614051,28321
1405.93,1.325355,616268,29135
1409.2,1.357651,617795,27114
1412.46,1.336665,618872,28506
1415.72,1.332614,619795,28816
1418.98,1.326776,620495,29239
1422.23,1.335846,621087,28662
1426.56,1.336017,621375,28664
1429.8,1.336140,621616,28667
1433.04,1.333810,622129,28845
1436.27,1.332516,621526,28903
1439.5,1.335047,621113,28716
1442.72,1.338588,620921,28474
1445.94,1.331908,620270,28885
1450.23,1.334437,618860,28652
1453.44,1.339573,617697,28262
1456.64,1.339256,616264,28217
1459.85,1.339430,614413,28121
1463.04,1.340432,612307,27960
1466.24,1.339080,610032,27943
1469.43,1.334806,607345,28095
1473.67,1.328347,603789,28349
1476.85,1.338517,601175,27573
1480.02,1.337936,597737,27452
1483.19,1.336085,594479,27419
1486.36,1.337668,591232,27170
1489.52,1.333886,587853,27251
1492.68,1.333286,583875,27104
1496.89,1.336098,578062,26661
1500.03,1.336098,574159,26481
1503.18,1.338936,570285,26131
1506.32,1.340299,565444,25828
1509.45,1.335348,560571,25899
1512.58,1.343603,555821,25196
1515.71,1.336879,550344,25337
1519.87,1.338080,543983,24975
1522.99,1.342978,538764,24458
1526.1,1.339901,533692,24400
1529.21,1.337233,527902,24284
1532.32,1.346748,521886,23487
1535.42,1.341635,515888,23492
1538.51,1.335808,509987,23537
1541.6,1.333364,503936,23389
1545.72,1.333384,494694,22959
1548.8,1.334974,488378,22583
1551.88,1.336523,481832,22201
1554.95,1.340444,474989,21689
1558.02,1.336529,467818,21555
1561.08,1.337049,460730,21203
1564.15,1.334173,454170,21040
1568.22,1.334727,444181,20551
1571.27,1.337233,436947,20100
1574.32,1.333337,429598,19940
1577.36,1.330512,422039,19717
1580.4,1.330757,414375,19348
1583.43,1.333409,406354,18858
1586.46,1.343659,398475,18061
1590.49,1.333092,388982,18065
1593.51,1.327351,380708,17916
1596.53,1.342862,372727,16925
1599.54,1.333348,365060,16944
1602.55,1.333011,357543,16608
1605.55,1.336103,349495,16119
1608.55,1.340355,341154,15581
1612.54,1.320982,330877,15801
1615.53,1.322287,322904,15374
1618.51,1.322090,315116,15010
1621.49,1.329415,307217,14389
1624.47,1.326196,299481,14131
1627.44,1.318028,292112,14045
1630.41,1.321209,284245,13567
1634.36,1.315791,274079,13246
1637.32,1.319029,266916,12804
1640.27,1.322728,259612,12348
1643.22,1.320040,251804,12051
1646.16,1.309190,244348,11990
1649.1,1.303723,236703,11762
1652.04,1.310869,228171,11153
1655.95,1.302419,215408,10736
1658.88,1.299121,204937,10292
1661.8,1.279252,193395,10167
1664.72,1.287255,179728,9276
1667.63,1.251005,163642,9181
1670.54,1.256795,146312,8100
1673.44,1.211771,128451,7888
1677.31,1.181916,105080,6912
1680.21,1.203856,88906,5560
1683.1,1.163192,75033,5153
1685.99,1.215873,63520,3864
1688.87,1.221423,53714,3226
1691.75,1.254807,45653,2539
1694.62,1.137895,39137,2849
1697.49,1.254450,33776,1880
1701.31,1.185755,28175,1837

File: Column 1_078324_20241121_165628.csv
Method:,Column 1,,
Host Date-Time:,21/11/24 @ 16:56:28,,
Header Version:,1,,
System Temp (C):,34.67,,
Detector Temp (C):,32.91,,
Humidity (%):,2.16,,
Lamp PD:,3802,,
Shift Vector Coefficients:,-10.5391,0.0761263,-0.000134223,,
Pixel to Wavelength Coefficients:,1775.68,-0.916766,-0.000235065,,
Serial Number:,5510004,,
Scan Config Name:,Column 1,,
Scan Config Type:,Slew,,
Section 1,,
Start wavelength (nm):,900,,
End wavelength (nm):,1700,,
Pattern Pixel Width (nm):,   7.03,,,,
Exposure (ms):,  0.635,,,,
Digital Resolution:,228,,
Num Repeats:,6,,
PGA Gain:,64,,
Total Measurement Time in sec:,  2.667,,
Wavelength (nm),Absorbance (AU),Reference Signal (unitless),Sample Signal (unitless)
901.51,1.304830,108485,5377
905.376,1.361248,121306,5280
909.237,1.319626,131909,6319
913.095,1.338810,143299,6568
916.948,1.299710,156982,7873
922.079,1.331617,179937,8385
925.923,1.328349,200504,9414
929.762,1.322828,222660,10588
933.597,1.322979,244426,11619
937.427,1.315809,263972,12757
941.254,1.321837,281845,13433
945.076,1.300462,297271,14883
950.165,1.326862,315605,14869
953.978,1.319930,328029,15703
957.786,1.320131,340470,16291
961.59,1.312087,352317,17173
965.389,1.319999,363056,17377
969.185,1.306796,373162,18412
972.976,1.299933,382632,19180
976.763,1.309168,391202,19197
981.806,1.300976,400190,20012
985.583,1.313956,406088,19709
989.355,1.307411,410162,20209
993.124,1.314651,412868,20006
996.888,1.313023,414263,20149
1000.65,1.309598,415476,20368
1004.4,1.314382,415479,20145
1009.41,1.310393,414358,20276
1013.15,1.311314,412923,20163
1016.89,1.303152,411526,20476
1020.63,1.311198,409066,19980
1024.36,1.313987,406777,19741
1028.09,1.310548,404427,19783
1031.82,1.310083,401911,19681
1036.78,1.314615,398410,19307
1040.49,1.307907,396204,19499
1044.2,1.309435,394236,19334
1047.91,1.307505,392042,19312
1051.61,1.316941,389823,18790
1055.31,1.310958,388234,18973
1059,1.307395,387599,19098
1063.92,1.310141,386688,18933
1067.61,1.317770,386598,18599
1071.29,1.312822,387377,18850
1074.96,1.307331,388536,19147
1078.63,1.315292,389855,18863
1082.3,1.313891,391215,18990
1085.96,1.317525,393215,18928
1090.84,1.313132,396270,19269
1094.49,1.312127,398760,19435
1098.14,1.321075,400987,19145
1101.79,1.323469,403477,19158
1105.43,1.324648,406116,19231
1109.06,1.320352,407701,19498
1112.7,1.311909,409859,19986
1117.53,1.315105,412494,19967
1121.15,1.317184,414909,19988
1124.77,1.325188,416559,19701
1128.38,1.312844,418532,20365
1131.99,1.316371,419956,20269
1135.6,1.318317,421946,20274
1139.2,1.321291,423881,20228
1143.99,1.333107,426786,19820
1147.58,1.318814,428617,20571
1151.17,1.318614,431169,20703
1154.75,1.318713,433579,20814
1158.33,1.318959,436264,20931
1161.91,1.323218,439132,20863
1165.48,1.326990,442389,20836
1169.04,1.322156,446101,21246
1173.79,1.318490,451929,21706
1177.34,1.319578,456026,21848
1180.9,1.320147,461306,22072
1184.44,1.318537,467657,22459
1187.99,1.316142,473969,22888
1191.52,1.319950,479856,22970
1195.06,1.325491,487372,23034
1199.76,1.323950,497347,23589
1203.29,1.318757,504311,24207
1206.81,1.326168,511507,24137
1210.33,1.318406,519078,24936
1213.84,1.325345,527163,24923
1217.35,1.326982,534208,25161
1220.85,1.328881,540472,25345
1225.51,1.333681,549929,25505
1229.01,1.327865,556888,26176
1232.5,1.323071,562180,26718
1235.98,1.326308,567975,26793
1239.46,1.317896,574815,27646
1242.94,1.324235,582782,27623
1246.41,1.325152,591476,27976
1251.03,1.326478,604016,28482
1254.5,1.327609,612289,28797
1257.96,1.328931,619125,29030
1261.41,1.331391,624551,29119
1264.86,1.332715,629900,29279
1268.31,1.333402,634345,29439
1271.75,1.328785,638574,29952
1276.33,1.327650,642499,30215
1279.76,1.324731,645905,30580
1283.19,1.332983,648307,30116
1286.61,1.327887,650446,30572
1290.03,1.335697,652132,30105
1293.44,1.334877,653907,30244
1296.85,1.327526,655963,30857
1301.39,1.328034,657349,30886
1304.8,1.333022,657558,30543
1308.19,1.332036,658515,30657
1311.58,1.334471,658804,30499
1314.97,1.337350,659011,30307
1318.36,1.334675,658272,30460
1321.73,1.333670,658022,30519
1326.23,1.336812,657870,30292
1329.6,1.335551,656482,30316
1332.97,1.336272,654926,30194
1336.33,1.336743,653727,30106
1339.69,1.335133,652497,30161
1343.04,1.331441,649913,30298
1346.39,1.330586,647671,30253
1349.73,1.327943,645338,30328
1354.18,1.329031,641175,30057
1357.52,1.325127,638376,30196
1360.85,1.331680,635805,29624
1364.17,1.330733,633413,29577
1367.49,1.328814,631026,29596
1370.81,1.332611,628050,29200
1374.12,1.333730,625034,28985
1378.54,1.330664,620272,28968
1381.84,1.324767,616892,29204
1385.14,1.329801,613613,28714
1388.43,1.327505,611526,28768
1391.72,1.330439,610663,28534
1395.01,1.326072,610634,28821
1398.29,1.334108,611700,28342
1402.66,1.334963,614051,28395
1405.93,1.334042,616268,28558
1409.2,1.328581,617795,28991
1412.46,1.326843,618872,29158
1415.72,1.336992,619795,28527
1418.98,1.333859,620495,28766
1422.23,1.333564,621087,28813
1426.56,1.332862,621375,28873
1429.8,1.334250,621616,28792
1433.04,1.337044,622129,28631
1436.27,1.334852,621526,28748
1439.5,1.332619,621113,28877
1442.72,1.332891,620921,28850
1445.94,1.334003,620270,28746
1450.23,1.331929,618860,28818
1453.44,1.333242,617697,28677
1456.64,1.336127,616264,28421
1459.85,1.336137,614413,28335
1463.04,1.333605,612307,28403
1466.24,1.338241,610032,27997
1469.43,1.337007,607345,27953
1473.67,1.328639,603789,28330
1476.85,1.341758,601175,27368
1480.02,1.335318,597737,27618
1483.19,1.338658,594479,27257
1486.36,1.334944,591232,27341
1489.52,1.335627,587853,27142
1492.68,1.344683,583875,26402
1496.89,1.330675,578062,26996
1500.03,1.331871,574159,26740
1503.18,1.338903,570285,26133
1506.32,1.340316,565444,25827
1509.45,1.339797,560571,25635
1512.58,1.341506,555821,25318
1515.71,1.332343,550344,25603
1519.87,1.339665,543983,24884
1522.99,1.334224,538764,24956
1526.1,1.340061,533692,24391
1529.21,1.332820,527902,24532
1532.32,1.337908,521886,23970
1535.42,1.332978,515888,23965
1538.51,1.333636,509987,23655
1541.6,1.334423,503936,23332
1545.72,1.335850,494694,22829
1548.8,1.333209,488378,22675
1551.88,1.337738,481832,22139
1554.95,1.332999,474989,22064
1558.02,1.330526,467818,21855
1561.08,1.341786,460730,20973
1564.15,1.341857,454170,20671
1568.22,1.335488,444181,20515
1571.27,1.346558,436947,19673
1574.32,1.340120,429598,19631
1577.36,1.332012,422039,19649
1580.4,1.327805,414375,19480
1583.43,1.342320,406354,18475
1586.46,1.335937,398475,18385
1590.49,1.330431,388982,18176
1593.51,1.328565,380708,17866
1596.53,1.334577,372727,17251
1599.54,1.325474,365060,17254
1602.55,1.328899,357543,16766
1605.55,1.343494,349495,15847
1608.55,1.331799,341154,15891
1612.54,1.327629,330877,15561
1615.53,1.315698,322904,15609
1618.51,1.324498,315116,14927
1621.49,1.320778,307217,14678
1624.47,1.332668,299481,13922
1627.44,1.318925,292112,14016
1630.41,1.310491,284245,13906
1634.36,1.314710,274079,13279
1637.32,1.316021,266916,12893
1640.27,1.316478,259612,12527
1643.22,1.306068,251804,12445
1646.16,1.318859,244348,11726
1649.1,1.321356,236703,11294
1652.04,1.310830,228171,11154
1655.95,1.320804,215408,10291
1658.88,1.304598,204937,10163
1661.8,1.290678,193395,9903
1664.72,1.284594,179728,9333
1667.63,1.256479,163642,9066
1670.54,1.268809,146312,7879
1673.44,1.243989,128451,7324
1677.31,1.213377,105080,6429
1680.21,1.228689,88906,5251
1683.1,1.215146,75033,4572
1685.99,1.223127,63520,3800
1688.87,1.203877,53714,3359
1691.75,1.225220,45653,2718
1694.62,1.233701,39137,2285
1697.49,1.185988,33776,2201
1701.31,1.135786,28175,2061