Folder: textile_sorting_NIRSCAN_/ML/samples/unknown (part 83)

File: Column 1_078589_20241121_171007.csv
Method:,Column 1,,
Host Date-Time:,21/11/24 @ 17:10:7,,
Header Version:,1,,
System Temp (C):,36.61,,
Detector Temp (C):,34.75,,
Humidity (%):,1.17,,
Lamp PD:,3798,,
Shift Vector Coefficients:,-10.5391,0.0761263,-0.000134223,,
Pixel to Wavelength Coefficients:,1775.68,-0.916766,-0.000235065,,
Serial Number:,5510004,,
Scan Config Name:,Column 1,,
Scan Config Type:,Slew,,
Section 1,,
Start wavelength (nm):,900,,
End wavelength (nm):,1700,,
Pattern Pixel Width (nm):,   7.03,,,,
Exposure (ms):,  0.635,,,,
Digital Resolution:,228,,
Num Repeats:,6,,
PGA Gain:,64,,
Total Measurement Time in sec:,  2.724,,
Wavelength (nm),Absorbance (AU),Reference Signal (unitless),Sample Signal (unitless)
901.51,1.304668,108485,5379
905.376,1.298766,121306,6097
909.237,1.298368,131909,6636
913.095,1.318150,143299,6888
916.948,1.320962,156982,7497
922.079,1.313212,179937,8748
925.923,1.328487,200504,9411
929.762,1.331403,222660,10381
933.597,1.325866,244426,11542
937.427,1.329048,263972,12374
941.254,1.318552,281845,13535
945.076,1.317574,297271,14308
950.165,1.304713,315605,15647
953.978,1.302580,328029,16343
957.786,1.314964,340470,16486
961.59,1.301470,352317,17598
965.389,1.317035,363056,17496
969.185,1.300637,373162,18675
972.976,1.318011,382632,18398
976.763,1.304286,391202,19414
981.806,1.304659,400190,19843
985.583,1.305446,406088,20099
989.355,1.306380,410162,20257
993.124,1.304524,412868,20478
996.888,1.303430,414263,20599
1000.65,1.302093,415476,20723
1004.4,1.306181,415479,20529
1009.41,1.306534,414358,20457
1013.15,1.300844,412923,20655
1016.89,1.310575,411526,20129
1020.63,1.306722,409066,20187
1024.36,1.299769,406777,20398
1028.09,1.307333,404427,19930
1031.82,1.314229,401911,19494
1036.78,1.311612,398410,19441
1040.49,1.313082,396204,19268
1044.2,1.305922,394236,19491
1047.91,1.309783,392042,19211
1051.61,1.306279,389823,19257
1055.31,1.311645,388234,18943
1059,1.307713,387599,19084
1063.92,1.299783,386688,19390
1067.61,1.305704,386598,19123
1071.29,1.313583,387377,18817
1074.96,1.312235,388536,18932
1078.63,1.313936,389855,18922
1082.3,1.308007,391215,19249
1085.96,1.306314,393215,19423
1090.84,1.316640,396270,19114
1094.49,1.321707,398760,19011
1098.14,1.319422,400987,19218
1101.79,1.314317,403477,19566
1105.43,1.313193,406116,19745
1109.06,1.323010,407701,19379
1112.7,1.312779,409859,19946
1117.53,1.308714,412494,20263
1121.15,1.306665,414909,20478
1124.77,1.318820,416559,19992
1128.38,1.317842,418532,20132
1131.99,1.311026,419956,20520
1135.6,1.312678,421946,20539
1139.2,1.314770,423881,20534
1143.99,1.320410,426786,20408
1147.58,1.324702,428617,20294
1151.17,1.316104,431169,20823
1154.75,1.318442,433579,20827
1158.33,1.315446,436264,21101
1161.91,1.309894,439132,21513
1165.48,1.309705,442389,21682
1169.04,1.312114,446101,21743
1173.79,1.315917,451929,21835
1177.34,1.313028,456026,22180
1180.9,1.312966,461306,22440
1184.44,1.312908,467657,22752
1187.99,1.320758,473969,22646
1191.52,1.312025,479856,23393
1195.06,1.321961,487372,23222
1199.76,1.318080,497347,23910
1203.29,1.322723,504311,23987
1206.81,1.316788,511507,24664
1210.33,1.319400,519078,24879
1213.84,1.321252,527163,25159
1217.35,1.317490,534208,25717
1220.85,1.317015,540472,26047
1225.51,1.327728,549929,25857
1229.01,1.316613,556888,26863
1232.5,1.324374,562180,26638
1235.98,1.318692,567975,27267
1239.46,1.323397,574815,27298
1242.94,1.315904,582782,28158
1246.41,1.322490,591476,28148
1251.03,1.323242,604016,28695
1254.5,1.324514,612289,29003
1257.96,1.323741,619125,29379
1261.41,1.322344,624551,29732
1264.86,1.320100,629900,30142
1268.31,1.320983,634345,30293
1271.75,1.318299,638574,30684
1276.33,1.322904,642499,30547
1279.76,1.325172,645905,30549
1283.19,1.323992,648307,30746
1286.61,1.329838,650446,30435
1290.03,1.326731,652132,30733
1293.44,1.323315,653907,31060
1296.85,1.326977,655963,30896
1301.39,1.326560,657349,30991
1304.8,1.328341,657558,30874
1308.19,1.325777,658515,31102
1311.58,1.329783,658804,30830
1314.97,1.332221,659011,30667
1318.36,1.331267,658272,30700
1321.73,1.327804,658022,30934
1326.23,1.328857,657870,30852
1329.6,1.332581,656482,30524
1332.97,1.325840,654926,30928
1336.33,1.331339,653727,30483
1339.69,1.327044,652497,30728
1343.04,1.328969,649913,30471
1346.39,1.320161,647671,30988
1349.73,1.321914,645338,30752
1354.18,1.327272,641175,30179
1357.52,1.325876,638376,30144
1360.85,1.328278,635805,29857
1364.17,1.322097,633413,30171
1367.49,1.323824,631026,29938
1370.81,1.322992,628050,29854
1374.12,1.319928,625034,29921
1378.54,1.327140,620272,29204
1381.84,1.324469,616892,29224
1385.14,1.328985,613613,28768
1388.43,1.318378,611526,29379
1391.72,1.325671,610663,28849
1395.01,1.330312,610634,28541
1398.29,1.320873,611700,29219
1402.66,1.326301,614051,28967
1405.93,1.330754,616268,28775
1409.2,1.329436,617795,28934
1412.46,1.326456,618872,29184
1415.72,1.335836,619795,28603
1418.98,1.330176,620495,29011
1422.23,1.326374,621087,29294
1426.56,1.330492,621375,29031
1429.8,1.331289,621616,28989
1433.04,1.333133,622129,28890
1436.27,1.329566,621526,29100
1439.5,1.330653,621113,29008
1442.72,1.331583,620921,28937
1445.94,1.334170,620270,28735
1450.23,1.331206,618860,28866
1453.44,1.326927,617697,29097
1456.64,1.332627,616264,28651
1459.85,1.334119,614413,28467
1463.04,1.332719,612307,28461
1466.24,1.324996,610032,28864
1469.43,1.332048,607345,28274
1473.67,1.326132,603789,28494
1476.85,1.330480,601175,28088
1480.02,1.331857,597737,27839
1483.19,1.335120,594479,27480
1486.36,1.330959,591232,27593
1489.52,1.332327,587853,27349
1492.68,1.328997,583875,27373
1496.89,1.334569,578062,26755
1500.03,1.331076,574159,26789
1503.18,1.331782,570285,26565
1506.32,1.334868,565444,26153
1509.45,1.331192,560571,26148
1512.58,1.328494,555821,26088
1515.71,1.329570,550344,25767
1519.87,1.336847,543983,25046
1522.99,1.340781,538764,24582
1526.1,1.334207,533692,24722
1529.21,1.343266,527902,23949
1532.32,1.330881,521886,24361
1535.42,1.336709,515888,23760
1538.51,1.334923,509987,23585
1541.6,1.336382,503936,23227
1545.72,1.331685,494694,23049
1548.8,1.331985,488378,22739
1551.88,1.331409,481832,22464
1554.95,1.326921,474989,22375
1558.02,1.336690,467818,21547
1561.08,1.335026,460730,21302
1564.15,1.331929,454170,21149
1568.22,1.333040,444181,20631
1571.27,1.327617,436947,20550
1574.32,1.334122,429598,19904
1577.36,1.335630,422039,19486
1580.4,1.329077,414375,19423
1583.43,1.330585,406354,18981
1586.46,1.332901,398475,18514
1590.49,1.336446,388982,17926
1593.51,1.326286,380708,17960
1596.53,1.330268,372727,17423
1599.54,1.325323,365060,17260
1602.55,1.331210,357543,16677
1605.55,1.330668,349495,16322
1608.55,1.322980,341154,16217
1612.54,1.312976,330877,16095
1615.53,1.317343,322904,15550
1618.51,1.322524,315116,14995
1621.49,1.318712,307217,14748
1624.47,1.331671,299481,13954
1627.44,1.313445,292112,14194
1630.41,1.316244,284245,13723
1634.36,1.311842,274079,13367
1637.32,1.311664,266916,13023
1640.27,1.313059,259612,12626
1643.22,1.304709,251804,12484
1646.16,1.312681,244348,11894
1649.1,1.317718,236703,11389
1652.04,1.312507,228171,11111
1655.95,1.304853,215408,10676
1658.88,1.276311,204937,10847
1661.8,1.291776,193395,9878
1664.72,1.262062,179728,9830
1667.63,1.258640,163642,9021
1670.54,1.228766,146312,8640
1673.44,1.226270,128451,7629
1677.31,1.177789,105080,6978
1680.21,1.143974,88906,6382
1683.1,1.177413,75033,4987
1685.99,1.178422,63520,4212
1688.87,1.167081,53714,3656
1691.75,1.123543,45653,3435
1694.62,1.185877,39137,2551
1697.49,1.194557,33776,2158
1701.31,1.175937,28175,1879

File: Column 1_078590_20241121_171010.csv
Method:,Column 1,,
Host Date-Time:,21/11/24 @ 17:10:10,,
Header Version:,1,,
System Temp (C):,36.63,,
Detector Temp (C):,34.75,,
Humidity (%):,1.17,,
Lamp PD:,3798,,
Shift Vector Coefficients:,-10.5391,0.0761263,-0.000134223,,
Pixel to Wavelength Coefficients:,1775.68,-0.916766,-0.000235065,,
Serial Number:,5510004,,
Scan Config Name:,Column 1,,
Scan Config Type:,Slew,,
Section 1,,
Start wavelength (nm):,900,,
End wavelength (nm):,1700,,
Pattern Pixel Width (nm):,   7.03,,,,
Exposure (ms):,  0.635,,,,
Digital Resolution:,228,,
Num Repeats:,6,,
PGA Gain:,64,,
Total Measurement Time in sec:,  2.733,,
Wavelength (nm),Absorbance (AU),Reference Signal (unitless),Sample Signal (unitless)
901.51,1.319951,108485,5193
905.376,1.297912,121306,6109
909.237,1.306427,131909,6514
913.095,1.320679,143299,6848
916.948,1.359020,156982,6868
922.079,1.323866,179937,8536
925.923,1.329457,200504,9390
929.762,1.315870,222660,10759
933.597,1.321933,244426,11647
937.427,1.328802,263972,12381
941.254,1.315929,281845,13617
945.076,1.319399,297271,14248
950.165,1.314282,315605,15306
953.978,1.298165,328029,16510
957.786,1.301043,340470,17023
961.59,1.307309,352317,17363
965.389,1.306393,363056,17930
969.185,1.309993,373162,18277
972.976,1.308046,382632,18825
976.763,1.300344,391202,19591
981.806,1.308882,400190,19651
985.583,1.300504,406088,20329
989.355,1.306187,410162,20266
993.124,1.306586,412868,20381
996.888,1.307199,414263,20421
1000.65,1.300357,415476,20806
1004.4,1.305526,415479,20560
1009.41,1.299041,414358,20813
1013.15,1.300004,412923,20695
1016.89,1.305321,411526,20374
1020.63,1.307066,409066,20171
1024.36,1.298345,406777,20465
1028.09,1.310965,404427,19764
1031.82,1.302427,401911,20031
1036.78,1.309450,398410,19538
1040.49,1.307951,396204,19497
1044.2,1.306078,394236,19484
1047.91,1.306046,392042,19377
1051.61,1.301256,389823,19481
1055.31,1.307152,388234,19140
1059,1.305285,387599,19191
1063.92,1.300859,386688,19342
1067.61,1.299279,386598,19408
1071.29,1.306646,387377,19120
1074.96,1.302750,388536,19350
1078.63,1.305053,389855,19313
1082.3,1.301446,391215,19542
1085.96,1.304573,393215,19501
1090.84,1.310682,396270,19378
1094.49,1.309987,398760,19531
1098.14,1.310476,400987,19618
1101.79,1.304398,403477,20018
1105.43,1.302311,406116,20246
1109.06,1.316736,407701,19661
1112.7,1.313869,409859,19896
1117.53,1.316063,412494,19923
1121.15,1.313225,414909,20171
1124.77,1.317064,416559,20073
1128.38,1.314939,418532,20267
1131.99,1.310899,419956,20526
1135.6,1.321025,421946,20148
1139.2,1.320562,423881,20262
1143.99,1.317166,426786,20561
1147.58,1.311176,428617,20936
1151.17,1.321582,431169,20562
1154.75,1.317151,433579,20889
1158.33,1.320643,436264,20850
1161.91,1.311391,439132,21439
1165.48,1.319899,442389,21179
1169.04,1.313975,446101,21650
1173.79,1.318050,451929,21728
1177.34,1.316409,456026,22008
1180.9,1.314537,461306,22359
1184.44,1.312183,467657,22790
1187.99,1.308319,473969,23304
1191.52,1.315604,479856,23201
1195.06,1.313938,487372,23655
1199.76,1.314174,497347,24126
1203.29,1.318973,504311,24195
1206.81,1.314750,511507,24780
1210.33,1.340723,519078,23687
1213.84,1.320424,527163,25207
1217.35,1.313640,534208,25946
1220.85,1.321187,540472,25798
1225.51,1.319625,549929,26344
1229.01,1.320283,556888,26637
1232.5,1.323169,562180,26712
1235.98,1.318151,567975,27301
1239.46,1.318666,574815,27597
1242.94,1.320073,582782,27889
1246.41,1.317824,591476,28452
1251.03,1.317902,604016,29050
1254.5,1.323317,612289,29083
1257.96,1.319490,619125,29668
1261.41,1.322534,624551,29719
1264.86,1.329185,629900,29518
1268.31,1.323600,634345,30111
1271.75,1.323167,638574,30342
1276.33,1.323103,642499,30533
1279.76,1.318919,645905,30992
1283.19,1.329422,648307,30364
1286.61,1.325225,650446,30760
1290.03,1.322120,652132,31061
1293.44,1.328321,653907,30704
1296.85,1.334950,655963,30334
1301.39,1.328639,657349,30843
1304.8,1.326755,657558,30987
1308.19,1.323327,658515,31278
1311.58,1.328657,658804,30910
1314.97,1.327013,659011,31037
1318.36,1.322514,658272,31325
1321.73,1.324768,658022,31151
1326.23,1.328083,657870,30907
1329.6,1.329787,656482,30721
1332.97,1.327783,654926,30790
1336.33,1.330186,653727,30564
1339.69,1.329525,652497,30553
1343.04,1.324474,649913,30788
1346.39,1.323185,647671,30773
1349.73,1.321194,645338,30803
1354.18,1.320844,641175,30629
1357.52,1.324768,638376,30221
1360.85,1.322771,635805,30238
1364.17,1.324725,633413,29989
1367.49,1.321668,631026,30087
1370.81,1.328054,628050,29508
1374.12,1.321367,625034,29822
1378.54,1.326501,620272,29247
1381.84,1.325988,616892,29122
1385.14,1.325437,613613,29004
1388.43,1.317330,611526,29450
1391.72,1.322551,610663,29057
1395.01,1.330357,610634,28538
1398.29,1.323662,611700,29032
1402.66,1.326946,614051,28924
1405.93,1.327596,616268,28985
1409.2,1.326057,617795,29160
1412.46,1.331139,618872,28871
1415.72,1.322794,619795,29475
1418.98,1.328995,620495,29090
1422.23,1.330290,621087,29031
1426.56,1.331061,621375,28993
1429.8,1.331439,621616,28979
1433.04,1.325991,622129,29369
1436.27,1.328746,621526,29155
1439.5,1.332649,621113,28875
1442.72,1.331718,620921,28928
1445.94,1.329898,620270,29019
1450.23,1.336778,618860,28498
1453.44,1.330539,617697,28856
1456.64,1.327579,616264,28986
1459.85,1.332520,614413,28572
1463.04,1.330284,612307,28621
1466.24,1.327138,610032,28722
1469.43,1.339641,607345,27784
1473.67,1.328715,603789,28325
1476.85,1.333895,601175,27868
1480.02,1.331202,597737,27881
1483.19,1.330217,594479,27792
1486.36,1.331164,591232,27580
1489.52,1.331613,587853,27394
1492.68,1.331895,583875,27191
1496.89,1.333597,578062,26815
1500.03,1.333743,574159,26625
1503.18,1.330998,570285,26613
1506.32,1.329127,565444,26501
1509.45,1.330578,560571,26185
1512.58,1.339145,555821,25456
1515.71,1.335185,550344,25436
1519.87,1.335203,543983,25141
1522.99,1.332660,538764,25046
1526.1,1.329820,533692,24973
1529.21,1.332113,527902,24572
1532.32,1.331219,521886,24342
1535.42,1.329530,515888,24156
1538.51,1.328889,509987,23915
1541.6,1.330071,503936,23567
1545.72,1.331157,494694,23077
1548.8,1.330440,488378,22820
1551.88,1.335917,481832,22232
1554.95,1.333886,474989,22019
1558.02,1.331999,467818,21781
1561.08,1.330463,460730,21527
1564.15,1.329737,454170,21256
1568.22,1.331464,444181,20706
1571.27,1.321969,436947,20819
1574.32,1.326251,429598,20268
1577.36,1.327220,422039,19867
1580.4,1.330960,414375,19339
1583.43,1.326985,406354,19139
1586.46,1.327400,398475,18750
1590.49,1.320090,388982,18614
1593.51,1.322865,380708,18102
1596.53,1.324769,372727,17645
1599.54,1.326180,365060,17226
1602.55,1.332959,357543,16610
1605.55,1.325011,349495,16536
1608.55,1.323543,341154,16196
1612.54,1.315330,330877,16008
1615.53,1.319667,322904,15467
1618.51,1.313127,315116,15323
1621.49,1.319184,307217,14732
1624.47,1.311303,299481,14624
1627.44,1.307428,292112,14392
1630.41,1.320889,284245,13577
1634.36,1.309767,274079,13431
1637.32,1.314742,266916,12931
1640.27,1.323115,259612,12337
1643.22,1.318816,251804,12085
1646.16,1.304255,244348,12127
1649.1,1.312337,236703,11531
1652.04,1.315252,228171,11041
1655.95,1.301207,215408,10766
1658.88,1.291508,204937,10474
1661.8,1.303631,193395,9612
1664.72,1.269504,179728,9663
1667.63,1.254376,163642,9110
1670.54,1.237294,146312,8472
1673.44,1.224225,128451,7665
1677.31,1.186654,105080,6837
1680.21,1.178963,88906,5888
1683.1,1.199841,75033,4736
1685.99,1.136112,63520,4643
1688.87,1.202715,53714,3368
1691.75,1.174743,45653,3053
1694.62,1.173624,39137,2624
1697.49,1.155512,33776,2361
1701.31,1.200176,28175,1777

File: Column 1_078591_20241121_171013.csv
Method:,Column 1,,
Host Date-Time:,21/11/24 @ 17:10:13,,
Header Version:,1,,
System Temp (C):,36.6,,
Detector Temp (C):,34.77,,
Humidity (%):,1.17,,
Lamp PD:,3798,,
Shift Vector Coefficients:,-10.5391,0.0761263,-0.000134223,,
Pixel to Wavelength Coefficients:,1775.68,-0.916766,-0.000235065,,
Serial Number:,5510004,,
Scan Config Name:,Column 1,,
Scan Config Type:,Slew,,
Section 1,,
Start wavelength (nm):,900,,
End wavelength (nm):,1700,,
Pattern Pixel Width (nm):,   7.03,,,,
Exposure (ms):,  0.635,,,,
Digital Resolution:,228,,
Num Repeats:,6,,
PGA Gain:,64,,
Total Measurement Time in sec:,  2.729,,
Wavelength (nm),Absorbance (AU),Reference Signal (unitless),Sample Signal (unitless)
901.51,1.320537,108485,5186
905.376,1.329763,121306,5677
909.237,1.302841,131909,6568
913.095,1.329780,143299,6706
916.948,1.323985,156982,7445
922.079,1.317603,179937,8660
925.923,1.329642,200504,9386
929.762,1.306250,222660,11000
933.597,1.329608,244426,11443
937.427,1.315333,263972,12771
941.254,1.305249,281845,13956
945.076,1.311126,297271,14522
950.165,1.305908,315605,15604
953.978,1.303671,328029,16302
957.786,1.316626,340470,16423
961.59,1.303920,352317,17499
965.389,1.307412,363056,17888
969.185,1.315083,373162,18064
972.976,1.306940,382632,18873
976.763,1.304085,391202,19423
981.806,1.314868,400190,19382
985.583,1.304604,406088,20138
989.355,1.292394,410162,20920
993.124,1.303951,412868,20505
996.888,1.302987,414263,20620
1000.65,1.313109,415476,20204
1004.4,1.303230,415479,20669
1009.41,1.304015,414358,20576
1013.15,1.305877,412923,20417
1016.89,1.316571,411526,19853
1020.63,1.312809,409066,19906
1024.36,1.311290,406777,19864
1028.09,1.300179,404427,20261
1031.82,1.304078,401911,19955
1036.78,1.304170,398410,19777
1040.49,1.303607,396204,19693
1044.2,1.297821,394236,19858
1047.91,1.306203,392042,19370
1051.61,1.305693,389823,19283
1055.31,1.299304,388234,19489
1059,1.298459,387599,19495
1063.92,1.300680,386688,19350
1067.61,1.314838,386598,18725
1071.29,1.307897,387377,19065
1074.96,1.303177,388536,19331
1078.63,1.313775,389855,18929
1082.3,1.308820,391215,19213
1085.96,1.298909,393215,19757
1090.84,1.308915,396270,19457
1094.49,1.311770,398760,19451
1098.14,1.301384,400987,20033
1101.79,1.310120,403477,19756
1105.43,1.307490,406116,20006
1109.06,1.313984,407701,19786
1112.7,1.310195,409859,20065
1117.53,1.318314,412494,19820
1121.15,1.306220,414909,20499
1124.77,1.318321,416559,20015
1128.38,1.312738,418532,20370
1131.99,1.310477,419956,20546
1135.6,1.316970,421946,20337
1139.2,1.316232,423881,20465
1143.99,1.312774,426786,20770
1147.58,1.304833,428617,21244
1151.17,1.311684,431169,21036
1154.75,1.315387,433579,20974
1158.33,1.314152,436264,21164
1161.91,1.309753,439132,21520
1165.48,1.310547,442389,21640
1169.04,1.312493,446101,21724
1173.79,1.309265,451929,22172
1177.34,1.308587,456026,22408
1180.9,1.315120,461306,22329
1184.44,1.312374,467657,22780
1187.99,1.316427,473969,22873
1191.52,1.315604,479856,23201
1195.06,1.315464,487372,23572
1199.76,1.321691,497347,23712
1203.29,1.317575,504311,24273
1206.81,1.314715,511507,24782
1210.33,1.315057,519078,25129
1213.84,1.314061,527163,25579
1217.35,1.323219,534208,25380
1220.85,1.318084,540472,25983
1225.51,1.322785,549929,26153
1229.01,1.327732,556888,26184
1232.5,1.310527,562180,27501
1235.98,1.323239,567975,26983
1239.46,1.317990,574815,27640
1242.94,1.314626,582782,28241
1246.41,1.322567,591476,28143
1251.03,1.313041,604016,29377
1254.5,1.321707,612289,29191
1257.96,1.324688,619125,29315
1261.41,1.323778,624551,29634
1264.86,1.326164,629900,29724
1268.31,1.323240,634345,30136
1271.75,1.323253,638574,30336
1276.33,1.325871,642499,30339
1279.76,1.327752,645905,30368
1283.19,1.325364,648307,30649
1286.61,1.330009,650446,30423
1290.03,1.319917,652132,31219
1293.44,1.323454,653907,31050
1296.85,1.326205,655963,30951
1301.39,1.324282,657349,31154
1304.8,1.324211,657558,31169
1308.19,1.322203,658515,31359
1311.58,1.325814,658804,31113
1314.97,1.326831,659011,31050
1318.36,1.325910,658272,31081
1321.73,1.325745,658022,31081
1326.23,1.328857,657870,30852
1329.6,1.328870,656482,30786
1332.97,1.319913,654926,31353
1336.33,1.327354,653727,30764
1339.69,1.328432,652497,30630
1343.04,1.321886,649913,30972
1346.39,1.332817,647671,30098
1349.73,1.323357,645338,30650
1354.18,1.324961,641175,30340
1357.52,1.323878,638376,30283
1360.85,1.321795,635805,30306
1364.17,1.322616,633413,30135
1367.49,1.326648,631026,29744
1370.81,1.329233,628050,29428
1374.12,1.324055,625034,29638
1378.54,1.322142,620272,29542
1381.84,1.318434,616892,29633
1385.14,1.322229,613613,29219
1388.43,1.317949,611526,29408
1391.72,1.325370,610663,28869
1395.01,1.321963,610634,29095
1398.29,1.328914,611700,28683
1402.66,1.320596,614051,29350
1405.93,1.324342,616268,29203
1409.2,1.323829,617795,29310
1412.46,1.324926,618872,29287
1415.72,1.328266,619795,29106
1418.98,1.334403,620495,28730
1422.23,1.326670,621087,29274
1426.56,1.331450,621375,28967
1429.8,1.330615,621616,29034
1433.04,1.329257,622129,29149
1436.27,1.332456,621526,28907
1439.5,1.330039,621113,29049
1442.72,1.330878,620921,28984
1445.94,1.331007,620270,28945
1450.23,1.328446,618860,29050
1453.44,1.329187,617697,28946
1456.64,1.325173,616264,29147
1459.85,1.330881,614413,28680
1463.04,1.326417,612307,28877
1466.24,1.331194,610032,28455
1469.43,1.329277,607345,28455
1473.67,1.328639,603789,28330
1476.85,1.329800,601175,28132
1480.02,1.330330,597737,27937
1483.19,1.330139,594479,27797
1486.36,1.334801,591232,27350
1489.52,1.328092,587853,27617
1492.68,1.332582,583875,27148
1496.89,1.335740,578062,26683
1500.03,1.331481,574159,26764
1503.18,1.326340,570285,26900
1506.32,1.337316,565444,26006
1509.45,1.328477,560571,26312
1512.58,1.328644,555821,26079
1515.71,1.334077,550344,25501
1519.87,1.333530,543983,25238
1522.99,1.330930,538764,25146
1526.1,1.330098,533692,24957
1529.21,1.329364,527902,24728
1532.32,1.325195,521886,24682
1535.42,1.326663,515888,24316
1538.51,1.337824,509987,23428
1541.6,1.330163,503936,23562
1545.72,1.329936,494694,23142
1548.8,1.325916,488378,23059
1551.88,1.327655,481832,22659
1554.95,1.337332,474989,21845
1558.02,1.331362,467818,21813
1561.08,1.333297,460730,21387
1564.15,1.326054,454170,21437
1568.22,1.336251,444181,20479
1571.27,1.329205,436947,20475
1574.32,1.327324,429598,20218
1577.36,1.323975,422039,20016
1580.4,1.325536,414375,19582
1583.43,1.329900,406354,19011
1586.46,1.330398,398475,18621
1590.49,1.331891,388982,18115
1593.51,1.323610,380708,18071
1596.53,1.330667,372727,17407
1599.54,1.321765,365060,17402
1602.55,1.325879,357543,16883
1605.55,1.322131,349495,16646
1608.55,1.318663,341154,16379
1612.54,1.326960,330877,15585
1615.53,1.324638,322904,15291
1618.51,1.312843,315116,15333
1621.49,1.316538,307217,14822
1624.47,1.322768,299481,14243
1627.44,1.316392,292112,14098
1630.41,1.305491,284245,14067
1634.36,1.312557,274079,13345
1637.32,1.307020,266916,13163
1640.27,1.309633,259612,12726
1643.22,1.302904,251804,12536
1646.16,1.297857,244348,12307
1649.1,1.311283,236703,11559
1652.04,1.297978,228171,11489
1655.95,1.297672,215408,10854
1658.88,1.286683,204937,10591
1661.8,1.275171,193395,10263
1664.72,1.288145,179728,9257
1667.63,1.252426,163642,9151
1670.54,1.254922,146312,8135
1673.44,1.208261,128451,7952
1677.31,1.201845,105080,6602
1680.21,1.194736,88906,5678
1683.1,1.155507,75033,5245
1685.99,1.131923,63520,4688
1688.87,1.134702,53714,3939
1691.75,1.177740,45653,3032
1694.62,1.108288,39137,3050
1697.49,1.192148,33776,2170
1701.31,1.149703,28175,1996