Folder: textile_sorting_NIRSCAN_/ML/samples/unknown (part 75)

File: Column 1_078518_20241121_170636.csv
Method:,Column 1,,
Host Date-Time:,21/11/24 @ 17:6:36,,
Header Version:,1,,
System Temp (C):,34.92,,
Detector Temp (C):,33.95,,
Humidity (%):,1.96,,
Lamp PD:,3800,,
Shift Vector Coefficients:,-10.5391,0.0761263,-0.000134223,,
Pixel to Wavelength Coefficients:,1775.68,-0.916766,-0.000235065,,
Serial Number:,5510004,,
Scan Config Name:,Column 1,,
Scan Config Type:,Slew,,
Section 1,,
Start wavelength (nm):,900,,
End wavelength (nm):,1700,,
Pattern Pixel Width (nm):,   7.03,,,,
Exposure (ms):,  0.635,,,,
Digital Resolution:,228,,
Num Repeats:,6,,
PGA Gain:,64,,
Total Measurement Time in sec:,  2.723,,
Wavelength (nm),Absorbance (AU),Reference Signal (unitless),Sample Signal (unitless)
901.51,1.303620,108485,5392
905.376,1.311121,121306,5926
909.237,1.320934,131909,6300
913.095,1.340201,143299,6547
916.948,1.320962,156982,7497
922.079,1.321026,179937,8592
925.923,1.297931,200504,10097
929.762,1.329316,222660,10431
933.597,1.313477,244426,11876
937.427,1.312858,263972,12844
941.254,1.315865,281845,13619
945.076,1.318272,297271,14285
950.165,1.320109,315605,15102
953.978,1.312417,328029,15977
957.786,1.301834,340470,16992
961.59,1.304318,352317,17483
965.389,1.307922,363056,17867
969.185,1.299545,373162,18722
972.976,1.308231,382632,18817
976.763,1.306934,391202,19296
981.806,1.308153,400190,19684
985.583,1.301402,406088,20287
989.355,1.301880,410162,20468
993.124,1.306522,412868,20384
996.888,1.307327,414263,20415
1000.65,1.301884,415476,20733
1004.4,1.300089,415479,20819
1009.41,1.305050,414358,20527
1013.15,1.305473,412923,20436
1016.89,1.306730,411526,20308
1020.63,1.311502,409066,19966
1024.36,1.301818,406777,20302
1028.09,1.304856,404427,20044
1031.82,1.304122,401911,19953
1036.78,1.312036,398410,19422
1040.49,1.307862,396204,19501
1044.2,1.314268,394236,19120
1047.91,1.310031,392042,19200
1051.61,1.308563,389823,19156
1055.31,1.301650,388234,19384
1059,1.302803,387599,19301
1063.92,1.306509,386688,19092
1067.61,1.299973,386598,19377
1071.29,1.305398,387377,19175
1074.96,1.310472,388536,19009
1078.63,1.315937,389855,18835
1082.3,1.318211,391215,18802
1085.96,1.310673,393215,19229
1090.84,1.312344,396270,19304
1094.49,1.316078,398760,19259
1098.14,1.314971,400987,19416
1101.79,1.314628,403477,19552
1105.43,1.311371,406116,19828
1109.06,1.321221,407701,19459
1112.7,1.304433,409859,20333
1117.53,1.316477,412494,19904
1121.15,1.312000,414909,20228
1124.77,1.318451,416559,20009
1128.38,1.322374,418532,19923
1131.99,1.315815,419956,20295
1135.6,1.313482,421946,20501
1139.2,1.317167,423881,20421
1143.99,1.308012,426786,20999
1147.58,1.310367,428617,20975
1151.17,1.318279,431169,20719
1154.75,1.315491,433579,20969
1158.33,1.318192,436264,20968
1161.91,1.311472,439132,21435
1165.48,1.319612,442389,21193
1169.04,1.312433,446101,21727
1173.79,1.312371,451929,22014
1177.34,1.309343,456026,22369
1180.9,1.317714,461306,22196
1184.44,1.321642,467657,22299
1187.99,1.314532,473969,22973
1191.52,1.319685,479856,22984
1195.06,1.322298,487372,23204
1199.76,1.317626,497347,23935
1203.29,1.317110,504311,24299
1206.81,1.317793,511507,24607
1210.33,1.317988,519078,24960
1213.84,1.311117,527163,25753
1217.35,1.319165,534208,25618
1220.85,1.319960,540472,25871
1225.51,1.323151,549929,26131
1229.01,1.318428,556888,26751
1232.5,1.321417,562180,26820
1235.98,1.320208,567975,27172
1239.46,1.314220,574815,27881
1242.94,1.320806,582782,27842
1246.41,1.318084,591476,28435
1251.03,1.316499,604016,29144
1254.5,1.322348,612289,29148
1257.96,1.319534,619125,29665
1261.41,1.322212,624551,29741
1264.86,1.317987,629900,30289
1268.31,1.317769,634345,30518
1271.75,1.325679,638574,30167
1276.33,1.314275,642499,31160
1279.76,1.315555,645905,31233
1283.19,1.322089,648307,30881
1286.61,1.327561,650446,30595
1290.03,1.322078,652132,31064
1293.44,1.331572,653907,30475
1296.85,1.325154,655963,31026
1301.39,1.327248,657349,30942
1304.8,1.323515,657558,31219
1308.19,1.325540,658515,31119
1311.58,1.323934,658804,31248
1314.97,1.329356,659011,30870
1318.36,1.328475,658272,30898
1321.73,1.325438,658022,31103
1326.23,1.325240,657870,31110
1329.6,1.328686,656482,30799
1332.97,1.324326,654926,31036
1336.33,1.326719,653727,30809
1339.69,1.323497,652497,30980
1343.04,1.326241,649913,30663
1346.39,1.324527,647671,30678
1349.73,1.325459,645338,30502
1354.18,1.322051,641175,30544
1357.52,1.324193,638376,30261
1360.85,1.330919,635805,29676
1364.17,1.321263,633413,30229
1367.49,1.328756,631026,29600
1370.81,1.321510,628050,29956
1374.12,1.320421,625034,29887
1378.54,1.327021,620272,29212
1381.84,1.325839,616892,29132
1385.14,1.325272,613613,29015
1388.43,1.323942,611526,29005
1391.72,1.321580,610663,29122
1395.01,1.321500,610634,29126
1398.29,1.319582,611700,29306
1402.66,1.321708,614051,29275
1405.93,1.330422,616268,28797
1409.2,1.324481,617795,29266
1412.46,1.330583,618872,28908
1415.72,1.330405,619795,28963
1418.98,1.330131,620495,29014
1422.23,1.327561,621087,29214
1426.56,1.329909,621375,29070
1429.8,1.332129,621616,28933
1433.04,1.327042,622129,29298
1436.27,1.333434,621526,28842
1439.5,1.330383,621113,29026
1442.72,1.334474,620921,28745
1445.94,1.330872,620270,28954
1450.23,1.330319,618860,28925
1453.44,1.332727,617697,28711
1456.64,1.330902,616264,28765
1459.85,1.326017,614413,29003
1463.04,1.328482,612307,28740
1466.24,1.333689,610032,28292
1469.43,1.329720,607345,28426
1473.67,1.327597,603789,28398
1476.85,1.324659,601175,28467
1480.02,1.332825,597737,27777
1483.19,1.329436,594479,27842
1486.36,1.331053,591232,27587
1489.52,1.332899,587853,27313
1492.68,1.329363,583875,27350
1496.89,1.334521,578062,26758
1500.03,1.326897,574159,27048
1503.18,1.340618,570285,26030
1506.32,1.337249,565444,26010
1509.45,1.333557,560571,26006
1512.58,1.331484,555821,25909
1515.71,1.329132,550344,25793
1519.87,1.334719,543983,25169
1522.99,1.335758,538764,24868
1526.1,1.336073,533692,24616
1529.21,1.327734,527902,24821
1532.32,1.331202,521886,24343
1535.42,1.331693,515888,24036
1538.51,1.330399,509987,23832
1541.6,1.327664,503936,23698
1545.72,1.326050,494694,23350
1548.8,1.333956,488378,22636
1551.88,1.332551,481832,22405
1554.95,1.329822,474989,22226
1558.02,1.328880,467818,21938
1561.08,1.328852,460730,21607
1564.15,1.325063,454170,21486
1568.22,1.327351,444181,20903
1571.27,1.335185,436947,20195
1574.32,1.325074,429598,20323
1577.36,1.336031,422039,19468
1580.4,1.342174,414375,18846
1583.43,1.330082,406354,19003
1586.46,1.326474,398475,18790
1590.49,1.326767,388982,18330
1593.51,1.317216,380708,18339
1596.53,1.322462,372727,17739
1599.54,1.319624,365060,17488
1602.55,1.322982,357543,16996
1605.55,1.322862,349495,16618
1608.55,1.330271,341154,15947
1612.54,1.313381,330877,16080
1615.53,1.317762,322904,15535
1618.51,1.322988,315116,14979
1621.49,1.329083,307217,14400
1624.47,1.312880,299481,14571
1627.44,1.324539,292112,13836
1630.41,1.320409,284245,13592
1634.36,1.306065,274079,13546
1637.32,1.325040,266916,12628
1640.27,1.315750,259612,12548
1643.22,1.308693,251804,12370
1646.16,1.324113,244348,11585
1649.1,1.318596,236703,11366
1652.04,1.308384,228171,11217
1655.95,1.288879,215408,11076
1658.88,1.306182,204937,10126
1661.8,1.294555,193395,9815
1664.72,1.285293,179728,9318
1667.63,1.255474,163642,9087
1670.54,1.259754,146312,8045
1673.44,1.232635,128451,7518
1677.31,1.177043,105080,6990
1680.21,1.179111,88906,5886
1683.1,1.131899,75033,5538
1685.99,1.192250,63520,4080
1688.87,1.190259,53714,3466
1691.75,1.204168,45653,2853
1694.62,1.169506,39137,2649
1697.49,1.139797,33776,2448
1701.31,1.131801,28175,2080

File: Column 1_078519_20241121_170639.csv
Method:,Column 1,,
Host Date-Time:,21/11/24 @ 17:6:39,,
Header Version:,1,,
System Temp (C):,34.98,,
Detector Temp (C):,33.98,,
Humidity (%):,1.96,,
Lamp PD:,3800,,
Shift Vector Coefficients:,-10.5391,0.0761263,-0.000134223,,
Pixel to Wavelength Coefficients:,1775.68,-0.916766,-0.000235065,,
Serial Number:,5510004,,
Scan Config Name:,Column 1,,
Scan Config Type:,Slew,,
Section 1,,
Start wavelength (nm):,900,,
End wavelength (nm):,1700,,
Pattern Pixel Width (nm):,   7.03,,,,
Exposure (ms):,  0.635,,,,
Digital Resolution:,228,,
Num Repeats:,6,,
PGA Gain:,64,,
Total Measurement Time in sec:,  2.727,,
Wavelength (nm),Absorbance (AU),Reference Signal (unitless),Sample Signal (unitless)
901.51,1.321375,108485,5176
905.376,1.349563,121306,5424
909.237,1.334589,131909,6105
913.095,1.310587,143299,7009
916.948,1.310489,156982,7680
922.079,1.314455,179937,8723
925.923,1.340702,200504,9150
929.762,1.306842,222660,10985
933.597,1.324476,244426,11579
937.427,1.327821,263972,12409
941.254,1.302056,281845,14059
945.076,1.313014,297271,14459
950.165,1.318101,315605,15172
953.978,1.312961,328029,15957
957.786,1.310978,340470,16638
961.59,1.309541,352317,17274
965.389,1.306393,363056,17930
969.185,1.309257,373162,18308
972.976,1.313829,382632,18576
976.763,1.306529,391202,19314
981.806,1.308926,400190,19649
985.583,1.307221,406088,20017
989.355,1.306745,410162,20240
993.124,1.312550,412868,20103
996.888,1.299798,414263,20772
1000.65,1.303857,415476,20639
1004.4,1.315742,415479,20082
1009.41,1.316411,414358,19997
1013.15,1.304645,412923,20475
1016.89,1.324095,411526,19512
1020.63,1.303485,409066,20338
1024.36,1.316768,406777,19615
1028.09,1.303990,404427,20084
1031.82,1.309421,401911,19711
1036.78,1.308518,398410,19580
1040.49,1.304777,396204,19640
1044.2,1.301555,394236,19688
1047.91,1.308000,392042,19290
1051.61,1.319467,389823,18681
1055.31,1.303289,388234,19311
1059,1.309012,387599,19027
1063.92,1.311566,386688,18871
1067.61,1.308872,386598,18984
1071.29,1.310983,387377,18930
1074.96,1.311341,388536,18971
1078.63,1.304918,389855,19319
1082.3,1.306768,391215,19304
1085.96,1.308533,393215,19324
1090.84,1.312344,396270,19304
1094.49,1.315627,398760,19279
1098.14,1.315351,400987,19399
1101.79,1.314228,403477,19570
1105.43,1.306622,406116,20046
1109.06,1.324132,407701,19329
1112.7,1.311691,409859,19996
1117.53,1.322365,412494,19636
1121.15,1.319034,414909,19903
1124.77,1.314669,416559,20184
1128.38,1.320113,418532,20027
1131.99,1.308789,419956,20626
1135.6,1.315840,421946,20390
1139.2,1.320069,423881,20285
1143.99,1.317419,426786,20549
1147.58,1.316498,428617,20681
1151.17,1.318111,431169,20727
1154.75,1.316860,433579,20903
1158.33,1.312677,436264,21236
1161.91,1.317162,439132,21156
1165.48,1.312861,442389,21525
1169.04,1.316853,446101,21507
1173.79,1.312470,451929,22009
1177.34,1.315010,456026,22079
1180.9,1.316483,461306,22259
1184.44,1.318208,467657,22476
1187.99,1.322180,473969,22572
1191.52,1.315529,479856,23205
1195.06,1.312032,487372,23759
1199.76,1.317989,497347,23915
1203.29,1.314882,504311,24424
1206.81,1.315663,511507,24728
1210.33,1.322254,519078,24716
1213.84,1.312096,527163,25695
1217.35,1.314763,534208,25879
1220.85,1.330391,540472,25257
1225.51,1.323234,549929,26126
1229.01,1.317325,556888,26819
1232.5,1.324602,562180,26624
1235.98,1.319011,567975,27247
1239.46,1.320006,574815,27512
1242.94,1.317140,582782,28078
1246.41,1.319445,591476,28346
1251.03,1.320812,604016,28856
1254.5,1.323751,612289,29054
1257.96,1.325801,619125,29240
1261.41,1.327679,624551,29369
1264.86,1.326559,629900,29697
1268.31,1.322045,634345,30219
1271.75,1.323353,638574,30329
1276.33,1.323302,642499,30519
1279.76,1.324987,645905,30562
1283.19,1.324954,648307,30678
1286.61,1.325804,650446,30719
1290.03,1.325545,652132,30817
1293.44,1.324687,653907,30962
1296.85,1.326345,655963,30941
1301.39,1.323836,657349,31186
1304.8,1.326895,657558,30977
1308.19,1.323882,658515,31238
1311.58,1.330982,658804,30745
1314.97,1.329652,659011,30849
1318.36,1.324460,658272,31185
1321.73,1.325885,658022,31071
1326.23,1.328364,657870,30887
1329.6,1.322790,656482,31220
1332.97,1.326895,654926,30853
1336.33,1.329632,653727,30603
1339.69,1.335075,652497,30165
1343.04,1.323854,649913,30832
1346.39,1.324924,647671,30650
1349.73,1.329737,645338,30203
1354.18,1.326696,641175,30219
1357.52,1.325616,638376,30162
1360.85,1.326536,635805,29977
1364.17,1.328112,633413,29756
1367.49,1.331419,631026,29419
1370.81,1.320410,628050,30032
1374.12,1.324451,625034,29611
1378.54,1.327006,620272,29213
1381.84,1.320873,616892,29467
1385.14,1.326381,613613,28941
1388.43,1.324586,611526,28962
1391.72,1.324934,610663,28898
1395.01,1.327415,610634,28732
1398.29,1.330932,611700,28550
1402.66,1.335912,614051,28333
1405.93,1.322058,616268,29357
1409.2,1.329316,617795,28942
1412.46,1.326992,618872,29148
1415.72,1.328743,619795,29074
1418.98,1.326939,620495,29228
1422.23,1.327829,621087,29196
1426.56,1.330208,621375,29050
1429.8,1.327322,621616,29255
1433.04,1.331977,622129,28967
1436.27,1.330956,621526,29007
1439.5,1.334216,621113,28771
1442.72,1.334368,620921,28752
1445.94,1.329240,620270,29063
1450.23,1.328088,618860,29074
1453.44,1.326689,617697,29113
1456.64,1.329365,616264,28867
1459.85,1.327217,614413,28923
1463.04,1.326447,612307,28875
1466.24,1.332218,610032,28388
1469.43,1.339844,607345,27771
1473.67,1.336684,603789,27810
1476.85,1.333506,601175,27893
1480.02,1.333560,597737,27730
1483.19,1.336434,594479,27397
1486.36,1.327479,591232,27815
1489.52,1.329762,587853,27511
1492.68,1.328950,583875,27376
1496.89,1.330032,578062,27036
1500.03,1.324160,574159,27219
1503.18,1.331390,570285,26589
1506.32,1.338453,565444,25938
1509.45,1.341104,560571,25558
1512.58,1.334900,555821,25706
1515.71,1.338510,550344,25242
1519.87,1.333720,543983,25227
1522.99,1.337175,538764,24787
1526.1,1.333663,533692,24753
1529.21,1.330437,527902,24667
1532.32,1.328037,521886,24521
1535.42,1.333794,515888,23920
1538.51,1.335052,509987,23578
1541.6,1.335262,503936,23287
1545.72,1.341710,494694,22523
1548.8,1.331488,488378,22765
1551.88,1.334260,481832,22317
1554.95,1.332232,474989,22103
1558.02,1.330486,467818,21857
1561.08,1.337869,460730,21163
1564.15,1.333595,454170,21068
1568.22,1.328058,444181,20869
1571.27,1.320553,436947,20887
1574.32,1.326294,429598,20266
1577.36,1.337305,422039,19411
1580.4,1.342359,414375,18838
1583.43,1.336784,406354,18712
1586.46,1.321122,398475,19023
1590.49,1.329095,388982,18232
1593.51,1.324789,380708,18022
1596.53,1.330892,372727,17398
1599.54,1.338427,365060,16747
1602.55,1.325339,357543,16904
1605.55,1.330428,349495,16331
1608.55,1.323034,341154,16215
1612.54,1.325485,330877,15638
1615.53,1.324382,322904,15300
1618.51,1.331508,315116,14688
1621.49,1.315017,307217,14874
1624.47,1.322768,299481,14243
1627.44,1.315407,292112,14130
1630.41,1.320314,284245,13595
1634.36,1.318026,274079,13178
1637.32,1.318250,266916,12827
1640.27,1.314782,259612,12576
1643.22,1.308623,251804,12372
1646.16,1.305511,244348,12092
1649.1,1.319974,236703,11330
1652.04,1.320436,228171,10910
1655.95,1.327995,215408,10122
1658.88,1.294253,204937,10408
1661.8,1.290372,193395,9910
1664.72,1.266012,179728,9741
1667.63,1.250863,163642,9184
1670.54,1.248826,146312,8250
1673.44,1.223433,128451,7679
1677.31,1.221215,105080,6314
1680.21,1.187906,88906,5768
1683.1,1.189690,75033,4848
1685.99,1.186225,63520,4137
1688.87,1.159194,53714,3723
1691.75,1.161297,45653,3149
1694.62,1.204309,39137,2445
1697.49,1.216854,33776,2050
1701.31,1.179418,28175,1864

File: Column 1_078521_20241121_170645.csv
Method:,Column 1,,
Host Date-Time:,21/11/24 @ 17:6:45,,
Header Version:,1,,
System Temp (C):,35.12,,
Detector Temp (C):,33.96,,
Humidity (%):,2.01,,
Lamp PD:,3800,,
Shift Vector Coefficients:,-10.5391,0.0761263,-0.000134223,,
Pixel to Wavelength Coefficients:,1775.68,-0.916766,-0.000235065,,
Serial Number:,5510004,,
Scan Config Name:,Column 1,,
Scan Config Type:,Slew,,
Section 1,,
Start wavelength (nm):,900,,
End wavelength (nm):,1700,,
Pattern Pixel Width (nm):,   7.03,,,,
Exposure (ms):,  0.635,,,,
Digital Resolution:,228,,
Num Repeats:,6,,
PGA Gain:,64,,
Total Measurement Time in sec:,  2.724,,
Wavelength (nm),Absorbance (AU),Reference Signal (unitless),Sample Signal (unitless)
901.51,1.298894,108485,5451
905.376,1.336470,121306,5590
909.237,1.316544,131909,6364
913.095,1.326232,143299,6761
916.948,1.327029,156982,7393
922.079,1.310391,179937,8805
925.923,1.313966,200504,9731
929.762,1.314983,222660,10781
933.597,1.318479,244426,11740
937.427,1.328031,263972,12403
941.254,1.322517,281845,13412
945.076,1.305038,297271,14727
950.165,1.317729,315605,15185
953.978,1.304818,328029,16259
957.786,1.307209,340470,16783
961.59,1.303176,352317,17529
965.389,1.298758,363056,18248
969.185,1.299360,373162,18730
972.976,1.302727,382632,19057
976.763,1.310618,391202,19133
981.806,1.305448,400190,19807
985.583,1.305727,406088,20086
989.355,1.302390,410162,20444
993.124,1.302851,412868,20557
996.888,1.301033,414263,20713
1000.65,1.308937,415476,20399
1004.4,1.300256,415479,20811
1009.41,1.301363,414358,20702
1013.15,1.299102,412923,20738
1016.89,1.306987,411526,20296
1020.63,1.301525,409066,20430
1024.36,1.306809,406777,20070
1028.09,1.299387,404427,20298
1031.82,1.303187,401911,19996
1036.78,1.304302,398410,19771
1040.49,1.303342,396204,19705
1044.2,1.307015,394236,19442
1047.91,1.304726,392042,19436
1051.61,1.306144,389823,19263
1055.31,1.304979,388234,19236
1059,1.306055,387599,19157
1063.92,1.295282,386688,19592
1067.61,1.306226,386598,19100
1071.29,1.309106,387377,19012
1074.96,1.307376,388536,19145
1078.63,1.310735,389855,19062
1082.3,1.314669,391215,18956
1085.96,1.310673,393215,19229
1090.84,1.306844,396270,19550
1094.49,1.311256,398760,19474
1098.14,1.307255,400987,19764
1101.79,1.312037,403477,19669
1105.43,1.310212,406116,19881
1109.06,1.310377,407701,19951
1112.7,1.305995,409859,20260
1117.53,1.314019,412494,20017
1121.15,1.315319,414909,20074
1124.77,1.314712,416559,20182
1128.38,1.310781,418532,20462
1131.99,1.319101,419956,20142
1135.6,1.314075,421946,20473
1139.2,1.314390,423881,20552
1143.99,1.322843,426786,20294
1147.58,1.312422,428617,20876
1151.17,1.308906,431169,21171
1154.75,1.304771,433579,21493
1158.33,1.313147,436264,21213
1161.91,1.313971,439132,21312
1165.48,1.311109,442389,21612
1169.04,1.314357,446101,21631
1173.79,1.318731,451929,21694
1177.34,1.307483,456026,22465
1180.9,1.308863,461306,22653
1184.44,1.312984,467657,22748
1187.99,1.317834,473969,22799
1191.52,1.306289,479856,23704
1195.06,1.312837,487372,23715
1199.76,1.317281,497347,23954
1203.29,1.320087,504311,24133
1206.81,1.315733,511507,24724
1210.33,1.315421,519078,25108
1213.84,1.319804,527163,25243
1217.35,1.314713,534208,25882
1220.85,1.340710,540472,24664
1225.51,1.321972,549929,26202
1229.01,1.319501,556888,26685
1232.5,1.321255,562180,26830
1235.98,1.317769,567975,27325
1239.46,1.313846,574815,27905
1242.94,1.307352,582782,28718
1246.41,1.313586,591476,28731
1251.03,1.324865,604016,28588
1254.5,1.320875,612289,29247
1257.96,1.323993,619125,29362
1261.41,1.318505,624551,29996
1264.86,1.322179,629900,29998
1268.31,1.326596,634345,29904
1271.75,1.319902,638574,30571
1276.33,1.322506,642499,30575
1279.76,1.326824,645905,30433
1283.19,1.323131,648307,30807
1286.61,1.325239,650446,30759
1290.03,1.324518,652132,30890
1293.44,1.325234,653907,30923
1296.85,1.329331,655963,30729
1301.39,1.325441,657349,31071
1304.8,1.327428,657558,30939
1308.19,1.325624,658515,31113
1311.58,1.321260,658804,31441
1314.97,1.329919,659011,30830
1318.36,1.328475,658272,30898
1321.73,1.327299,658022,30970
1326.23,1.324654,657870,31152
1329.6,1.325189,656482,31048
1332.97,1.324396,654926,31031
1336.33,1.324974,653727,30933
1339.69,1.329397,652497,30562
1343.04,1.327389,649913,30582
1346.39,1.329797,647671,30308
1349.73,1.322324,645338,30723
1354.18,1.325305,641175,30316
1357.52,1.320321,638376,30532
1360.85,1.319779,635805,30447
1364.17,1.319657,633413,30341
1367.49,1.324681,631026,29879
1370.81,1.325677,628050,29670
1374.12,1.323323,625034,29688
1378.54,1.324368,620272,29391
1381.84,1.321035,616892,29456
1385.14,1.331635,613613,28593
1388.43,1.330201,611526,28590
1391.72,1.322865,610663,29036
1395.01,1.316533,610634,29461
1398.29,1.318768,611700,29361
1402.66,1.320286,614051,29371
1405.93,1.323124,616268,29285
1409.2,1.325060,617795,29227
1412.46,1.329083,618872,29008
1415.72,1.321455,619795,29566
1418.98,1.325663,620495,29314
1422.23,1.329498,621087,29084
1426.56,1.328969,621375,29133
1429.8,1.328050,621616,29206
1433.04,1.327087,622129,29295
1436.27,1.332066,621526,28933
1439.5,1.327342,621113,29230
1442.72,1.328100,620921,29170
1445.94,1.330018,620270,29011
1450.23,1.325615,618860,29240
1453.44,1.317595,617697,29729
1456.64,1.330148,616264,28815
1459.85,1.334012,614413,28474
1463.04,1.334141,612307,28368
1466.24,1.326760,610032,28747
1469.43,1.329750,607345,28424
1473.67,1.332999,603789,28047
1476.85,1.337604,601175,27631
1480.02,1.335035,597737,27636
1483.19,1.327165,594479,27988
1486.36,1.338484,591232,27119
1489.52,1.327982,587853,27624
1492.68,1.330651,583875,27269
1496.89,1.326592,578062,27251
1500.03,1.341063,574159,26180
1503.18,1.330395,570285,26650
1506.32,1.329209,565444,26496
1509.45,1.334159,560571,25970
1512.58,1.332390,555821,25855
1515.71,1.332530,550344,25592
1519.87,1.332036,543983,25325
1522.99,1.336282,538764,24838
1526.1,1.325047,533692,25249
1529.21,1.336322,527902,24335
1532.32,1.328605,521886,24489
1535.42,1.329027,515888,24184
1538.51,1.320757,509987,24367
1541.6,1.329611,503936,23592
1545.72,1.323731,494694,23475
1548.8,1.327841,488378,22957
1551.88,1.332589,481832,22403
1554.95,1.333492,474989,22039
1558.02,1.329950,467818,21884
1561.08,1.330160,460730,21542
1564.15,1.324800,454170,21499
1568.22,1.331967,444181,20682
1571.27,1.330756,436947,20402
1574.32,1.331576,429598,20021
1577.36,1.325519,422039,19945
1580.4,1.334454,414375,19184
1583.43,1.316006,406354,19629
1586.46,1.329001,398475,18681
1590.49,1.331915,388982,18114
1593.51,1.325537,380708,17991
1596.53,1.323270,372727,17706
1599.54,1.324318,365060,17300
1602.55,1.322420,357543,17018
1605.55,1.321584,349495,16667
1608.55,1.319300,341154,16355
1612.54,1.321697,330877,15775
1615.53,1.315226,322904,15626
1618.51,1.332574,315116,14652
1621.49,1.311036,307217,15011
1624.47,1.308196,299481,14729
1627.44,1.308365,292112,14361
1630.41,1.314980,284245,13763
1634.36,1.313306,274079,13322
1637.32,1.309335,266916,13093
1640.27,1.302491,259612,12937
1643.22,1.310663,251804,12314
1646.16,1.308755,244348,12002
1649.1,1.297054,236703,11944
1652.04,1.308345,228171,11218
1655.95,1.305342,215408,10664
1658.88,1.299374,204937,10286
1661.8,1.290635,193395,9904
1664.72,1.279874,179728,9435
1667.63,1.251478,163642,9171
1670.54,1.241570,146312,8389
1673.44,1.216921,128451,7795
1677.31,1.181226,105080,6923
1680.21,1.180441,88906,5868
1683.1,1.168449,75033,5091
1685.99,1.156703,63520,4428
1688.87,1.166369,53714,3662
1691.75,1.180903,45653,3010
1694.62,1.155154,39137,2738
1697.49,1.147132,33776,2407
1701.31,1.119450,28175,2140