Folder: textile_sorting_NIRSCAN_/ML/samples/unknown (part 108)

File: Column 1_078773_20241121_172129.csv
Method:,Column 1,,
Host Date-Time:,21/11/24 @ 17:21:29,,
Header Version:,1,,
System Temp (C):,36.72,,
Detector Temp (C):,35.11,,
Humidity (%):,1.08,,
Lamp PD:,3797,,
Shift Vector Coefficients:,-10.5391,0.0761263,-0.000134223,,
Pixel to Wavelength Coefficients:,1775.68,-0.916766,-0.000235065,,
Serial Number:,5510004,,
Scan Config Name:,Column 1,,
Scan Config Type:,Slew,,
Section 1,,
Start wavelength (nm):,900,,
End wavelength (nm):,1700,,
Pattern Pixel Width (nm):,   7.03,,,,
Exposure (ms):,  0.635,,,,
Digital Resolution:,228,,
Num Repeats:,6,,
PGA Gain:,64,,
Total Measurement Time in sec:,  2.712,,
Wavelength (nm),Absorbance (AU),Reference Signal (unitless),Sample Signal (unitless)
901.51,1.329250,108485,5083
905.376,1.318885,121306,5821
909.237,1.338160,131909,6055
913.095,1.350131,143299,6399
916.948,1.302865,156982,7816
922.079,1.352954,179937,7983
925.923,1.337345,200504,9221
929.762,1.332031,222660,10366
933.597,1.334570,244426,11313
937.427,1.320946,263972,12607
941.254,1.331283,281845,13144
945.076,1.319978,297271,14229
950.165,1.317786,315605,15183
953.978,1.315965,328029,15847
957.786,1.300941,340470,17027
961.59,1.305611,352317,17431
965.389,1.312565,363056,17677
969.185,1.303881,373162,18536
972.976,1.320473,382632,18294
976.763,1.311663,391202,19087
981.806,1.316686,400190,19301
985.583,1.308503,406088,19958
989.355,1.306702,410162,20242
993.124,1.312961,412868,20084
996.888,1.308989,414263,20337
1000.65,1.312271,415476,20243
1004.4,1.306478,415479,20515
1009.41,1.311981,414358,20202
1013.15,1.311271,412923,20165
1016.89,1.321079,411526,19648
1020.63,1.302760,409066,20372
1024.36,1.309609,406777,19941
1028.09,1.308205,404427,19890
1031.82,1.309223,401911,19720
1036.78,1.314773,398410,19300
1040.49,1.304623,396204,19647
1044.2,1.305900,394236,19492
1047.91,1.305218,392042,19414
1051.61,1.306595,389823,19243
1055.31,1.306426,388234,19172
1059,1.305353,387599,19188
1063.92,1.307580,386688,19045
1067.61,1.314977,386598,18719
1071.29,1.310685,387377,18943
1074.96,1.307807,388536,19126
1078.63,1.306540,389855,19247
1082.3,1.305488,391215,19361
1085.96,1.321467,393215,18757
1090.84,1.318689,396270,19024
1094.49,1.310365,398760,19514
1098.14,1.313987,400987,19460
1101.79,1.321072,403477,19264
1105.43,1.305605,406116,20093
1109.06,1.315347,407701,19724
1112.7,1.332489,409859,19061
1117.53,1.308521,412494,20272
1121.15,1.310200,414909,20312
1124.77,1.319451,416559,19963
1128.38,1.314147,418532,20304
1131.99,1.319252,419956,20135
1135.6,1.324879,421946,19970
1139.2,1.319192,423881,20326
1143.99,1.314450,426786,20690
1147.58,1.330996,428617,20002
1151.17,1.314148,431169,20917
1154.75,1.314870,433579,20999
1158.33,1.310555,436264,21340
1161.91,1.319240,439132,21055
1165.48,1.313770,442389,21480
1169.04,1.314638,446101,21617
1173.79,1.316893,451929,21786
1177.34,1.329185,456026,21370
1180.9,1.315528,461306,22308
1184.44,1.314821,467657,22652
1187.99,1.318082,473969,22786
1191.52,1.320915,479856,22919
1195.06,1.322111,487372,23214
1199.76,1.316484,497347,23998
1203.29,1.315718,504311,24377
1206.81,1.324964,511507,24204
1210.33,1.316442,519078,25049
1213.84,1.320269,527163,25216
1217.35,1.320285,534208,25552
1220.85,1.322384,540472,25727
1225.51,1.320962,549929,26263
1229.01,1.317714,556888,26795
1232.5,1.322763,562180,26737
1235.98,1.325078,567975,26869
1239.46,1.323302,574815,27304
1242.94,1.321258,582782,27813
1246.41,1.322150,591476,28170
1251.03,1.321943,604016,28781
1254.5,1.320252,612289,29289
1257.96,1.324718,619125,29313
1261.41,1.322227,624551,29740
1264.86,1.325537,629900,29767
1268.31,1.324640,634345,30039
1271.75,1.327107,638574,30068
1276.33,1.324699,642499,30421
1279.76,1.322719,645905,30722
1283.19,1.329880,648307,30332
1286.61,1.329310,650446,30472
1290.03,1.326632,652132,30740
1293.44,1.328972,653907,30658
1296.85,1.326177,655963,30953
1301.39,1.327037,657349,30957
1304.8,1.329637,657558,30782
1308.19,1.329987,658515,30802
1311.58,1.328742,658804,30904
1314.97,1.326314,659011,31087
1318.36,1.329333,658272,30837
1321.73,1.325299,658022,31113
1326.23,1.326176,657870,31043
1329.6,1.326492,656482,30955
1332.97,1.335610,654926,30240
1336.33,1.328088,653727,30712
1339.69,1.328772,652497,30606
1343.04,1.328470,649913,30506
1346.39,1.327525,647671,30467
1349.73,1.330327,645338,30162
1354.18,1.324618,641175,30364
1357.52,1.320065,638376,30550
1360.85,1.329560,635805,29769
1364.17,1.324320,633413,30017
1367.49,1.331021,631026,29446
1370.81,1.320786,628050,30006
1374.12,1.325758,625034,29522
1378.54,1.329316,620272,29058
1381.84,1.320932,616892,29463
1385.14,1.328457,613613,28803
1388.43,1.329487,611526,28637
1391.72,1.327844,610663,28705
1395.01,1.326419,610634,28798
1398.29,1.330917,611700,28551
1402.66,1.327938,614051,28858
1405.93,1.326130,616268,29083
1409.2,1.332116,617795,28756
1412.46,1.331274,618872,28862
1415.72,1.321279,619795,29578
1418.98,1.330220,620495,29008
1422.23,1.332134,621087,28908
1426.56,1.333434,621375,28835
1429.8,1.336837,621616,28621
1433.04,1.331527,622129,28997
1436.27,1.330134,621526,29062
1439.5,1.330368,621113,29027
1442.72,1.331568,620921,28938
1445.94,1.330273,620270,28994
1450.23,1.331055,618860,28876
1453.44,1.335230,617697,28546
1456.64,1.337122,616264,28356
1459.85,1.331943,614413,28610
1463.04,1.334861,612307,28321
1466.24,1.333996,610032,28272
1469.43,1.330637,607345,28366
1473.67,1.330975,603789,28178
1476.85,1.332992,601175,27926
1480.02,1.328190,597737,28075
1483.19,1.333464,594479,27585
1486.36,1.336009,591232,27274
1489.52,1.332280,587853,27352
1492.68,1.327888,583875,27443
1496.89,1.331480,578062,26946
1500.03,1.341693,574159,26142
1503.18,1.339601,570285,26091
1506.32,1.333823,565444,26216
1509.45,1.335717,560571,25877
1512.58,1.334461,555821,25732
1515.71,1.330786,550344,25695
1519.87,1.332843,543983,25278
1522.99,1.340358,538764,24606
1526.1,1.335703,533692,24637
1529.21,1.333866,527902,24473
1532.32,1.324334,521886,24731
1535.42,1.334103,515888,23903
1538.51,1.342240,509987,23191
1541.6,1.350966,503936,22460
1545.72,1.337718,494694,22731
1548.8,1.338683,488378,22391
1551.88,1.334124,481832,22324
1554.95,1.329939,474989,22220
1558.02,1.330625,467818,21850
1561.08,1.331716,460730,21465
1564.15,1.334544,454170,21022
1568.22,1.330249,444181,20764
1571.27,1.336995,436947,20111
1574.32,1.334974,429598,19865
1577.36,1.326805,422039,19886
1580.4,1.336087,414375,19112
1583.43,1.334516,406354,18810
1586.46,1.333958,398475,18469
1590.49,1.327763,388982,18288
1593.51,1.329246,380708,17838
1596.53,1.325237,372727,17626
1599.54,1.334092,365060,16915
1602.55,1.316514,357543,17251
1605.55,1.321948,349495,16653
1608.55,1.315177,341154,16511
1612.54,1.326820,330877,15590
1615.53,1.327316,322904,15197
1618.51,1.335846,315116,14542
1621.49,1.329384,307217,14390
1624.47,1.329095,299481,14037
1627.44,1.333835,292112,13543
1630.41,1.332264,284245,13226
1634.36,1.322698,274079,13037
1637.32,1.323290,266916,12679
1640.27,1.327645,259612,12209
1643.22,1.328592,251804,11816
1646.16,1.317601,244348,11760
1649.1,1.317566,236703,11393
1652.04,1.307262,228171,11246
1655.95,1.298313,215408,10838
1658.88,1.292961,204937,10439
1661.8,1.297708,193395,9744
1664.72,1.280380,179728,9424
1667.63,1.260909,163642,8974
1670.54,1.231186,146312,8592
1673.44,1.233271,128451,7507
1677.31,1.188947,105080,6801
1680.21,1.169695,88906,6015
1683.1,1.170930,75033,5062
1685.99,1.123937,63520,4775
1688.87,1.179004,53714,3557
1691.75,1.232146,45653,2675
1694.62,1.180800,39137,2581
1697.49,1.165184,33776,2309
1701.31,1.189316,28175,1822

File: Column 1_078775_20241121_172135.csv
Method:,Column 1,,
Host Date-Time:,21/11/24 @ 17:21:35,,
Header Version:,1,,
System Temp (C):,36.76,,
Detector Temp (C):,35.14,,
Humidity (%):,1.08,,
Lamp PD:,3798,,
Shift Vector Coefficients:,-10.5391,0.0761263,-0.000134223,,
Pixel to Wavelength Coefficients:,1775.68,-0.916766,-0.000235065,,
Serial Number:,5510004,,
Scan Config Name:,Column 1,,
Scan Config Type:,Slew,,
Section 1,,
Start wavelength (nm):,900,,
End wavelength (nm):,1700,,
Pattern Pixel Width (nm):,   7.03,,,,
Exposure (ms):,  0.635,,,,
Digital Resolution:,228,,
Num Repeats:,6,,
PGA Gain:,64,,
Total Measurement Time in sec:,  2.713,,
Wavelength (nm),Absorbance (AU),Reference Signal (unitless),Sample Signal (unitless)
901.51,1.287880,108485,5591
905.376,1.300908,121306,6067
909.237,1.310849,131909,6448
913.095,1.334861,143299,6628
916.948,1.308458,156982,7716
922.079,1.306561,179937,8883
925.923,1.308643,200504,9851
929.762,1.302319,222660,11100
933.597,1.312345,244426,11907
937.427,1.312993,263972,12840
941.254,1.322031,281845,13427
945.076,1.313525,297271,14442
950.165,1.307861,315605,15534
953.978,1.310167,328029,16060
957.786,1.295365,340470,17247
961.59,1.309365,352317,17281
965.389,1.304653,363056,18002
969.185,1.303975,373162,18532
972.976,1.300159,382632,19170
976.763,1.301721,391202,19529
981.806,1.299979,400190,20058
985.583,1.307482,406088,20005
989.355,1.309759,410162,20100
993.124,1.303211,412868,20540
996.888,1.303767,414263,20583
1000.65,1.310366,415476,20332
1004.4,1.303608,415479,20651
1009.41,1.302393,414358,20653
1013.15,1.305282,412923,20445
1016.89,1.303131,411526,20477
1020.63,1.306614,409066,20192
1024.36,1.315155,406777,19688
1028.09,1.309496,404427,19831
1031.82,1.308255,401911,19764
1036.78,1.301237,398410,19911
1040.49,1.301495,396204,19789
1044.2,1.308515,394236,19375
1047.91,1.305374,392042,19407
1051.61,1.307815,389823,19189
1055.31,1.295510,388234,19660
1059,1.301410,387599,19363
1063.92,1.310991,386688,18896
1067.61,1.292661,386598,19706
1071.29,1.297921,387377,19508
1074.96,1.311685,388536,18956
1078.63,1.306585,389855,19245
1082.3,1.307782,391215,19259
1085.96,1.309275,393215,19291
1090.84,1.310548,396270,19384
1094.49,1.311770,398760,19451
1098.14,1.308554,400987,19705
1101.79,1.309922,403477,19765
1105.43,1.294846,406116,20597
1109.06,1.313896,407701,19790
1112.7,1.308920,409859,20124
1117.53,1.308778,412494,20260
1121.15,1.319711,414909,19872
1124.77,1.312074,416559,20305
1128.38,1.308853,418532,20553
1131.99,1.317573,419956,20213
1135.6,1.317996,421946,20289
1139.2,1.316636,423881,20446
1143.99,1.314030,426786,20710
1147.58,1.318244,428617,20598
1151.17,1.311602,431169,21040
1154.75,1.305236,433579,21470
1158.33,1.317282,436264,21012
1161.91,1.315093,439132,21257
1165.48,1.311572,442389,21589
1169.04,1.312853,446101,21706
1173.79,1.310246,451929,22122
1177.34,1.317971,456026,21929
1180.9,1.313586,461306,22408
1184.44,1.303542,467657,23248
1187.99,1.309383,473969,23247
1191.52,1.313252,479856,23327
1195.06,1.313167,487372,23697
1199.76,1.323508,497347,23613
1203.29,1.311075,504311,24639
1206.81,1.319331,511507,24520
1210.33,1.317658,519078,24979
1213.84,1.316308,527163,25447
1217.35,1.310471,534208,26136
1220.85,1.315883,540472,26115
1225.51,1.319444,549929,26355
1229.01,1.314517,556888,26993
1232.5,1.319268,562180,26953
1235.98,1.321344,567975,27101
1239.46,1.311332,574815,28067
1242.94,1.313367,582782,28323
1246.41,1.314722,591476,28656
1251.03,1.324394,604016,28619
1254.5,1.319556,612289,29336
1257.96,1.326128,619125,29218
1261.41,1.328049,624551,29344
1264.86,1.318992,629900,30219
1268.31,1.323658,634345,30107
1271.75,1.323325,638574,30331
1276.33,1.321768,642499,30627
1279.76,1.326881,645905,30429
1283.19,1.322920,648307,30822
1286.61,1.328029,650446,30562
1290.03,1.327183,652132,30701
1293.44,1.324393,653907,30983
1296.85,1.324636,655963,31063
1301.39,1.327220,657349,30944
1304.8,1.326418,657558,31011
1308.19,1.327274,658515,30995
1311.58,1.323739,658804,31262
1314.97,1.324501,659011,31217
1318.36,1.327310,658272,30981
1321.73,1.322599,658022,31307
1326.23,1.327129,657870,30975
1329.6,1.327110,656482,30911
1332.97,1.325967,654926,30919
1336.33,1.328258,653727,30700
1339.69,1.330906,652497,30456
1343.04,1.326283,649913,30660
1346.39,1.319419,647671,31041
1349.73,1.323399,645338,30647
1354.18,1.324117,641175,30399
1357.52,1.325948,638376,30139
1360.85,1.321580,635805,30321
1364.17,1.323207,633413,30094
1367.49,1.316817,631026,30425
1370.81,1.316623,628050,30295
1374.12,1.322227,625034,29763
1378.54,1.320367,620272,29663
1381.84,1.325839,616892,29132
1385.14,1.321264,613613,29284
1388.43,1.322791,611526,29082
1391.72,1.317794,610663,29377
1395.01,1.323832,610634,28970
1398.29,1.326332,611700,28854
1402.66,1.328812,614051,28800
1405.93,1.321348,616268,29405
1409.2,1.325982,617795,29165
1412.46,1.324629,618872,29307
1415.72,1.323871,619795,29402
1418.98,1.322902,620495,29501
1422.23,1.330410,621087,29023
1426.56,1.335260,621375,28714
1429.8,1.328764,621616,29158
1433.04,1.328795,622129,29180
1436.27,1.330059,621526,29067
1439.5,1.327431,621113,29224
1442.72,1.324925,620921,29384
1445.94,1.330168,620270,29001
1450.23,1.332004,618860,28813
1453.44,1.333575,617697,28655
1456.64,1.329967,616264,28827
1459.85,1.329521,614413,28770
1463.04,1.334554,612307,28341
1466.24,1.329108,610032,28592
1469.43,1.332448,607345,28248
1473.67,1.329406,603789,28280
1476.85,1.329661,601175,28141
1480.02,1.339029,597737,27383
1483.19,1.336608,594479,27386
1486.36,1.322913,591232,28109
1489.52,1.327998,587853,27623
1492.68,1.333880,583875,27067
1496.89,1.339565,578062,26449
1500.03,1.333449,574159,26643
1503.18,1.327730,570285,26814
1506.32,1.334702,565444,26163
1509.45,1.332906,560571,26045
1512.58,1.333736,555821,25775
1515.71,1.331056,550344,25679
1519.87,1.329062,543983,25499
1522.99,1.329206,538764,25246
1526.1,1.325201,533692,25240
1529.21,1.333618,527902,24487
1532.32,1.329794,521886,24422
1535.42,1.327486,515888,24270
1538.51,1.327203,509987,24008
1541.6,1.332362,503936,23443
1545.72,1.333062,494694,22976
1548.8,1.332271,488378,22724
1551.88,1.324618,481832,22818
1554.95,1.331192,474989,22156
1558.02,1.330288,467818,21867
1561.08,1.334476,460730,21329
1564.15,1.332895,454170,21102
1568.22,1.329330,444181,20808
1571.27,1.337687,436947,20079
1574.32,1.329326,429598,20125
1577.36,1.336947,422039,19427
1580.4,1.319480,414375,19857
1583.43,1.331639,406354,18935
1586.46,1.328095,398475,18720
1590.49,1.321586,388982,18550
1593.51,1.319186,380708,18256
1596.53,1.326174,372727,17588
1599.54,1.318409,365060,17537
1602.55,1.322012,357543,17034
1605.55,1.317176,349495,16837
1608.55,1.324536,341154,16159
1612.54,1.318160,330877,15904
1615.53,1.332895,322904,15003
1618.51,1.321396,315116,15034
1621.49,1.316802,307217,14813
1624.47,1.303416,299481,14892
1627.44,1.315745,292112,14119
1630.41,1.316370,284245,13719
1634.36,1.313894,274079,13304
1637.32,1.315280,266916,12915
1640.27,1.307828,259612,12779
1643.22,1.314418,251804,12208
1646.16,1.308610,244348,12006
1649.1,1.308624,236703,11630
1652.04,1.308306,228171,11219
1655.95,1.287587,215408,11109
1658.88,1.277594,204937,10815
1661.8,1.276697,193395,10227
1664.72,1.278771,179728,9459
1667.63,1.250390,163642,9194
1670.54,1.230075,146312,8614
1673.44,1.216476,128451,7803
1677.31,1.164912,105080,7188
1680.21,1.146910,88906,6339
1683.1,1.145521,75033,5367
1685.99,1.115917,63520,4864
1688.87,1.099050,53714,4276
1691.75,1.131968,45653,3369
1694.62,1.180800,39137,2581
1697.49,1.105198,33776,2651
1701.31,1.127231,28175,2102

File: Column 1_078778_20241121_172143.csv
Method:,Column 1,,
Host Date-Time:,21/11/24 @ 17:21:43,,
Header Version:,1,,
System Temp (C):,36.71,,
Detector Temp (C):,35.17,,
Humidity (%):,1.08,,
Lamp PD:,3798,,
Shift Vector Coefficients:,-10.5391,0.0761263,-0.000134223,,
Pixel to Wavelength Coefficients:,1775.68,-0.916766,-0.000235065,,
Serial Number:,5510004,,
Scan Config Name:,Column 1,,
Scan Config Type:,Slew,,
Section 1,,
Start wavelength (nm):,900,,
End wavelength (nm):,1700,,
Pattern Pixel Width (nm):,   7.03,,,,
Exposure (ms):,  0.635,,,,
Digital Resolution:,228,,
Num Repeats:,6,,
PGA Gain:,64,,
Total Measurement Time in sec:,  2.727,,
Wavelength (nm),Absorbance (AU),Reference Signal (unitless),Sample Signal (unitless)
901.51,1.307585,108485,5343
905.376,1.338651,121306,5562
909.237,1.362044,131909,5731
913.095,1.341596,143299,6526
916.948,1.315837,156982,7586
922.079,1.309947,179937,8814
925.923,1.327105,200504,9441
929.762,1.331194,222660,10386
933.597,1.319887,244426,11702
937.427,1.337625,263972,12132
941.254,1.327238,281845,13267
945.076,1.308473,297271,14611
950.165,1.321896,315605,15040
953.978,1.312390,328029,15978
957.786,1.323288,340470,16173
961.59,1.314446,352317,17080
965.389,1.300260,363056,18185
969.185,1.301428,373162,18641
972.976,1.309086,382632,18780
976.763,1.306327,391202,19323
981.806,1.303217,400190,19909
985.583,1.306224,406088,20063
989.355,1.302177,410162,20454
993.124,1.312313,412868,20114
996.888,1.308008,414263,20383
1000.65,1.304847,415476,20592
1004.4,1.303903,415479,20637
1009.41,1.313554,414358,20129
1013.15,1.304518,412923,20481
1016.89,1.311158,411526,20102
1020.63,1.297463,409066,20622
1024.36,1.306831,406777,20069
1028.09,1.308162,404427,19892
1031.82,1.301236,401911,20086
1036.78,1.306923,398410,19652
1040.49,1.300728,396204,19824
1044.2,1.303811,394236,19586
1047.91,1.306629,392042,19351
1051.61,1.306256,389823,19258
1055.31,1.299104,388234,19498
1059,1.300962,387599,19383
1063.92,1.304376,386688,19186
1067.61,1.298474,386598,19444
1071.29,1.311580,387377,18904
1074.96,1.315412,388536,18794
1078.63,1.316676,389855,18803
1082.3,1.310360,391215,19145
1085.96,1.309613,393215,19276
1090.84,1.306534,396270,19564
1094.49,1.316823,398760,19226
1098.14,1.315441,400987,19395
1101.79,1.314095,403477,19576
1105.43,1.310780,406116,19855
1109.06,1.310878,407701,19928
1112.7,1.317617,409859,19725
1117.53,1.319345,412494,19773
1121.15,1.315947,414909,20045
1124.77,1.307732,416559,20509
1128.38,1.311567,418532,20425
1131.99,1.321349,419956,20038
1135.6,1.318532,421946,20264
1139.2,1.314686,423881,20538
1143.99,1.314093,426786,20707
1147.58,1.316288,428617,20691
1151.17,1.311746,431169,21033
1154.75,1.321035,433579,20703
1158.33,1.312840,436264,21228
1161.91,1.318395,439132,21096
1165.48,1.321872,442389,21083
1169.04,1.324904,446101,21112
1173.79,1.315480,451929,21857
1177.34,1.321650,456026,21744
1180.9,1.314945,461306,22338
1184.44,1.315992,467657,22591
1187.99,1.318749,473969,22751
1191.52,1.304735,479856,23789
1195.06,1.317015,487372,23488
1199.76,1.314210,497347,24124
1203.29,1.324246,504311,23903
1206.81,1.320466,511507,24456
1210.33,1.331992,519078,24168
1213.84,1.321096,527163,25168
1217.35,1.320643,534208,25531
1220.85,1.313694,540472,26247
1225.51,1.318111,549929,26436
1229.01,1.318477,556888,26748
1232.5,1.322779,562180,26736
1235.98,1.317976,567975,27312
1239.46,1.321667,574815,27407
1242.94,1.323293,582782,27683
1246.41,1.314964,591476,28640
1251.03,1.321671,604016,28799
1254.5,1.325368,612289,28946
1257.96,1.324763,619125,29310
1261.41,1.320071,624551,29888
1264.86,1.321658,629900,30034
1268.31,1.325291,634345,29994
1271.75,1.322852,638574,30364
1276.33,1.324656,642499,30424
1279.76,1.320505,645905,30879
1283.19,1.319076,648307,31096
1286.61,1.319335,650446,31180
1290.03,1.324237,652132,30910
1293.44,1.324855,653907,30950
1296.85,1.325994,655963,30966
1301.39,1.325692,657349,31053
1304.8,1.320935,657558,31405
1308.19,1.326336,658515,31062
1311.58,1.328166,658804,30945
1314.97,1.333498,659011,30577
1318.36,1.326232,658272,31058
1321.73,1.330904,658022,30714
1326.23,1.329744,657870,30789
1329.6,1.329646,656482,30731
1332.97,1.322302,654926,31181
1336.33,1.325283,653727,30911
1339.69,1.329781,652497,30535
1343.04,1.325349,649913,30726
1346.39,1.333019,647671,30084
1349.73,1.329019,645338,30253
1354.18,1.323717,641175,30427
1357.52,1.317571,638376,30726
1360.85,1.326492,635805,29980
1364.17,1.326263,633413,29883
1367.49,1.322694,631026,30016
1370.81,1.329115,628050,29436
1374.12,1.329852,625034,29245
1378.54,1.325892,620272,29288
1381.84,1.325839,616892,29132
1385.14,1.324509,613613,29066
1388.43,1.321598,611526,29162
1391.72,1.321312,610663,29140
1395.01,1.321903,610634,29099
1398.29,1.326212,611700,28862
1402.66,1.325342,614051,29031
1405.93,1.330030,616268,28823
1409.2,1.330097,617795,28890
1412.46,1.334249,618872,28665
1415.72,1.327282,619795,29172
1418.98,1.326123,620495,29283
1422.23,1.328171,621087,29173
1426.56,1.325080,621375,29395
1429.8,1.330271,621616,29057
1433.04,1.327725,622129,29252
1436.27,1.327066,621526,29268
1439.5,1.328279,621113,29167
1442.72,1.323362,620921,29490
1445.94,1.330348,620270,28989
1450.23,1.332155,618860,28803
1453.44,1.333439,617697,28664
1456.64,1.335074,616264,28490
1459.85,1.329596,614413,28765
1463.04,1.330968,612307,28576
1466.24,1.336137,610032,28133
1469.43,1.332602,607345,28238
1473.67,1.330960,603789,28179
1476.85,1.329754,601175,28135
1480.02,1.332668,597737,27787
1483.19,1.331390,594479,27717
1486.36,1.330786,591232,27604
1489.52,1.335979,587853,27120
1492.68,1.334570,583875,27024
1496.89,1.335984,578062,26668
1500.03,1.332456,574159,26704
1503.18,1.335443,570285,26342
1506.32,1.330703,565444,26405
1509.45,1.338022,560571,25740
1512.58,1.332945,555821,25822
1515.71,1.329570,550344,25767
1519.87,1.334702,543983,25170
1522.99,1.336702,538764,24814
1526.1,1.332664,533692,24810
1529.21,1.340086,527902,24125
1532.32,1.333455,521886,24217
1535.42,1.336088,515888,23794
1538.51,1.325272,509987,24115
1541.6,1.328765,503936,23638
1545.72,1.326776,494694,23311
1548.8,1.326990,488378,23002
1551.88,1.329152,481832,22581
1554.95,1.329236,474989,22256
1558.02,1.334739,467818,21644
1561.08,1.328229,460730,21638
1564.15,1.328350,454170,21324
1568.22,1.331883,444181,20686
1571.27,1.323348,436947,20753
1574.32,1.329650,429598,20110
1577.36,1.328665,422039,19801
1580.4,1.332196,414375,19284
1583.43,1.327689,406354,19108
1586.46,1.329001,398475,18681
1590.49,1.320954,388982,18577
1593.51,1.330026,380708,17806
1596.53,1.329695,372727,17446
1599.54,1.326432,365060,17216
1602.55,1.330300,357543,16712
1605.55,1.331627,349495,16286
1608.55,1.327936,341154,16033
1612.54,1.321037,330877,15799
1615.53,1.318938,322904,15493
1618.51,1.323655,315116,14956
1621.49,1.307606,307217,15130
1624.47,1.320851,299481,14306
1627.44,1.312497,292112,14225
1630.41,1.310866,284245,13894
1634.36,1.304465,274079,13596
1637.32,1.317979,266916,12835
1640.27,1.311034,259612,12685
1643.22,1.316808,251804,12141
1646.16,1.300511,244348,12232
1649.1,1.289342,236703,12158
1652.04,1.294252,228171,11588
1655.95,1.295517,215408,10908
1658.88,1.291964,204937,10463
1661.8,1.293009,193395,9850
1664.72,1.271531,179728,9618
1667.63,1.244525,163642,9319
1670.54,1.242347,146312,8374
1673.44,1.204997,128451,8012
1677.31,1.166607,105080,7160
1680.21,1.164885,88906,6082
1683.1,1.164036,75033,5143
1685.99,1.161635,63520,4378
1688.87,1.142264,53714,3871
1691.75,1.195129,45653,2913
1694.62,1.127949,39137,2915
1697.49,1.156249,33776,2357
1701.31,1.196041,28175,1794