Folder: textile_sorting_NIRSCAN_/ML/samples/unknown (part 48)

File: Column 1_078307_20241121_165538.csv
Method:,Column 1,,
Host Date-Time:,21/11/24 @ 16:55:38,,
Header Version:,1,,
System Temp (C):,34.58,,
Detector Temp (C):,32.68,,
Humidity (%):,2.35,,
Lamp PD:,3802,,
Shift Vector Coefficients:,-10.5391,0.0761263,-0.000134223,,
Pixel to Wavelength Coefficients:,1775.68,-0.916766,-0.000235065,,
Serial Number:,5510004,,
Scan Config Name:,Column 1,,
Scan Config Type:,Slew,,
Section 1,,
Start wavelength (nm):,900,,
End wavelength (nm):,1700,,
Pattern Pixel Width (nm):,   7.03,,,,
Exposure (ms):,  0.635,,,,
Digital Resolution:,228,,
Num Repeats:,6,,
PGA Gain:,64,,
Total Measurement Time in sec:,  2.726,,
Wavelength (nm),Absorbance (AU),Reference Signal (unitless),Sample Signal (unitless)
901.51,1.344111,108485,4912
905.376,1.329228,121306,5684
909.237,1.338089,131909,6056
913.095,1.318276,143299,6886
916.948,1.348771,156982,7032
922.079,1.319865,179937,8615
925.923,1.332148,200504,9332
929.762,1.330651,222660,10399
933.597,1.319887,244426,11702
937.427,1.329645,263972,12357
941.254,1.324431,281845,13353
945.076,1.313405,297271,14446
950.165,1.319448,315605,15125
953.978,1.314460,328029,15902
957.786,1.318907,340470,16337
961.59,1.315693,352317,17031
965.389,1.319200,363056,17409
969.185,1.309375,373162,18303
972.976,1.308808,382632,18792
976.763,1.308512,391202,19226
981.806,1.305579,400190,19801
985.583,1.316896,406088,19576
989.355,1.318159,410162,19715
993.124,1.318204,412868,19843
996.888,1.306625,414263,20448
1000.65,1.317885,415476,19983
1004.4,1.313929,415479,20166
1009.41,1.316389,414358,19998
1013.15,1.316951,412923,19903
1016.89,1.310252,411526,20144
1020.63,1.306141,409066,20214
1024.36,1.310787,406777,19887
1028.09,1.301854,404427,20183
1031.82,1.314809,401911,19468
1036.78,1.319615,398410,19086
1040.49,1.310184,396204,19397
1044.2,1.310334,394236,19294
1047.91,1.310258,392042,19190
1051.61,1.316248,389823,18820
1055.31,1.318182,388234,18660
1059,1.312864,387599,18859
1063.92,1.308310,386688,19013
1067.61,1.303416,386598,19224
1071.29,1.311396,387377,18912
1074.96,1.321041,388536,18552
1078.63,1.309188,389855,19130
1082.3,1.316782,391215,18864
1085.96,1.315785,393215,19004
1090.84,1.315868,396270,19148
1094.49,1.321182,398760,19034
1098.14,1.317933,400987,19284
1101.79,1.316899,403477,19450
1105.43,1.319864,406116,19444
1109.06,1.317731,407701,19616
1112.7,1.317860,409859,19714
1117.53,1.321326,412494,19683
1121.15,1.319471,414909,19883
1124.77,1.322376,416559,19829
1128.38,1.308220,418532,20583
1131.99,1.318907,419956,20151
1135.6,1.334310,421946,19541
1139.2,1.318317,423881,20367
1143.99,1.314975,426786,20665
1147.58,1.318793,428617,20572
1151.17,1.319244,431169,20673
1154.75,1.324785,433579,20525
1158.33,1.326536,436264,20569
1161.91,1.321142,439132,20963
1165.48,1.318016,442389,21271
1169.04,1.319954,446101,21354
1173.79,1.320838,451929,21589
1177.34,1.322910,456026,21681
1180.9,1.320325,461306,22063
1184.44,1.317012,467657,22538
1187.99,1.324495,473969,22452
1191.52,1.313233,479856,23328
1195.06,1.322822,487372,23176
1199.76,1.324945,497347,23535
1203.29,1.322813,504311,23982
1206.81,1.323692,511507,24275
1210.33,1.327043,519078,24445
1213.84,1.325711,527163,24902
1217.35,1.320762,534208,25524
1220.85,1.327444,540472,25429
1225.51,1.331016,549929,25662
1229.01,1.324938,556888,26353
1232.5,1.327368,562180,26455
1235.98,1.326097,567975,26806
1239.46,1.324018,574815,27259
1242.94,1.327565,582782,27412
1246.41,1.332447,591476,27510
1251.03,1.326783,604016,28462
1254.5,1.333302,612289,28422
1257.96,1.331527,619125,28857
1261.41,1.333260,624551,28994
1264.86,1.333383,629900,29234
1268.31,1.328226,634345,29792
1271.75,1.335036,638574,29524
1276.33,1.332594,642499,29873
1279.76,1.330867,645905,30151
1283.19,1.327581,648307,30493
1286.61,1.329453,650446,30462
1290.03,1.335654,652132,30108
1293.44,1.331530,653907,30478
1296.85,1.333363,655963,30445
1301.39,1.327528,657349,30922
1304.8,1.332142,657558,30605
1308.19,1.332192,658515,30646
1311.58,1.328166,658804,30945
1314.97,1.336119,659011,30393
1318.36,1.333238,658272,30561
1321.73,1.336425,658022,30326
1326.23,1.340382,657870,30044
1329.6,1.332212,656482,30550
1332.97,1.332477,654926,30459
1336.33,1.330798,653727,30521
1339.69,1.330849,652497,30460
1343.04,1.336647,649913,29937
1346.39,1.334233,647671,30000
1349.73,1.331885,645338,30054
1354.18,1.332251,641175,29835
1357.52,1.328230,638376,29981
1360.85,1.331812,635805,29615
1364.17,1.333842,633413,29366
1367.49,1.326823,631026,29732
1370.81,1.335028,628050,29038
1374.12,1.333581,625034,28995
1378.54,1.330394,620272,28986
1381.84,1.329747,616892,28871
1385.14,1.330982,613613,28636
1388.43,1.329988,611526,28604
1391.72,1.334000,610663,28301
1395.01,1.333596,610634,28326
1398.29,1.330932,611700,28550
1402.66,1.333924,614051,28463
1405.93,1.330860,616268,28768
1409.2,1.332857,617795,28707
1412.46,1.332887,618872,28755
1415.72,1.333323,619795,28769
1418.98,1.333829,620495,28768
1422.23,1.331849,621087,28927
1426.56,1.331180,621375,28985
1429.8,1.335913,621616,28682
1433.04,1.336983,622129,28635
1436.27,1.335729,621526,28690
1439.5,1.342829,621113,28206
1442.72,1.336518,620921,28610
1445.94,1.335092,620270,28674
1450.23,1.346814,618860,27847
1453.44,1.336708,617697,28449
1456.64,1.341138,616264,28095
1459.85,1.333768,614413,28490
1463.04,1.342472,612307,27829
1466.24,1.331820,610032,28414
1469.43,1.336619,607345,27978
1473.67,1.338955,603789,27665
1476.85,1.339069,601175,27538
1480.02,1.339299,597737,27366
1483.19,1.337497,594479,27330
1486.36,1.340958,591232,26965
1489.52,1.340227,587853,26856
1492.68,1.336019,583875,26934
1496.89,1.339056,578062,26480
1500.03,1.340582,574159,26209
1503.18,1.342708,570285,25905
1506.32,1.338537,565444,25933
1509.45,1.339950,560571,25626
1512.58,1.343414,555821,25207
1515.71,1.338442,550344,25246
1519.87,1.341694,543983,24768
1522.99,1.339388,538764,24661
1526.1,1.341953,533692,24285
1529.21,1.342179,527902,24009
1532.32,1.342223,521886,23733
1535.42,1.346263,515888,23243
1538.51,1.341435,509987,23234
1541.6,1.344555,503936,22794
1545.72,1.336688,494694,22785
1548.8,1.336496,488378,22504
1551.88,1.338484,481832,22101
1554.95,1.339924,474989,21715
1558.02,1.332518,467818,21755
1561.08,1.336681,460730,21221
1564.15,1.333863,454170,21055
1568.22,1.343522,444181,20139
1571.27,1.335508,436947,20180
1574.32,1.334668,429598,19879
1577.36,1.340787,422039,19256
1580.4,1.337681,414375,19042
1583.43,1.332765,406354,18886
1586.46,1.338781,398475,18265
1590.49,1.332899,388982,18073
1593.51,1.338448,380708,17464
1596.53,1.334174,372727,17267
1599.54,1.335842,365060,16847
1602.55,1.339731,357543,16353
1605.55,1.325352,349495,16523
1608.55,1.326691,341154,16079
1612.54,1.326125,330877,15615
1615.53,1.320370,322904,15442
1618.51,1.326101,315116,14872
1621.49,1.330926,307217,14339
1624.47,1.318278,299481,14391
1627.44,1.322847,292112,13890
1630.41,1.318433,284245,13654
1634.36,1.304433,274079,13597
1637.32,1.329083,266916,12511
1640.27,1.322236,259612,12362
1643.22,1.314845,251804,12196
1646.16,1.316900,244348,11779
1649.1,1.325801,236703,11179
1652.04,1.310091,228171,11173
1655.95,1.315686,215408,10413
1658.88,1.296428,204937,10356
1661.8,1.296417,193395,9773
1664.72,1.284548,179728,9334
1667.63,1.269906,163642,8790
1670.54,1.236321,146312,8491
1673.44,1.240269,128451,7387
1677.31,1.207206,105080,6521
1680.21,1.206677,88906,5524
1683.1,1.219922,75033,4522
1685.99,1.231202,63520,3730
1688.87,1.242808,53714,3071
1691.75,1.185690,45653,2977
1694.62,1.253733,39137,2182
1697.49,1.283342,33776,1759
1701.31,1.092310,28175,2278

File: Column 1_078310_20241121_165547.csv
Method:,Column 1,,
Host Date-Time:,21/11/24 @ 16:55:47,,
Header Version:,1,,
System Temp (C):,34.6,,
Detector Temp (C):,32.69,,
Humidity (%):,2.25,,
Lamp PD:,3802,,
Shift Vector Coefficients:,-10.5391,0.0761263,-0.000134223,,
Pixel to Wavelength Coefficients:,1775.68,-0.916766,-0.000235065,,
Serial Number:,5510004,,
Scan Config Name:,Column 1,,
Scan Config Type:,Slew,,
Section 1,,
Start wavelength (nm):,900,,
End wavelength (nm):,1700,,
Pattern Pixel Width (nm):,   7.03,,,,
Exposure (ms):,  0.635,,,,
Digital Resolution:,228,,
Num Repeats:,6,,
PGA Gain:,64,,
Total Measurement Time in sec:,  2.675,,
Wavelength (nm),Absorbance (AU),Reference Signal (unitless),Sample Signal (unitless)
901.51,1.329420,108485,5081
905.376,1.316281,121306,5856
909.237,1.316203,131909,6369
913.095,1.322777,143299,6815
916.948,1.339786,156982,7179
922.079,1.312964,179937,8753
925.923,1.328533,200504,9410
929.762,1.320089,222660,10655
933.597,1.323652,244426,11601
937.427,1.315197,263972,12775
941.254,1.326845,281845,13279
945.076,1.321231,297271,14188
950.165,1.326308,315605,14888
953.978,1.318081,328029,15770
957.786,1.311579,340470,16615
961.59,1.316408,352317,17003
965.389,1.310360,363056,17767
969.185,1.310206,373162,18268
972.976,1.314250,382632,18558
976.763,1.314151,391202,18978
981.806,1.313347,400190,19450
985.583,1.315081,406088,19658
989.355,1.314867,410162,19865
993.124,1.306202,412868,20399
996.888,1.305438,414263,20504
1000.65,1.306856,415476,20497
1004.4,1.319718,415479,19899
1009.41,1.313403,414358,20136
1013.15,1.312608,412923,20103
1016.89,1.317184,411526,19825
1020.63,1.314471,409066,19830
1024.36,1.318254,406777,19548
1028.09,1.309474,404427,19832
1031.82,1.311896,401911,19599
1036.78,1.310318,398410,19499
1040.49,1.317955,396204,19053
1044.2,1.316866,394236,19006
1047.91,1.312345,392042,19098
1051.61,1.320561,389823,18634
1055.31,1.319721,388234,18594
1059,1.308396,387599,19054
1063.92,1.317334,386688,18622
1067.61,1.313726,386598,18773
1071.29,1.313976,387377,18800
1074.96,1.319498,388536,18618
1078.63,1.318412,389855,18728
1082.3,1.314440,391215,18966
1085.96,1.316952,393215,18953
1090.84,1.312704,396270,19288
1094.49,1.313896,398760,19356
1098.14,1.320327,400987,19178
1101.79,1.318644,403477,19372
1105.43,1.323813,406116,19268
1109.06,1.326250,407701,19235
1112.7,1.310715,409859,20041
1117.53,1.318862,412494,19795
1121.15,1.334652,414909,19200
1124.77,1.319734,416559,19950
1128.38,1.321003,418532,19986
1131.99,1.321154,419956,20047
1135.6,1.318639,421946,20259
1139.2,1.325195,423881,20047
1143.99,1.319241,426786,20463
1147.58,1.331648,428617,19972
1151.17,1.325081,431169,20397
1154.75,1.322043,433579,20655
1158.33,1.327360,436264,20530
1161.91,1.324636,439132,20795
1165.48,1.321028,442389,21124
1169.04,1.328000,446101,20962
1173.79,1.319833,451929,21639
1177.34,1.320952,456026,21779
1180.9,1.322713,461306,21942
1184.44,1.317533,467657,22511
1187.99,1.323374,473969,22510
1191.52,1.323519,479856,22782
1195.06,1.326265,487372,22993
1199.76,1.324798,497347,23543
1203.29,1.326669,504311,23770
1206.81,1.326654,511507,24110
1210.33,1.332190,519078,24157
1213.84,1.328194,527163,24760
1217.35,1.326655,534208,25180
1220.85,1.326046,540472,25511
1225.51,1.328872,549929,25789
1229.01,1.323129,556888,26463
1232.5,1.330895,562180,26241
1235.98,1.325450,567975,26846
1239.46,1.326559,574815,27100
1242.94,1.330682,582782,27216
1246.41,1.325851,591476,27931
1251.03,1.325792,604016,28527
1254.5,1.330378,612289,28614
1257.96,1.329006,619125,29025
1261.41,1.334069,624551,28940
1264.86,1.330054,629900,29459
1268.31,1.327876,634345,29816
1271.75,1.328713,638574,29957
1276.33,1.330389,642499,30025
1279.76,1.330334,645905,30188
1283.19,1.328037,648307,30461
1286.61,1.332586,650446,30243
1290.03,1.328047,652132,30640
1293.44,1.334719,653907,30255
1296.85,1.337117,655963,30183
1301.39,1.329090,657349,30811
1304.8,1.334504,657558,30439
1308.19,1.330043,658515,30798
1311.58,1.335098,658804,30455
1314.97,1.337722,659011,30281
1318.36,1.331876,658272,30657
1321.73,1.337300,658022,30265
1326.23,1.336654,657870,30303
1329.6,1.334106,656482,30417
1332.97,1.334162,654926,30341
1336.33,1.334040,653727,30294
1339.69,1.337703,652497,29983
1343.04,1.331284,649913,30309
1346.39,1.337707,647671,29761
1349.73,1.329320,645338,30232
1354.18,1.334308,641175,29694
1357.52,1.328303,638376,29976
1360.85,1.331226,635805,29655
1364.17,1.333502,633413,29389
1367.49,1.336274,631026,29092
1370.81,1.331186,628050,29296
1374.12,1.326258,625034,29488
1378.54,1.325137,620272,29339
1381.84,1.332221,616892,28707
1385.14,1.331680,613613,28590
1388.43,1.327113,611526,28794
1391.72,1.334015,610663,28300
1395.01,1.325033,610634,28890
1398.29,1.325130,611700,28934
1402.66,1.332325,614051,28568
1405.93,1.330905,616268,28765
1409.2,1.327818,617795,29042
1412.46,1.337732,618872,28436
1415.72,1.332132,619795,28848
1418.98,1.336479,620495,28593
1422.23,1.332691,621087,28871
1426.56,1.329939,621375,29068
1429.8,1.335413,621616,28715
1433.04,1.340837,622129,28382
1436.27,1.338782,621526,28489
1439.5,1.335788,621113,28667
1442.72,1.334217,620921,28762
1445.94,1.335320,620270,28659
1450.23,1.338963,618860,28355
1453.44,1.337044,617697,28427
1456.64,1.338287,616264,28280
1459.85,1.341287,614413,28001
1463.04,1.336474,612307,28216
1466.24,1.337977,610032,28014
1469.43,1.334636,607345,28106
1473.67,1.336154,603789,27844
1476.85,1.337526,601175,27636
1480.02,1.339823,597737,27333
1483.19,1.339089,594479,27230
1486.36,1.336232,591232,27260
1489.52,1.338034,587853,26992
1492.68,1.341455,583875,26599
1496.89,1.341573,578062,26327
1500.03,1.337182,574159,26415
1503.18,1.339884,570285,26074
1506.32,1.342186,565444,25716
1509.45,1.341903,560571,25511
1512.58,1.341317,555821,25329
1515.71,1.341203,550344,25086
1519.87,1.337976,543983,24981
1522.99,1.345739,538764,24303
1526.1,1.340079,533692,24390
1529.21,1.335235,527902,24396
1532.32,1.342223,521886,23733
1535.42,1.346058,515888,23254
1538.51,1.333673,509987,23653
1541.6,1.335859,503936,23255
1545.72,1.338617,494694,22684
1548.8,1.331469,488378,22766
1551.88,1.330462,481832,22513
1554.95,1.337312,474989,21846
1558.02,1.338791,467818,21443
1561.08,1.346240,460730,20759
1564.15,1.342803,454170,20626
1568.22,1.343501,444181,20140
1571.27,1.333939,436947,20253
1574.32,1.343406,429598,19483
1577.36,1.332499,422039,19627
1580.4,1.337088,414375,19068
1583.43,1.332673,406354,18890
1586.46,1.334617,398475,18441
1590.49,1.331388,388982,18136
1593.51,1.328273,380708,17878
1596.53,1.334728,372727,17245
1599.54,1.335172,365060,16873
1602.55,1.339598,357543,16358
1605.55,1.336939,349495,16088
1608.55,1.342787,341154,15494
1612.54,1.333106,330877,15366
1615.53,1.338812,322904,14800
1618.51,1.336265,315116,14528
1621.49,1.328631,307217,14415
1624.47,1.330831,299481,13981
1627.44,1.319204,292112,14007
1630.41,1.323777,284245,13487
1634.36,1.323565,274079,13011
1637.32,1.327281,266916,12563
1640.27,1.319260,259612,12447
1643.22,1.327931,251804,11834
1646.16,1.330799,244348,11408
1649.1,1.333799,236703,10975
1652.04,1.324354,228171,10812
1655.95,1.312901,215408,10480
1658.88,1.304855,204937,10157
1661.8,1.289715,193395,9925
1664.72,1.277350,179728,9490
1667.63,1.282386,163642,8541
1670.54,1.260564,146312,8030
1673.44,1.222303,128451,7699
1677.31,1.212432,105080,6443
1680.21,1.183337,88906,5829
1683.1,1.204728,75033,4683
1685.99,1.194277,63520,4061
1688.87,1.200657,53714,3384
1691.75,1.229394,45653,2692
1694.62,1.258939,39137,2156
1697.49,1.132758,33776,2488
1701.31,1.181754,28175,1854

File: Column 1_078315_20241121_165602.csv
Method:,Column 1,,
Host Date-Time:,21/11/24 @ 16:56:2,,
Header Version:,1,,
System Temp (C):,34.68,,
Detector Temp (C):,32.84,,
Humidity (%):,2.25,,
Lamp PD:,3802,,
Shift Vector Coefficients:,-10.5391,0.0761263,-0.000134223,,
Pixel to Wavelength Coefficients:,1775.68,-0.916766,-0.000235065,,
Serial Number:,5510004,,
Scan Config Name:,Column 1,,
Scan Config Type:,Slew,,
Section 1,,
Start wavelength (nm):,900,,
End wavelength (nm):,1700,,
Pattern Pixel Width (nm):,   7.03,,,,
Exposure (ms):,  0.635,,,,
Digital Resolution:,228,,
Num Repeats:,6,,
PGA Gain:,64,,
Total Measurement Time in sec:,  2.730,,
Wavelength (nm),Absorbance (AU),Reference Signal (unitless),Sample Signal (unitless)
901.51,1.295402,108485,5495
905.376,1.305225,121306,6007
909.237,1.284394,131909,6853
913.095,1.293158,143299,7296
916.948,1.319286,156982,7526
922.079,1.335519,179937,8310
925.923,1.323623,200504,9517
929.762,1.318827,222660,10686
933.597,1.327374,244426,11502
937.427,1.321498,263972,12591
941.254,1.319066,281845,13519
945.076,1.317270,297271,14318
950.165,1.320915,315605,15074
953.978,1.315828,328029,15852
957.786,1.320344,340470,16283
961.59,1.313303,352317,17125
965.389,1.309285,363056,17811
969.185,1.315228,373162,18058
972.976,1.309803,382632,18749
976.763,1.317343,391202,18839
981.806,1.311386,400190,19538
985.583,1.312460,406088,19777
989.355,1.306852,410162,20235
993.124,1.313307,412868,20068
996.888,1.305967,414263,20479
1000.65,1.313345,415476,20193
1004.4,1.309921,415479,20353
1009.41,1.305093,414358,20525
1013.15,1.307241,412923,20353
1016.89,1.308638,411526,20219
1020.63,1.311089,409066,19985
1024.36,1.306744,406777,20073
1028.09,1.312131,404427,19711
1031.82,1.309465,401911,19709
1036.78,1.312529,398410,19400
1040.49,1.302792,396204,19730
1044.2,1.306257,394236,19476
1047.91,1.303744,392042,19480
1051.61,1.315303,389823,18861
1055.31,1.318974,388234,18626
1059,1.315173,387599,18759
1063.92,1.307968,386688,19028
1067.61,1.308941,386598,18981
1071.29,1.309815,387377,18981
1074.96,1.316106,388536,18764
1078.63,1.315269,389855,18864
1082.3,1.317035,391215,18853
1085.96,1.320773,393215,18787
1090.84,1.317709,396270,19067
1094.49,1.317591,398760,19192
1098.14,1.320689,400987,19162
1101.79,1.310494,403477,19739
1105.43,1.317370,406116,19556
1109.06,1.315942,407701,19697
1112.7,1.319493,409859,19640
1117.53,1.314084,412494,20014
1121.15,1.315319,414909,20074
1124.77,1.313251,416559,20250
1128.38,1.318900,418532,20083
1131.99,1.313382,419956,20409
1135.6,1.314436,421946,20456
1139.2,1.312745,423881,20630
1143.99,1.319942,426786,20430
1147.58,1.319575,428617,20535
1151.17,1.321899,431169,20547
1154.75,1.324193,433579,20553
1158.33,1.314644,436264,21140
1161.91,1.321349,439132,20953
1165.48,1.317241,442389,21309
1169.04,1.316732,446101,21513
1173.79,1.315082,451929,21877
1177.34,1.317614,456026,21947
1180.9,1.321073,461306,22025
1184.44,1.317648,467657,22505
1187.99,1.321853,473969,22589
1191.52,1.326599,479856,22621
1195.06,1.325095,487372,23055
1199.76,1.326924,497347,23428
1203.29,1.320645,504311,24102
1206.81,1.319615,511507,24504
1210.33,1.323856,519078,24625
1213.84,1.323276,527163,25042
1217.35,1.321920,534208,25456
1220.85,1.345650,540472,24385
1225.51,1.330898,549929,25669
1229.01,1.321409,556888,26568
1232.5,1.329276,562180,26339
1235.98,1.322901,567975,27004
1239.46,1.321112,574815,27442
1242.94,1.323748,582782,27654
1246.41,1.326769,591476,27872
1251.03,1.327669,604016,28404
1254.5,1.325668,612289,28926
1257.96,1.328184,619125,29080
1261.41,1.328552,624551,29310
1264.86,1.325157,629900,29793
1268.31,1.323139,634345,30143
1271.75,1.326400,638574,30117
1276.33,1.330968,642499,29985
1279.76,1.327767,645905,30367
1283.19,1.331702,648307,30205
1286.61,1.328314,650446,30542
1290.03,1.338084,652132,29940
1293.44,1.333100,653907,30368
1296.85,1.325098,655963,31030
1301.39,1.332543,657349,30567
1304.8,1.333962,657558,30477
1308.19,1.327582,658515,30973
1311.58,1.333219,658804,30587
1314.97,1.332887,659011,30620
1318.36,1.336590,658272,30326
1321.73,1.327439,658022,30960
1326.23,1.329448,657870,30810
1329.6,1.335393,656482,30327
1332.97,1.337972,654926,30076
1336.33,1.330727,653727,30526
1339.69,1.335522,652497,30134
1343.04,1.325264,649913,30732
1346.39,1.328409,647671,30405
1349.73,1.333681,645338,29930
1354.18,1.331989,641175,29853
1357.52,1.329623,638376,29885
1360.85,1.332252,635805,29585
1364.17,1.332115,633413,29483
1367.49,1.327057,631026,29716
1370.81,1.324668,628050,29739
1374.12,1.328458,625034,29339
1378.54,1.332075,620272,28874
1381.84,1.325943,616892,29125
1385.14,1.329091,613613,28761
1388.43,1.328155,611526,28725
1391.72,1.329253,610663,28612
1395.01,1.329764,610634,28577
1398.29,1.328399,611700,28717
1402.66,1.329687,614051,28742
1405.93,1.329564,616268,28854
1409.2,1.331286,617795,28811
1412.46,1.326813,618872,29160
1415.72,1.337464,619795,28496
1418.98,1.336463,620495,28594
1422.23,1.335422,621087,28690
1426.56,1.334701,621375,28751
1429.8,1.336989,621616,28611
1433.04,1.330465,622129,29068
1436.27,1.330523,621526,29036
1439.5,1.338341,621113,28499
1442.72,1.335866,620921,28653
1445.94,1.339477,620270,28386
1450.23,1.333408,618860,28720
1453.44,1.328153,617697,29015
1456.64,1.333902,616264,28567
1459.85,1.331442,614413,28643
1463.04,1.334340,612307,28355
1466.24,1.334950,610032,28210
1469.43,1.338844,607345,27835
1473.67,1.334317,603789,27962
1476.85,1.337494,601175,27638
1480.02,1.334611,597737,27663
1483.19,1.336307,594479,27405
1486.36,1.334420,591232,27374
1489.52,1.337005,587853,27056
1492.68,1.337376,583875,26850
1496.89,1.339270,578062,26467
1500.03,1.337609,574159,26389
1503.18,1.342826,570285,25898
1506.32,1.337233,565444,26011
1509.45,1.335683,560571,25879
1512.58,1.338071,555821,25519
1515.71,1.339527,550344,25183
1519.87,1.343610,543983,24659
1522.99,1.342676,538764,24475
1526.1,1.337045,533692,24561
1529.21,1.337609,527902,24263
1532.32,1.338542,521886,23935
1535.42,1.335340,515888,23835
1538.51,1.339607,509987,23332
1541.6,1.342616,503936,22896
1545.72,1.328250,494694,23232
1548.8,1.335090,488378,22577
1551.88,1.330578,481832,22507
1554.95,1.330820,474989,22175
1558.02,1.338751,467818,21445
1561.08,1.336906,460730,21210
1564.15,1.341920,454170,20668
1568.22,1.336485,444181,20468
1571.27,1.342537,436947,19856
1574.32,1.329154,429598,20133
1577.36,1.336679,422039,19439
1580.4,1.335792,414375,19125
1583.43,1.334677,406354,18803
1586.46,1.331332,398475,18581
1590.49,1.336277,388982,17933
1593.51,1.327642,380708,17904
1596.53,1.332192,372727,17346
1599.54,1.325701,365060,17245
1602.55,1.321527,357543,17053
1605.55,1.328730,349495,16395
1608.55,1.325639,341154,16118
1612.54,1.315547,330877,16000
1615.53,1.330269,322904,15094
1618.51,1.315885,315116,15226
1621.49,1.314288,307217,14899
1624.47,1.325122,299481,14166
1627.44,1.319142,292112,14009
1630.41,1.319867,284245,13609
1634.36,1.311095,274079,13390
1637.32,1.328909,266916,12516
1640.27,1.311822,259612,12662
1643.22,1.311546,251804,12289
1646.16,1.312389,244348,11902
1649.1,1.322164,236703,11273
1652.04,1.326125,228171,10768
1655.95,1.298673,215408,10829
1658.88,1.289811,204937,10515
1661.8,1.291556,193395,9883
1664.72,1.290922,179728,9198
1667.63,1.260667,163642,8979
1670.54,1.232603,146312,8564
1673.44,1.210891,128451,7904
1677.31,1.182231,105080,6907
1680.21,1.178374,88906,5896
1683.1,1.205935,75033,4670
1685.99,1.202373,63520,3986
1688.87,1.165658,53714,3668
1691.75,1.179894,45653,3017
1694.62,1.175781,39137,2611
1697.49,1.201454,33776,2124
1701.31,1.167695,28175,1915