Folder: textile_sorting_NIRSCAN_/ML/samples/unknown (part 91)

File: Column 1_078645_20241121_171254.csv
Method:,Column 1,,
Host Date-Time:,21/11/24 @ 17:12:54,,
Header Version:,1,,
System Temp (C):,36.08,,
Detector Temp (C):,35.25,,
Humidity (%):,0.39,,
Lamp PD:,3798,,
Shift Vector Coefficients:,-10.5391,0.0761263,-0.000134223,,
Pixel to Wavelength Coefficients:,1775.68,-0.916766,-0.000235065,,
Serial Number:,5510004,,
Scan Config Name:,Column 1,,
Scan Config Type:,Slew,,
Section 1,,
Start wavelength (nm):,900,,
End wavelength (nm):,1700,,
Pattern Pixel Width (nm):,   7.03,,,,
Exposure (ms):,  0.635,,,,
Digital Resolution:,228,,
Num Repeats:,6,,
PGA Gain:,64,,
Total Measurement Time in sec:,  2.725,,
Wavelength (nm),Absorbance (AU),Reference Signal (unitless),Sample Signal (unitless)
901.51,1.293982,108485,5513
905.376,1.306746,121306,5986
909.237,1.310513,131909,6453
913.095,1.328874,143299,6720
916.948,1.316926,156982,7567
922.079,1.312616,179937,8760
925.923,1.331497,200504,9346
929.762,1.325585,222660,10521
933.597,1.327865,244426,11489
937.427,1.312249,263972,12862
941.254,1.317751,281845,13560
945.076,1.307938,297271,14629
950.165,1.304213,315605,15665
953.978,1.309140,328029,16098
957.786,1.306925,340470,16794
961.59,1.311178,352317,17209
965.389,1.304991,363056,17988
969.185,1.302945,373162,18576
972.976,1.306641,382632,18886
976.763,1.301677,391202,19531
981.806,1.304703,400190,19841
985.583,1.310095,406088,19885
989.355,1.298646,410162,20621
993.124,1.304969,412868,20457
996.888,1.307093,414263,20426
1000.65,1.305502,415476,20561
1004.4,1.298340,415479,20903
1009.41,1.309025,414358,20340
1013.15,1.298725,412923,20756
1016.89,1.297693,411526,20735
1020.63,1.300697,409066,20469
1024.36,1.310874,406777,19883
1028.09,1.309298,404427,19840
1031.82,1.304252,401911,19947
1036.78,1.312820,398410,19387
1040.49,1.304070,396204,19672
1044.2,1.304454,394236,19557
1047.91,1.306472,392042,19358
1051.61,1.306888,389823,19230
1055.31,1.309564,388234,19034
1059,1.308078,387599,19068
1063.92,1.317148,386688,18630
1067.61,1.308712,386598,18991
1071.29,1.314138,387377,18793
1074.96,1.310632,388536,19002
1078.63,1.310963,389855,19052
1082.3,1.302648,391215,19488
1085.96,1.316517,393215,18972
1090.84,1.309585,396270,19427
1094.49,1.310232,398760,19520
1098.14,1.317618,400987,19298
1101.79,1.320081,403477,19308
1105.43,1.312226,406116,19789
1109.06,1.306843,407701,20114
1112.7,1.315882,409859,19804
1117.53,1.306960,412494,20345
1121.15,1.305226,414909,20546
1124.77,1.311774,416559,20319
1128.38,1.313463,418532,20336
1131.99,1.318864,419956,20153
1135.6,1.315095,421946,20425
1139.2,1.319577,423881,20308
1143.99,1.314870,426786,20670
1147.58,1.308343,428617,21073
1151.17,1.314065,431169,20921
1154.75,1.316548,433579,20918
1158.33,1.305457,436264,21592
1161.91,1.313096,439132,21355
1165.48,1.316712,442389,21335
1169.04,1.316975,446101,21501
1173.79,1.315460,451929,21858
1177.34,1.309052,456026,22384
1180.9,1.313140,461306,22431
1184.44,1.314591,467657,22664
1187.99,1.312100,473969,23102
1191.52,1.314950,479856,23236
1195.06,1.322728,487372,23181
1199.76,1.317590,497347,23937
1203.29,1.319278,504311,24178
1206.81,1.314470,511507,24796
1210.33,1.320501,519078,24816
1213.84,1.320286,527163,25215
1217.35,1.318386,534208,25664
1220.85,1.318954,540472,25931
1225.51,1.322685,549929,26159
1229.01,1.324197,556888,26398
1232.5,1.323332,562180,26702
1235.98,1.318230,567975,27296
1239.46,1.317393,574815,27678
1242.94,1.319544,582782,27923
1246.41,1.324097,591476,28044
1251.03,1.316455,604016,29147
1254.5,1.320875,612289,29247
1257.96,1.321956,619125,29500
1261.41,1.326055,624551,29479
1264.86,1.325099,629900,29797
1268.31,1.321442,634345,30261
1271.75,1.324400,638574,30256
1276.33,1.320578,642499,30711
1279.76,1.319508,645905,30950
1283.19,1.323681,648307,30768
1286.61,1.326413,650446,30676
1290.03,1.323338,652132,30974
1293.44,1.323706,653907,31032
1296.85,1.324762,655963,31054
1301.39,1.320300,657349,31441
1304.8,1.324825,657558,31125
1308.19,1.327204,658515,31000
1311.58,1.324908,658804,31178
1314.97,1.330680,659011,30776
1318.36,1.321531,658272,31396
1321.73,1.326599,658022,31020
1326.23,1.328519,657870,30876
1329.6,1.328743,656482,30795
1332.97,1.328262,654926,30756
1336.33,1.324960,653727,30934
1339.69,1.334428,652497,30210
1343.04,1.332245,649913,30242
1346.39,1.328238,647671,30417
1349.73,1.332145,645338,30036
1354.18,1.323175,641175,30465
1357.52,1.326323,638376,30113
1360.85,1.325971,635805,30016
1364.17,1.323207,633413,30094
1367.49,1.329299,631026,29563
1370.81,1.324902,628050,29723
1374.12,1.321994,625034,29779
1378.54,1.320601,620272,29647
1381.84,1.325973,616892,29123
1385.14,1.322601,613613,29194
1388.43,1.326766,611526,28817
1391.72,1.318460,610663,29332
1395.01,1.323533,610634,28990
1398.29,1.321007,611700,29210
1402.66,1.325402,614051,29027
1405.93,1.328977,616268,28893
1409.2,1.326072,617795,29159
1412.46,1.325327,618872,29260
1415.72,1.325766,619795,29274
1418.98,1.331195,620495,28943
1422.23,1.329468,621087,29086
1426.56,1.330926,621375,29002
1429.8,1.330017,621616,29074
1433.04,1.328899,622129,29173
1436.27,1.324640,621526,29432
1439.5,1.335940,621113,28657
1442.72,1.325813,620921,29324
1445.94,1.333747,620270,28763
1450.23,1.331010,618860,28879
1453.44,1.325170,617697,29215
1456.64,1.330163,616264,28814
1459.85,1.333341,614413,28518
1463.04,1.334232,612307,28362
1466.24,1.328592,610032,28626
1469.43,1.334003,607345,28147
1473.67,1.327169,603789,28426
1476.85,1.329291,601175,28165
1480.02,1.334815,597737,27650
1483.19,1.331672,594479,27699
1486.36,1.334928,591232,27342
1489.52,1.336556,587853,27084
1492.68,1.333896,583875,27066
1496.89,1.328029,578062,27161
1500.03,1.337412,574159,26401
1503.18,1.330460,570285,26646
1506.32,1.325537,565444,26721
1509.45,1.334226,560571,25966
1512.58,1.325706,555821,26256
1515.71,1.335510,550344,25417
1519.87,1.330974,543983,25387
1522.99,1.330360,538764,25179
1526.1,1.335632,533692,24641
1529.21,1.328294,527902,24789
1532.32,1.338125,521886,23958
1535.42,1.330322,515888,24112
1538.51,1.330472,509987,23828
1541.6,1.330440,503936,23547
1545.72,1.328456,494694,23221
1548.8,1.332807,488378,22696
1551.88,1.336523,481832,22201
1554.95,1.336061,474989,21909
1558.02,1.332797,467818,21741
1561.08,1.327948,460730,21652
1564.15,1.338821,454170,20816
1568.22,1.326583,444181,20940
1571.27,1.329693,436947,20452
1574.32,1.333686,429598,19924
1577.36,1.333385,422039,19587
1580.4,1.324451,414375,19631
1583.43,1.327326,406354,19124
1586.46,1.327377,398475,18751
1590.49,1.326767,388982,18330
1593.51,1.324091,380708,18051
1596.53,1.320776,372727,17808
1599.54,1.322865,365060,17358
1602.55,1.323084,357543,16992
1605.55,1.324276,349495,16564
1608.55,1.316732,341154,16452
1612.54,1.319610,330877,15851
1615.53,1.309565,322904,15831
1618.51,1.322437,315116,14998
1621.49,1.318624,307217,14751
1624.47,1.328786,299481,14047
1627.44,1.323880,292112,13857
1630.41,1.321241,284245,13566
1634.36,1.322132,274079,13054
1637.32,1.317134,266916,12860
1640.27,1.314817,259612,12575
1643.22,1.313494,251804,12234
1646.16,1.313887,244348,11861
1649.1,1.305499,236703,11714
1652.04,1.320555,228171,10907
1655.95,1.288840,215408,11077
1658.88,1.277473,204937,10818
1661.8,1.287489,193395,9976
1664.72,1.273160,179728,9582
1667.63,1.255522,163642,9086
1670.54,1.259970,146312,8041
1673.44,1.207715,128451,7962
1677.31,1.150590,105080,7429
1680.21,1.165385,88906,6075
1683.1,1.133235,75033,5521
1685.99,1.143470,63520,4565
1688.87,1.144176,53714,3854
1691.75,1.141087,45653,3299
1694.62,1.108003,39137,3052
1697.49,1.196372,33776,2149
1701.31,1.138746,28175,2047

File: Column 1_078648_20241121_171303.csv
Method:,Column 1,,
Host Date-Time:,21/11/24 @ 17:13:3,,
Header Version:,1,,
System Temp (C):,36.27,,
Detector Temp (C):,35.22,,
Humidity (%):,0.68,,
Lamp PD:,3797,,
Shift Vector Coefficients:,-10.5391,0.0761263,-0.000134223,,
Pixel to Wavelength Coefficients:,1775.68,-0.916766,-0.000235065,,
Serial Number:,5510004,,
Scan Config Name:,Column 1,,
Scan Config Type:,Slew,,
Section 1,,
Start wavelength (nm):,900,,
End wavelength (nm):,1700,,
Pattern Pixel Width (nm):,   7.03,,,,
Exposure (ms):,  0.635,,,,
Digital Resolution:,228,,
Num Repeats:,6,,
PGA Gain:,64,,
Total Measurement Time in sec:,  2.706,,
Wavelength (nm),Absorbance (AU),Reference Signal (unitless),Sample Signal (unitless)
901.51,1.297859,108485,5464
905.376,1.298837,121306,6096
909.237,1.322591,131909,6276
913.095,1.318339,143299,6885
916.948,1.317615,156982,7555
922.079,1.309111,179937,8831
925.923,1.326553,200504,9453
929.762,1.342848,222660,10111
933.597,1.320036,244426,11698
937.427,1.324995,263972,12490
941.254,1.318424,281845,13539
945.076,1.315001,297271,14393
950.165,1.302112,315605,15741
953.978,1.304391,328029,16275
957.786,1.304501,340470,16888
961.59,1.318944,352317,16904
965.389,1.309724,363056,17793
969.185,1.313595,373162,18126
972.976,1.302362,382632,19073
976.763,1.305518,391202,19359
981.806,1.306985,400190,19737
985.583,1.304324,406088,20151
989.355,1.306252,410162,20263
993.124,1.308465,412868,20293
996.888,1.309609,414263,20308
1000.65,1.298753,415476,20883
1004.4,1.308451,415479,20422
1009.41,1.307660,414358,20404
1013.15,1.299626,412923,20713
1016.89,1.304086,411526,20432
1020.63,1.311959,409066,19945
1024.36,1.308109,406777,20010
1028.09,1.299344,404427,20300
1031.82,1.298714,401911,20203
1036.78,1.295194,398410,20190
1040.49,1.314346,396204,19212
1044.2,1.315315,394236,19074
1047.91,1.312049,392042,19111
1051.61,1.296511,389823,19695
1055.31,1.303041,388234,19322
1059,1.315961,387599,18725
1063.92,1.315240,386688,18712
1067.61,1.311557,386598,18867
1071.29,1.304516,387377,19214
1074.96,1.301764,388536,19394
1078.63,1.317138,389855,18783
1082.3,1.310088,391215,19157
1085.96,1.311374,393215,19198
1090.84,1.311086,396270,19360
1094.49,1.316258,398760,19251
1098.14,1.305523,400987,19843
1101.79,1.314672,403477,19550
1105.43,1.303987,406116,20168
1109.06,1.311751,407701,19888
1112.7,1.312278,409859,19969
1117.53,1.317329,412494,19865
1121.15,1.308216,414909,20405
1124.77,1.308347,416559,20480
1128.38,1.317432,418532,20151
1131.99,1.312213,419956,20464
1135.6,1.307110,421946,20804
1139.2,1.318488,423881,20359
1143.99,1.313946,426786,20714
1147.58,1.315030,428617,20751
1151.17,1.320822,431169,20598
1154.75,1.317088,433579,20892
1158.33,1.319894,436264,20886
1161.91,1.317162,439132,21156
1165.48,1.314195,442389,21459
1169.04,1.317965,446101,21452
1173.79,1.307643,451929,22255
1177.34,1.315010,456026,22079
1180.9,1.313974,461306,22388
1184.44,1.307916,467657,23015
1187.99,1.319590,473969,22707
1191.52,1.327195,479856,22590
1195.06,1.324606,487372,23081
1199.76,1.315761,497347,24038
1203.29,1.316628,504311,24326
1206.81,1.322192,511507,24359
1210.33,1.316928,519078,25021
1213.84,1.323675,527163,25019
1217.35,1.323715,534208,25351
1220.85,1.316899,540472,26054
1225.51,1.317897,549929,26449
1229.01,1.315419,556888,26937
1232.5,1.313411,562180,27319
1235.98,1.327054,567975,26747
1239.46,1.317362,574815,27680
1242.94,1.322776,582782,27716
1246.41,1.311957,591476,28839
1251.03,1.320075,604016,28905
1254.5,1.324334,612289,29015
1257.96,1.322782,619125,29444
1261.41,1.324086,624551,29613
1264.86,1.322962,629900,29944
1268.31,1.323658,634345,30107
1271.75,1.324486,638574,30250
1276.33,1.325714,642499,30350
1279.76,1.323002,645905,30702
1283.19,1.322779,648307,30832
1286.61,1.318167,650446,31264
1290.03,1.321282,652132,31121
1293.44,1.334461,653907,30273
1296.85,1.328992,655963,30753
1301.39,1.325301,657349,31081
1304.8,1.323487,657558,31221
1308.19,1.321180,658515,31433
1311.58,1.323240,658804,31298
1314.97,1.327923,659011,30972
1318.36,1.327885,658272,30940
1321.73,1.332335,658022,30613
1326.23,1.324780,657870,31143
1329.6,1.323249,656482,31187
1332.97,1.333133,654926,30413
1336.33,1.322706,653727,31095
1339.69,1.328021,652497,30659
1343.04,1.321227,649913,31019
1346.39,1.322987,647671,30787
1349.73,1.334218,645338,29893
1354.18,1.327761,641175,30145
1357.52,1.323433,638376,30314
1360.85,1.329472,635805,29775
1364.17,1.326641,633413,29857
1367.49,1.324173,631026,29914
1370.81,1.317872,628050,30208
1374.12,1.328281,625034,29351
1378.54,1.323910,620272,29422
1381.84,1.321891,616892,29398
1385.14,1.325467,613613,29002
1388.43,1.318999,611526,29337
1391.72,1.326394,610663,28801
1395.01,1.322799,610634,29039
1398.29,1.323512,611700,29042
1402.66,1.323208,614051,29174
1405.93,1.328556,616268,28921
1409.2,1.329001,617795,28963
1412.46,1.324082,618872,29344
1415.72,1.323001,619795,29461
1418.98,1.331195,620495,28943
1422.23,1.329110,621087,29110
1426.56,1.323797,621375,29482
1429.8,1.332309,621616,28921
1433.04,1.332292,622129,28946
1436.27,1.326503,621526,29306
1439.5,1.331537,621113,28949
1442.72,1.327371,620921,29219
1445.94,1.332706,620270,28832
1450.23,1.331416,618860,28852
1453.44,1.326838,617697,29103
1456.64,1.332067,616264,28688
1459.85,1.333478,614413,28509
1463.04,1.329739,612307,28657
1466.24,1.330996,610032,28468
1469.43,1.334992,607345,28083
1473.67,1.330313,603789,28221
1476.85,1.333334,601175,27904
1480.02,1.332184,597737,27818
1483.19,1.327056,594479,27995
1486.36,1.330141,591232,27645
1489.52,1.329084,587853,27554
1492.68,1.331591,583875,27210
1496.89,1.334943,578062,26732
1500.03,1.330282,574159,26838
1503.18,1.329646,570285,26696
1506.32,1.332632,565444,26288
1509.45,1.329783,560571,26233
1512.58,1.325773,555821,26252
1515.71,1.331648,550344,25644
1519.87,1.332843,543983,25278
1522.99,1.325694,538764,25451
1526.1,1.340970,533692,24340
1529.21,1.336625,527902,24318
1532.32,1.332506,521886,24270
1535.42,1.331350,515888,24055
1538.51,1.325038,509987,24128
1541.6,1.333847,503936,23363
1545.72,1.325864,494694,23360
1548.8,1.329927,488378,22847
1551.88,1.332202,481832,22423
1554.95,1.331329,474989,22149
1558.02,1.328247,467818,21970
1561.08,1.329798,460730,21560
1564.15,1.321640,454170,21656
1568.22,1.333461,444181,20611
1571.27,1.335831,436947,20165
1574.32,1.331078,429598,20044
1577.36,1.327505,422039,19854
1580.4,1.327782,414375,19481
1583.43,1.342226,406354,18479
1586.46,1.324813,398475,18862
1590.49,1.330933,388982,18155
1593.51,1.326915,380708,17934
1596.53,1.327609,372727,17530
1599.54,1.323942,365060,17315
1602.55,1.324107,357543,16952
1605.55,1.322941,349495,16615
1608.55,1.331144,341154,15915
1612.54,1.328523,330877,15529
1615.53,1.315170,322904,15628
1618.51,1.326656,315116,14853
1621.49,1.325239,307217,14528
1624.47,1.311570,299481,14615
1627.44,1.319576,292112,13995
1630.41,1.306728,284245,14027
1634.36,1.313535,274079,13315
1637.32,1.315415,266916,12911
1640.27,1.310521,259612,12700
1643.22,1.306068,251804,12445
1646.16,1.292491,244348,12460
1649.1,1.311998,236703,11540
1652.04,1.299607,228171,11446
1655.95,1.307997,215408,10599
1658.88,1.298994,204937,10295
1661.8,1.278655,193395,10181
1664.72,1.276207,179728,9515
1667.63,1.252094,163642,9158
1670.54,1.225761,146312,8700
1673.44,1.224395,128451,7662
1677.31,1.184690,105080,6868
1680.21,1.156609,88906,6199
1683.1,1.180209,75033,4955
1685.99,1.118424,63520,4836
1688.87,1.113717,53714,4134
1691.75,1.168528,45653,3097
1694.62,1.156107,39137,2732
1697.49,1.142288,33776,2434
1701.31,1.121688,28175,2129

File: Column 1_078650_20241121_171309.csv
Method:,Column 1,,
Host Date-Time:,21/11/24 @ 17:13:9,,
Header Version:,1,,
System Temp (C):,36.31,,
Detector Temp (C):,35.27,,
Humidity (%):,0.68,,
Lamp PD:,3797,,
Shift Vector Coefficients:,-10.5391,0.0761263,-0.000134223,,
Pixel to Wavelength Coefficients:,1775.68,-0.916766,-0.000235065,,
Serial Number:,5510004,,
Scan Config Name:,Column 1,,
Scan Config Type:,Slew,,
Section 1,,
Start wavelength (nm):,900,,
End wavelength (nm):,1700,,
Pattern Pixel Width (nm):,   7.03,,,,
Exposure (ms):,  0.635,,,,
Digital Resolution:,228,,
Num Repeats:,6,,
PGA Gain:,64,,
Total Measurement Time in sec:,  2.674,,
Wavelength (nm),Absorbance (AU),Reference Signal (unitless),Sample Signal (unitless)
901.51,1.301290,108485,5421
905.376,1.329687,121306,5678
909.237,1.315318,131909,6382
913.095,1.323990,143299,6796
916.948,1.336051,156982,7241
922.079,1.311329,179937,8786
925.923,1.320712,200504,9581
929.762,1.330609,222660,10400
933.597,1.334531,244426,11314
937.427,1.300589,263972,13212
941.254,1.314305,281845,13668
945.076,1.318546,297271,14276
950.165,1.312329,315605,15375
953.978,1.316788,328029,15817
957.786,1.308479,340470,16734
961.59,1.308060,352317,17333
965.389,1.308360,363056,17849
969.185,1.313021,373162,18150
972.976,1.303959,382632,19003
976.763,1.300810,391202,19570
981.806,1.307029,400190,19735
985.583,1.314374,406088,19690
989.355,1.314342,410162,19889
993.124,1.304142,412868,20496
996.888,1.302756,414263,20631
1000.65,1.303269,415476,20667
1004.4,1.308472,415479,20421
1009.41,1.305728,414358,20495
1013.15,1.306771,412923,20375
1016.89,1.292902,411526,20965
1020.63,1.308122,409066,20122
1024.36,1.307437,406777,20041
1028.09,1.297402,404427,20391
1031.82,1.304035,401911,19957
1036.78,1.296853,398410,20113
1040.49,1.304556,396204,19650
1044.2,1.300453,394236,19738
1047.91,1.309037,392042,19244
1051.61,1.303805,389823,19367
1055.31,1.302031,388234,19367
1059,1.305851,387599,19166
1063.92,1.308996,386688,18983
1067.61,1.315999,386598,18675
1071.29,1.305920,387377,19152
1074.96,1.301697,388536,19397
1078.63,1.312104,389855,19002
1082.3,1.306678,391215,19308
1085.96,1.301599,393215,19635
1090.84,1.307489,396270,19521
1094.49,1.312194,398760,19432
1098.14,1.295677,400987,20298
1101.79,1.319677,403477,19326
1105.43,1.310059,406116,19888
1109.06,1.305507,407701,20176
1112.7,1.315202,409859,19835
1117.53,1.312373,412494,20093
1121.15,1.314714,414909,20102
1124.77,1.309132,416559,20443
1128.38,1.323924,418532,19852
1131.99,1.316650,419956,20256
1135.6,1.310106,421946,20661
1139.2,1.309536,423881,20783
1143.99,1.323249,426786,20275
1147.58,1.319744,428617,20527
1151.17,1.324805,431169,20410
1154.75,1.303742,433579,21544
1158.33,1.321206,436264,20823
1161.91,1.316464,439132,21190
1165.48,1.312015,442389,21567
1169.04,1.311994,446101,21749
1173.79,1.315659,451929,21848
1177.34,1.302964,456026,22700
1180.9,1.308787,461306,22657
1184.44,1.312755,467657,22760
1187.99,1.317453,473969,22819
1191.52,1.315642,479856,23199
1195.06,1.313717,487372,23667
1199.76,1.318643,497347,23879
1203.29,1.315807,504311,24372
1206.81,1.314715,511507,24782
1210.33,1.319941,519078,24848
1213.84,1.313671,527163,25602
1217.35,1.318521,534208,25656
1220.85,1.321507,540472,25779
1225.51,1.316913,549929,26509
1229.01,1.310832,556888,27223
1232.5,1.321595,562180,26809
1235.98,1.314807,567975,27512
1239.46,1.320243,574815,27497
1242.94,1.323450,582782,27673
1246.41,1.317580,591476,28468
1251.03,1.317409,604016,29083
1254.5,1.322929,612289,29109
1257.96,1.320545,619125,29596
1261.41,1.316699,624551,30121
1264.86,1.324138,629900,29863
1268.31,1.324597,634345,30042
1271.75,1.319518,638574,30598
1276.33,1.322321,642499,30588
1279.76,1.325015,645905,30560
1283.19,1.321148,648307,30948
1286.61,1.328228,650446,30548
1290.03,1.323492,652132,30963
1293.44,1.322351,653907,31129
1296.85,1.321293,655963,31303
1301.39,1.325832,657349,31043
1304.8,1.325202,657558,31098
1308.19,1.328537,658515,30905
1311.58,1.327465,658804,30995
1314.97,1.325462,659011,31148
1318.36,1.328700,658272,30882
1321.73,1.326599,658022,31020
1326.23,1.332234,657870,30613
1329.6,1.327897,656482,30855
1332.97,1.320981,654926,31276
1336.33,1.330428,653727,30547
1339.69,1.328417,652497,30631
1343.04,1.320039,649913,31104
1346.39,1.326471,647671,30541
1349.73,1.330414,645338,30156
1354.18,1.324675,641175,30360
1357.52,1.320392,638376,30527
1360.85,1.323188,635805,30209
1364.17,1.329853,633413,29637
1367.49,1.322290,631026,30044
1370.81,1.325340,628050,29693
1374.12,1.320087,625034,29910
1378.54,1.326204,620272,29267
1381.84,1.322705,616892,29343
1385.14,1.321680,613613,29256
1388.43,1.322850,611526,29078
1391.72,1.323673,610663,28982
1395.01,1.326117,610634,28818
1398.29,1.328520,611700,28709
1402.66,1.326481,614051,28955
1405.93,1.325877,616268,29100
1409.2,1.326534,617795,29128
1412.46,1.326828,618872,29159
1415.72,1.324374,619795,29368
1418.98,1.330610,620495,28982
1422.23,1.324968,621087,29389
1426.56,1.326857,621375,29275
1429.8,1.329301,621616,29122
1433.04,1.325666,622129,29391
1436.27,1.330777,621526,29019
1439.5,1.324380,621113,29430
1442.72,1.333373,620921,28818
1445.94,1.327808,620270,29159
1450.23,1.326135,618860,29205
1453.44,1.327614,617697,29051
1456.64,1.327324,616264,29003
1459.85,1.330004,614413,28738
1463.04,1.331804,612307,28521
1466.24,1.332248,610032,28386
1469.43,1.328118,607345,28531
1473.67,1.332968,603789,28049
1476.85,1.329739,601175,28136
1480.02,1.333639,597737,27725
1483.19,1.332410,594479,27652
1486.36,1.338981,591232,27088
1489.52,1.330331,587853,27475
1492.68,1.333431,583875,27095
1496.89,1.335057,578062,26725
1500.03,1.331579,574159,26758
1503.18,1.326986,570285,26860
1506.32,1.331741,565444,26342
1509.45,1.326714,560571,26419
1512.58,1.335881,555821,25648
1515.71,1.331564,550344,25649
1519.87,1.332533,543983,25296
1522.99,1.329860,538764,25208
1526.1,1.330029,533692,24961
1529.21,1.330173,527902,24682
1532.32,1.337003,521886,24020
1535.42,1.331856,515888,24027
1538.51,1.323009,509987,24241
1541.6,1.320863,503936,24072
1545.72,1.328905,494694,23197
1548.8,1.332443,488378,22715
1551.88,1.334669,481832,22296
1554.95,1.323980,474989,22527
1558.02,1.330288,467818,21867
1561.08,1.319447,460730,22080
1564.15,1.325811,454170,21449
1568.22,1.332787,444181,20643
1571.27,1.328908,436947,20489
1574.32,1.324455,429598,20352
1577.36,1.329346,422039,19770
1580.4,1.325093,414375,19602
1583.43,1.322965,406354,19317
1586.46,1.325435,398475,18835
1590.49,1.318274,388982,18692
1593.51,1.327521,380708,17909
1596.53,1.319023,372727,17880
1599.54,1.322714,365060,17364
1602.55,1.320053,357543,17111
1605.55,1.317873,349495,16810
1608.55,1.318637,341154,16380
1612.54,1.329391,330877,15498
1615.53,1.320004,322904,15455
1618.51,1.316198,315116,15215
1621.49,1.298348,307217,15456
1624.47,1.326289,299481,14128
1627.44,1.310730,292112,14283
1630.41,1.318274,284245,13659
1634.36,1.297085,274079,13829
1637.32,1.305735,266916,13202
1640.27,1.315716,259612,12549
1643.22,1.304848,251804,12480
1646.16,1.303897,244348,12137
1649.1,1.297636,236703,11928
1652.04,1.295829,228171,11546
1655.95,1.297032,215408,10870
1658.88,1.276952,204937,10831
1661.8,1.288055,193395,9963
1664.72,1.281211,179728,9406
1667.63,1.255905,163642,9078
1670.54,1.223570,146312,8744
1673.44,1.210726,128451,7907
1677.31,1.156712,105080,7325
1680.21,1.152982,88906,6251
1683.1,1.147142,75033,5347
1685.99,1.133036,63520,4676
1688.87,1.145078,53714,3846
1691.75,1.116271,45653,3493
1694.62,1.154203,39137,2744
1697.49,1.209086,33776,2087
1701.31,1.258692,28175,1553