Folder: textile_sorting_NIRSCAN_/ML/samples/unknown (part 94)

File: Column 1_078675_20241121_171645.csv
Method:,Column 1,,
Host Date-Time:,21/11/24 @ 17:16:45,,
Header Version:,1,,
System Temp (C):,34.77,,
Detector Temp (C):,35.23,,
Humidity (%):,1.37,,
Lamp PD:,3802,,
Shift Vector Coefficients:,-10.5391,0.0761263,-0.000134223,,
Pixel to Wavelength Coefficients:,1775.68,-0.916766,-0.000235065,,
Serial Number:,5510004,,
Scan Config Name:,Column 1,,
Scan Config Type:,Slew,,
Section 1,,
Start wavelength (nm):,900,,
End wavelength (nm):,1700,,
Pattern Pixel Width (nm):,   7.03,,,,
Exposure (ms):,  0.635,,,,
Digital Resolution:,228,,
Num Repeats:,6,,
PGA Gain:,64,,
Total Measurement Time in sec:,  2.707,,
Wavelength (nm),Absorbance (AU),Reference Signal (unitless),Sample Signal (unitless)
901.51,1.305638,108485,5367
905.376,1.311928,121306,5915
909.237,1.297910,131909,6643
913.095,1.316263,143299,6918
916.948,1.323927,156982,7446
922.079,1.313212,179937,8748
925.923,1.322893,200504,9533
929.762,1.324307,222660,10552
933.597,1.312564,244426,11901
937.427,1.319433,263972,12651
941.254,1.325213,281845,13329
945.076,1.322672,297271,14141
950.165,1.308392,315605,15515
953.978,1.306370,328029,16201
957.786,1.312494,340470,16580
961.59,1.303672,352317,17509
965.389,1.298259,363056,18269
969.185,1.316866,373162,17990
972.976,1.301180,382632,19125
976.763,1.304890,391202,19387
981.806,1.305601,400190,19800
985.583,1.302538,406088,20234
989.355,1.296608,410162,20718
993.124,1.302007,412868,20597
996.888,1.295616,414263,20973
1000.65,1.295645,415476,21033
1004.4,1.291579,415479,21231
1009.41,1.292579,414358,21125
1013.15,1.303142,412923,20546
1016.89,1.303789,411526,20446
1020.63,1.305304,409066,20253
1024.36,1.299067,406777,20431
1028.09,1.311867,404427,19723
1031.82,1.308365,401911,19759
1036.78,1.299691,398410,19982
1040.49,1.306861,396204,19546
1044.2,1.304876,394236,19538
1047.91,1.311050,392042,19155
1051.61,1.306301,389823,19256
1055.31,1.302884,388234,19329
1059,1.304674,387599,19218
1063.92,1.304286,386688,19190
1067.61,1.307593,386598,19040
1071.29,1.308421,387377,19042
1074.96,1.309081,388536,19070
1078.63,1.306134,389855,19265
1082.3,1.303295,391215,19459
1085.96,1.309028,393215,19302
1090.84,1.311333,396270,19349
1094.49,1.310967,398760,19487
1098.14,1.310321,400987,19625
1101.79,1.312876,403477,19631
1105.43,1.309208,406116,19927
1109.06,1.303081,407701,20289
1112.7,1.308683,409859,20135
1117.53,1.315584,412494,19945
1121.15,1.316142,414909,20036
1124.77,1.309344,416559,20433
1128.38,1.313784,418532,20321
1131.99,1.306584,419956,20731
1135.6,1.309874,421946,20672
1139.2,1.322710,423881,20162
1143.99,1.321432,426786,20360
1147.58,1.316204,428617,20695
1151.17,1.314688,431169,20891
1154.75,1.309832,433579,21244
1158.33,1.308180,436264,21457
1161.91,1.311877,439132,21415
1165.48,1.318016,442389,21271
1169.04,1.315523,446101,21573
1173.79,1.312233,451929,22021
1177.34,1.312480,456026,22208
1180.9,1.311112,461306,22536
1184.44,1.307407,467657,23042
1187.99,1.317606,473969,22811
1191.52,1.306839,479856,23674
1195.06,1.313112,487372,23700
1199.76,1.316394,497347,24003
1203.29,1.321800,504311,24038
1206.81,1.319756,511507,24496
1210.33,1.322747,519078,24688
1213.84,1.318310,527163,25330
1217.35,1.317490,534208,25717
1220.85,1.314770,540472,26182
1225.51,1.323749,549929,26095
1229.01,1.313071,556888,27083
1232.5,1.320656,562180,26867
1235.98,1.320799,567975,27135
1239.46,1.315811,574815,27779
1242.94,1.321149,582782,27820
1246.41,1.314146,591476,28694
1251.03,1.315532,604016,29209
1254.5,1.315181,612289,29633
1257.96,1.317533,619125,29802
1261.41,1.326276,624551,29464
1264.86,1.322831,629900,29953
1268.31,1.322865,634345,30162
1271.75,1.322867,638574,30363
1276.33,1.321570,642499,30641
1279.76,1.320942,645905,30848
1283.19,1.324812,648307,30688
1286.61,1.315784,650446,31436
1290.03,1.326194,652132,30771
1293.44,1.320277,653907,31278
1296.85,1.323910,655963,31115
1301.39,1.325329,657349,31079
1304.8,1.319059,657558,31541
1308.19,1.327905,658515,30950
1311.58,1.326932,658804,31033
1314.97,1.325449,659011,31149
1318.36,1.322099,658272,31355
1321.73,1.327131,658022,30982
1326.23,1.329138,657870,30832
1329.6,1.334235,656482,30408
1332.97,1.322121,654926,31194
1336.33,1.319478,653727,31327
1339.69,1.324732,652497,30892
1343.04,1.324234,649913,30805
1346.39,1.323171,647671,30774
1349.73,1.327543,645338,30356
1354.18,1.324375,641175,30381
1357.52,1.321489,638376,30450
1360.85,1.318554,635805,30533
1364.17,1.326045,633413,29898
1367.49,1.327393,631026,29693
1370.81,1.330401,628050,29349
1374.12,1.324289,625034,29622
1378.54,1.324959,620272,29351
1381.84,1.323519,616892,29288
1385.14,1.323629,613613,29125
1388.43,1.320423,611526,29241
1391.72,1.324333,610663,28938
1395.01,1.322276,610634,29074
1398.29,1.327538,611700,28774
1402.66,1.320315,614051,29369
1405.93,1.323644,616268,29250
1409.2,1.325224,617795,29216
1412.46,1.325757,618872,29231
1415.72,1.329850,619795,29000
1418.98,1.329846,620495,29033
1422.23,1.325544,621087,29350
1426.56,1.325642,621375,29357
1429.8,1.332489,621616,28909
1433.04,1.319722,622129,29796
1436.27,1.329164,621526,29127
1439.5,1.335289,621113,28700
1442.72,1.331718,620921,28928
1445.94,1.328509,620270,29112
1450.23,1.327670,618860,29102
1453.44,1.327794,617697,29039
1456.64,1.335395,616264,28469
1459.85,1.329113,614413,28797
1463.04,1.329648,612307,28663
1466.24,1.330523,610032,28499
1469.43,1.329506,607345,28440
1473.67,1.337622,603789,27750
1476.85,1.326800,601175,28327
1480.02,1.329507,597737,27990
1483.19,1.329889,594479,27813
1486.36,1.335770,591232,27289
1489.52,1.331708,587853,27388
1492.68,1.329156,583875,27363
1496.89,1.331867,578062,26922
1500.03,1.333563,574159,26636
1503.18,1.330313,570285,26655
1506.32,1.330786,565444,26400
1509.45,1.326517,560571,26431
1512.58,1.334698,555821,25718
1515.71,1.333941,550344,25509
1519.87,1.331350,543983,25365
1522.99,1.332556,538764,25052
1526.1,1.328292,533692,25061
1529.21,1.327647,527902,24826
1532.32,1.331130,521886,24347
1535.42,1.325237,515888,24396
1538.51,1.331384,509987,23778
1541.6,1.322852,503936,23962
1545.72,1.328811,494694,23202
1548.8,1.329547,488378,22867
1551.88,1.327348,481832,22675
1554.95,1.333216,474989,22053
1558.02,1.327181,467818,22024
1561.08,1.332891,460730,21407
1564.15,1.325832,454170,21448
1568.22,1.338740,444181,20362
1571.27,1.331950,436947,20346
1574.32,1.327539,429598,20208
1577.36,1.320884,422039,20159
1580.4,1.333911,414375,19208
1583.43,1.337993,406354,18660
1586.46,1.322288,398475,18972
1590.49,1.320393,388982,18601
1593.51,1.324572,380708,18031
1596.53,1.320800,372727,17807
1599.54,1.329394,365060,17099
1602.55,1.320332,357543,17100
1605.55,1.315451,349495,16904
1608.55,1.315677,341154,16492
1612.54,1.322607,330877,15742
1615.53,1.306367,322904,15948
1618.51,1.324876,315116,14914
1621.49,1.314551,307217,14890
1624.47,1.326289,299481,14128
1627.44,1.315869,292112,14115
1630.41,1.319643,284245,13616
1634.36,1.323031,274079,13027
1637.32,1.309103,266916,13100
1640.27,1.307692,259612,12783
1643.22,1.302834,251804,12538
1646.16,1.300653,244348,12228
1649.1,1.308699,236703,11628
1652.04,1.297600,228171,11499
1655.95,1.294562,215408,10932
1658.88,1.293003,204937,10438
1661.8,1.274072,193395,10289
1664.72,1.259859,179728,9880
1667.63,1.247237,163642,9261
1670.54,1.236935,146312,8479
1673.44,1.214255,128451,7843
1677.31,1.172101,105080,7070
1680.21,1.164813,88906,6083
1683.1,1.136630,75033,5478
1685.99,1.132294,63520,4684
1688.87,1.114243,53714,4129
1691.75,1.184089,45653,2988
1694.62,1.128844,39137,2909
1697.49,1.101609,33776,2673
1701.31,1.132218,28175,2078

File: Column 1_078676_20241121_171648.csv
Method:,Column 1,,
Host Date-Time:,21/11/24 @ 17:16:48,,
Header Version:,1,,
System Temp (C):,34.66,,
Detector Temp (C):,35.23,,
Humidity (%):,1.37,,
Lamp PD:,3802,,
Shift Vector Coefficients:,-10.5391,0.0761263,-0.000134223,,
Pixel to Wavelength Coefficients:,1775.68,-0.916766,-0.000235065,,
Serial Number:,5510004,,
Scan Config Name:,Column 1,,
Scan Config Type:,Slew,,
Section 1,,
Start wavelength (nm):,900,,
End wavelength (nm):,1700,,
Pattern Pixel Width (nm):,   7.03,,,,
Exposure (ms):,  0.635,,,,
Digital Resolution:,228,,
Num Repeats:,6,,
PGA Gain:,64,,
Total Measurement Time in sec:,  2.703,,
Wavelength (nm),Absorbance (AU),Reference Signal (unitless),Sample Signal (unitless)
901.51,1.272316,108485,5795
905.376,1.317246,121306,5843
909.237,1.319764,131909,6317
913.095,1.291317,143299,7327
916.948,1.316238,156982,7579
922.079,1.316251,179937,8687
925.923,1.332102,200504,9333
929.762,1.320619,222660,10642
933.597,1.325114,244426,11562
937.427,1.310699,263972,12908
941.254,1.317143,281845,13579
945.076,1.308146,297271,14622
950.165,1.313149,315605,15346
953.978,1.301731,328029,16375
957.786,1.306640,340470,16805
961.59,1.315693,352317,17031
965.389,1.300930,363056,18157
969.185,1.307410,373162,18386
972.976,1.305241,382632,18947
976.763,1.297340,391202,19727
981.806,1.306128,400190,19776
985.583,1.308242,406088,19970
989.355,1.293891,410162,20848
993.124,1.307588,412868,20334
996.888,1.306392,414263,20459
1000.65,1.300170,415476,20815
1004.4,1.304387,415479,20614
1009.41,1.297500,414358,20887
1013.15,1.299270,412923,20730
1016.89,1.302983,411526,20484
1020.63,1.303955,409066,20316
1024.36,1.304629,406777,20171
1028.09,1.303752,404427,20095
1031.82,1.310149,401911,19678
1036.78,1.295797,398410,20162
1040.49,1.307150,396204,19533
1044.2,1.314518,394236,19109
1047.91,1.306719,392042,19347
1051.61,1.300388,389823,19520
1055.31,1.300107,388234,19453
1059,1.299709,387599,19439
1063.92,1.302502,386688,19269
1067.61,1.307296,386598,19053
1071.29,1.305263,387377,19181
1074.96,1.309536,388536,19050
1078.63,1.309983,389855,19095
1082.3,1.317819,391215,18819
1085.96,1.307299,393215,19379
1090.84,1.310055,396270,19406
1094.49,1.315447,398760,19287
1098.14,1.309746,400987,19651
1101.79,1.311573,403477,19690
1105.43,1.314757,406116,19674
1109.06,1.316273,407701,19682
1112.7,1.312779,409859,19946
1117.53,1.315671,412494,19941
1121.15,1.315752,414909,20054
1124.77,1.307288,416559,20530
1128.38,1.317454,418532,20150
1131.99,1.313042,419956,20425
1135.6,1.321564,421946,20123
1139.2,1.318040,423881,20380
1143.99,1.318838,426786,20482
1147.58,1.317086,428617,20653
1151.17,1.311024,431169,21068
1154.75,1.315304,433579,20978
1158.33,1.311778,436264,21280
1161.91,1.309652,439132,21525
1165.48,1.313952,442389,21471
1169.04,1.316268,446101,21536
1173.79,1.313735,451929,21945
1177.34,1.312226,456026,22221
1180.9,1.317226,461306,22221
1184.44,1.303094,467657,23272
1187.99,1.314513,473969,22974
1191.52,1.309858,479856,23510
1195.06,1.311065,487372,23812
1199.76,1.314787,497347,24092
1203.29,1.317432,504311,24281
1206.81,1.308676,511507,25129
1210.33,1.320413,519078,24821
1213.84,1.316223,527163,25452
1217.35,1.315586,534208,25830
1220.85,1.322908,540472,25696
1225.51,1.325183,549929,26009
1229.01,1.320788,556888,26606
1232.5,1.318689,562180,26989
1235.98,1.320607,567975,27147
1239.46,1.318509,574815,27607
1242.94,1.317264,582782,28070
1246.41,1.322181,591476,28168
1251.03,1.324424,604016,28617
1254.5,1.320000,612289,29306
1257.96,1.319695,619125,29654
1261.41,1.322855,624551,29697
1264.86,1.312077,629900,30704
1268.31,1.321457,634345,30260
1271.75,1.323310,638574,30332
1276.33,1.320989,642499,30682
1279.76,1.323016,645905,30701
1283.19,1.319314,648307,31079
1286.61,1.319642,650446,31158
1290.03,1.320390,652132,31185
1293.44,1.324224,653907,30995
1296.85,1.326064,655963,30961
1301.39,1.327823,657349,30901
1304.8,1.319362,657558,31519
1308.19,1.327512,658515,30978
1311.58,1.331773,658804,30689
1314.97,1.323029,659011,31323
1318.36,1.325254,658272,31128
1321.73,1.322793,658022,31293
1326.23,1.331497,657870,30665
1329.6,1.327489,656482,30884
1332.97,1.327219,654926,30830
1336.33,1.324035,653727,31000
1339.69,1.326691,652497,30753
1343.04,1.325844,649913,30691
1346.39,1.322282,647671,30837
1349.73,1.325815,645338,30477
1354.18,1.325979,641175,30269
1357.52,1.325170,638376,30193
1360.85,1.327943,635805,29880
1364.17,1.318942,633413,30391
1367.49,1.327232,631026,29704
1370.81,1.320555,628050,30022
1374.12,1.323103,625034,29703
1378.54,1.319811,620272,29701
1381.84,1.322527,616892,29355
1385.14,1.326816,613613,28912
1388.43,1.319740,611526,29287
1391.72,1.319616,610663,29254
1395.01,1.316622,610634,29455
1398.29,1.324605,611700,28969
1402.66,1.325492,614051,29021
1405.93,1.328346,616268,28935
1409.2,1.328087,617795,29024
1412.46,1.328231,618872,29065
1415.72,1.327818,619795,29136
1418.98,1.329996,620495,29023
1422.23,1.332856,621087,28860
1426.56,1.325258,621375,29383
1429.8,1.327634,621616,29234
1433.04,1.324132,622129,29495
1436.27,1.332757,621526,28887
1439.5,1.333447,621113,28822
1442.72,1.336230,620921,28629
1445.94,1.332390,620270,28853
1450.23,1.326120,618860,29206
1453.44,1.328902,617697,28965
1456.64,1.333082,616264,28621
1459.85,1.332717,614413,28559
1463.04,1.335966,612307,28249
1466.24,1.326654,610032,28754
1469.43,1.328850,607345,28483
1473.67,1.331206,603789,28163
1476.85,1.328829,601175,28195
1480.02,1.331607,597737,27855
1483.19,1.328221,594479,27920
1486.36,1.336519,591232,27242
1489.52,1.329163,587853,27549
1492.68,1.328791,583875,27386
1496.89,1.332351,578062,26892
1500.03,1.328667,574159,26938
1503.18,1.334702,570285,26387
1506.32,1.332153,565444,26317
1509.45,1.327866,560571,26349
1512.58,1.330162,555821,25988
1515.71,1.333907,550344,25511
1519.87,1.329488,543983,25474
1522.99,1.334833,538764,24921
1526.1,1.334014,533692,24733
1529.21,1.335288,527902,24393
1532.32,1.333366,521886,24222
1535.42,1.326860,515888,24305
1538.51,1.332444,509987,23720
1541.6,1.324032,503936,23897
1545.72,1.329617,494694,23159
1548.8,1.335552,488378,22553
1551.88,1.331834,481832,22442
1554.95,1.326610,474989,22391
1558.02,1.335061,467818,21628
1561.08,1.331129,460730,21494
1564.15,1.321520,454170,21662
1568.22,1.327705,444181,20886
1571.27,1.322219,436947,20807
1574.32,1.330104,429598,20089
1577.36,1.330600,422039,19713
1580.4,1.327515,414375,19493
1583.43,1.324248,406354,19260
1586.46,1.335277,398475,18413
1590.49,1.323533,388982,18467
1593.51,1.323874,380708,18060
1596.53,1.329123,372727,17469
1599.54,1.327265,365060,17183
1602.55,1.313578,357543,17368
1605.55,1.331120,349495,16305
1608.55,1.314389,341154,16541
1612.54,1.333586,330877,15349
1615.53,1.318322,322904,15515
1618.51,1.318373,315116,15139
1621.49,1.318212,307217,14765
1624.47,1.308698,299481,14712
1627.44,1.309061,292112,14338
1630.41,1.317416,284245,13686
1634.36,1.318488,274079,13164
1637.32,1.311597,266916,13025
1640.27,1.299347,259612,13031
1643.22,1.298080,251804,12676
1646.16,1.303790,244348,12140
1649.1,1.306018,236703,11700
1652.04,1.302576,228171,11368
1655.95,1.265670,215408,11684
1658.88,1.305069,204937,10152
1661.8,1.278058,193395,10195
1664.72,1.284920,179728,9326
1667.63,1.259701,163642,8999
1670.54,1.229068,146312,8634
1673.44,1.200950,128451,8087
1677.31,1.166364,105080,7164
1680.21,1.157451,88906,6187
1683.1,1.157000,75033,5227
1685.99,1.146716,63520,4531
1688.87,1.122632,53714,4050
1691.75,1.182493,45653,2999
1694.62,1.128396,39137,2912
1697.49,1.194557,33776,2158
1701.31,1.138958,28175,2046

File: Column 1_078677_20241121_171651.csv
Method:,Column 1,,
Host Date-Time:,21/11/24 @ 17:16:51,,
Header Version:,1,,
System Temp (C):,34.51,,
Detector Temp (C):,35.12,,
Humidity (%):,1.51,,
Lamp PD:,3802,,
Shift Vector Coefficients:,-10.5391,0.0761263,-0.000134223,,
Pixel to Wavelength Coefficients:,1775.68,-0.916766,-0.000235065,,
Serial Number:,5510004,,
Scan Config Name:,Column 1,,
Scan Config Type:,Slew,,
Section 1,,
Start wavelength (nm):,900,,
End wavelength (nm):,1700,,
Pattern Pixel Width (nm):,   7.03,,,,
Exposure (ms):,  0.635,,,,
Digital Resolution:,228,,
Num Repeats:,6,,
PGA Gain:,64,,
Total Measurement Time in sec:,  2.728,,
Wavelength (nm),Absorbance (AU),Reference Signal (unitless),Sample Signal (unitless)
901.51,1.322636,108485,5161
905.376,1.302702,121306,6042
909.237,1.315182,131909,6384
913.095,1.293456,143299,7291
916.948,1.325095,156982,7426
922.079,1.329190,179937,8432
925.923,1.332102,200504,9333
929.762,1.318096,222660,10704
933.597,1.321561,244426,11657
937.427,1.316354,263972,12741
941.254,1.320288,281845,13481
945.076,1.318485,297271,14278
950.165,1.314538,315605,15297
953.978,1.319653,328029,15713
957.786,1.298956,340470,17105
961.59,1.316561,352317,16997
965.389,1.306127,363056,17941
969.185,1.317084,373162,17981
972.976,1.303731,382632,19013
976.763,1.311027,391202,19115
981.806,1.306150,400190,19775
985.583,1.305294,406088,20106
989.355,1.296335,410162,20731
993.124,1.302429,412868,20577
996.888,1.306540,414263,20452
1000.65,1.307258,415476,20478
1004.4,1.302705,415479,20694
1009.41,1.309794,414358,20304
1013.15,1.302466,412923,20578
1016.89,1.306602,411526,20314
1020.63,1.309722,409066,20048
1024.36,1.312077,406777,19828
1028.09,1.311801,404427,19726
1031.82,1.308453,401911,19755
1036.78,1.304741,398410,19751
1040.49,1.305308,396204,19616
1044.2,1.306837,394236,19450
1047.91,1.312868,392042,19075
1051.61,1.310016,389823,19092
1055.31,1.306358,388234,19175
1059,1.314433,387599,18791
1063.92,1.304784,386688,19168
1067.61,1.309903,386598,18939
1071.29,1.315109,387377,18751
1074.96,1.314581,388536,18830
1078.63,1.317856,389855,18752
1082.3,1.313776,391215,18995
1085.96,1.311103,393215,19210
1090.84,1.311737,396270,19331
1094.49,1.300529,398760,19961
1098.14,1.312228,400987,19539
1101.79,1.315762,403477,19501
1105.43,1.315575,406116,19637
1109.06,1.309703,407701,19982
1112.7,1.317772,409859,19718
1117.53,1.309959,412494,20205
1121.15,1.313376,414909,20164
1124.77,1.315897,416559,20127
1128.38,1.313207,418532,20348
1131.99,1.313297,419956,20413
1135.6,1.312044,421946,20569
1139.2,1.315067,423881,20520
1143.99,1.315311,426786,20649
1147.58,1.313881,428617,20806
1151.17,1.320401,431169,20618
1154.75,1.322022,433579,20656
1158.33,1.317489,436264,21002
1161.91,1.321287,439132,20956
1165.48,1.325097,442389,20927
1169.04,1.311874,446101,21755
1173.79,1.314547,451929,21904
1177.34,1.314067,456026,22127
1180.9,1.315314,461306,22319
1184.44,1.314629,467657,22662
1187.99,1.305552,473969,23453
1191.52,1.312657,479856,23359
1195.06,1.308591,487372,23948
1199.76,1.318462,497347,23889
1203.29,1.320663,504311,24101
1206.81,1.311798,511507,24949
1210.33,1.314695,519078,25150
1213.84,1.324300,527163,24983
1217.35,1.319912,534208,25574
1220.85,1.323060,540472,25687
1225.51,1.322420,549929,26175
1229.01,1.317422,556888,26813
1232.5,1.319381,562180,26946
1235.98,1.319569,567975,27212
1239.46,1.327505,574815,27041
1242.94,1.322181,582782,27754
1246.41,1.321842,591476,28190
1251.03,1.318710,604016,28996
1254.5,1.323571,612289,29066
1257.96,1.321294,619125,29545
1261.41,1.318013,624551,30030
1264.86,1.326749,629900,29684
1268.31,1.321945,634345,30226
1271.75,1.321025,638574,30492
1276.33,1.319026,642499,30821
1279.76,1.328010,645905,30350
1283.19,1.320083,648307,31024
1286.61,1.323534,650446,30880
1290.03,1.323773,652132,30943
1293.44,1.328590,653907,30685
1296.85,1.330222,655963,30666
1301.39,1.327795,657349,30903
1304.8,1.325160,657558,31101
1308.19,1.325205,658515,31143
1311.58,1.330361,658804,30789
1314.97,1.334920,659011,30477
1318.36,1.329150,658272,30850
1321.73,1.327243,658022,30974
1326.23,1.331285,657870,30680
1329.6,1.326099,656482,30983
1332.97,1.326698,654926,30867
1336.33,1.333997,653727,30297
1339.69,1.324185,652497,30931
1343.04,1.324939,649913,30755
1346.39,1.328424,647671,30404
1349.73,1.325673,645338,30487
1354.18,1.327819,641175,30141
1357.52,1.322632,638376,30370
1360.85,1.323303,635805,30201
1364.17,1.325421,633413,29941
1367.49,1.326137,631026,29779
1370.81,1.323181,628050,29841
1374.12,1.325302,625034,29553
1378.54,1.330544,620272,28976
1381.84,1.326092,616892,29115
1385.14,1.319031,613613,29435
1388.43,1.326962,611526,28804
1391.72,1.322357,610663,29070
1395.01,1.327249,610634,28743
1398.29,1.321513,611700,29176
1402.66,1.324237,614051,29105
1405.93,1.331570,616268,28721
1409.2,1.323992,617795,29299
1412.46,1.322899,618872,29424
1415.72,1.334003,619795,28724
1418.98,1.329443,620495,29060
1422.23,1.327086,621087,29246
1426.56,1.322693,621375,29557
1429.8,1.333482,621616,28843
1433.04,1.328126,622129,29225
1436.27,1.332426,621526,28909
1439.5,1.330623,621113,29010
1442.72,1.336579,620921,28606
1445.94,1.328852,620270,29089
1450.23,1.337617,618860,28443
1453.44,1.335139,617697,28552
1456.64,1.329696,616264,28845
1459.85,1.330700,614413,28692
1463.04,1.332734,612307,28460
1466.24,1.334642,610032,28230
1469.43,1.338470,607345,27859
1473.67,1.332411,603789,28085
1476.85,1.329183,601175,28172
1480.02,1.326970,597737,28154
1483.19,1.335120,594479,27480
1486.36,1.330408,591232,27628
1489.52,1.333074,587853,27302
1492.68,1.329490,583875,27342
1496.89,1.333257,578062,26836
1500.03,1.336410,574159,26462
1503.18,1.332420,570285,26526
1506.32,1.330112,565444,26441
1509.45,1.328873,560571,26288
1512.58,1.330012,555821,25997
1515.71,1.338510,550344,25242
1519.87,1.330478,543983,25416
1522.99,1.331690,538764,25102
1526.1,1.327911,533692,25083
1529.21,1.338433,527902,24217
1532.32,1.334389,521886,24165
1535.42,1.331603,515888,24041
1538.51,1.336473,509987,23501
1541.6,1.333085,503936,23404
1545.72,1.334482,494694,22901
1548.8,1.333190,488378,22676
1551.88,1.333113,481832,22376
1554.95,1.337053,474989,21859
1558.02,1.335462,467818,21608
1561.08,1.332647,460730,21419
1564.15,1.333327,454170,21081
1568.22,1.332640,444181,20650
1571.27,1.328633,436947,20502
1574.32,1.328098,429598,20182
1577.36,1.331063,422039,19692
1580.4,1.324119,414375,19646
1583.43,1.323055,406354,19313
1586.46,1.333253,398475,18499
1590.49,1.325301,388982,18392
1593.51,1.328856,380708,17854
1596.53,1.310199,372727,18247
1599.54,1.329571,365060,17092
1602.55,1.321884,357543,17039
1605.55,1.321636,349495,16665
1608.55,1.321483,341154,16273
1612.54,1.312841,330877,16100
1615.53,1.312317,322904,15731
1618.51,1.315913,315116,15225
1621.49,1.321341,307217,14659
1624.47,1.321519,299481,14284
1627.44,1.320353,292112,13970
1630.41,1.322748,284245,13519
1634.36,1.315005,274079,13270
1637.32,1.323427,266916,12675
1640.27,1.328571,259612,12183
1643.22,1.321700,251804,12005
1646.16,1.318600,244348,11733
1649.1,1.307915,236703,11649
1652.04,1.325360,228171,10787
1655.95,1.296793,215408,10876
1658.88,1.310969,204937,10015
1661.8,1.272387,193395,10329
1664.72,1.274521,179728,9552
1667.63,1.258015,163642,9034
1670.54,1.230075,146312,8614
1673.44,1.205213,128451,8008
1677.31,1.195640,105080,6697
1680.21,1.180219,88906,5871
1683.1,1.182229,75033,4932
1685.99,1.187066,63520,4129
1688.87,1.170301,53714,3629
1691.75,1.161711,45653,3146
1694.62,1.231238,39137,2298
1697.49,1.159950,33776,2337
1701.31,1.248467,28175,1590