Folder: textile_sorting_NIRSCAN_/ML/samples/unknown (part 42)

File: Column 1_078262_20241121_165326.csv
Method:,Column 1,,
Host Date-Time:,21/11/24 @ 16:53:26,,
Header Version:,1,,
System Temp (C):,34.25,,
Detector Temp (C):,31.97,,
Humidity (%):,2.4,,
Lamp PD:,3802,,
Shift Vector Coefficients:,-10.5391,0.0761263,-0.000134223,,
Pixel to Wavelength Coefficients:,1775.68,-0.916766,-0.000235065,,
Serial Number:,5510004,,
Scan Config Name:,Column 1,,
Scan Config Type:,Slew,,
Section 1,,
Start wavelength (nm):,900,,
End wavelength (nm):,1700,,
Pattern Pixel Width (nm):,   7.03,,,,
Exposure (ms):,  0.635,,,,
Digital Resolution:,228,,
Num Repeats:,6,,
PGA Gain:,64,,
Total Measurement Time in sec:,  2.729,,
Wavelength (nm),Absorbance (AU),Reference Signal (unitless),Sample Signal (unitless)
901.51,1.310766,108485,5304
905.376,1.334997,121306,5609
909.237,1.328865,131909,6186
913.095,1.305903,143299,7085
916.948,1.328972,156982,7360
922.079,1.328058,179937,8454
925.923,1.332335,200504,9328
929.762,1.326370,222660,10502
933.597,1.322456,244426,11633
937.427,1.320223,263972,12628
941.254,1.327762,281845,13251
945.076,1.318424,297271,14280
950.165,1.312951,315605,15353
953.978,1.313043,328029,15954
957.786,1.319945,340470,16298
961.59,1.325389,352317,16655
965.389,1.319574,363056,17394
969.185,1.304256,373162,18520
972.976,1.315844,382632,18490
976.763,1.318474,391202,18790
981.806,1.311742,400190,19522
985.583,1.310357,406088,19873
989.355,1.317696,410162,19736
993.124,1.307909,412868,20319
996.888,1.310744,414263,20255
1000.65,1.309065,415476,20393
1004.4,1.305167,415479,20577
1009.41,1.309965,414358,20296
1013.15,1.317475,412923,19879
1016.89,1.307137,411526,20289
1020.63,1.315457,409066,19785
1024.36,1.310154,406777,19916
1028.09,1.304098,404427,20079
1031.82,1.312805,401911,19558
1036.78,1.315787,398410,19255
1040.49,1.315523,396204,19160
1044.2,1.312093,394236,19216
1047.91,1.309579,392042,19220
1051.61,1.317195,389823,18779
1055.31,1.316765,388234,18721
1059,1.308328,387599,19057
1063.92,1.313480,386688,18788
1067.61,1.314374,386598,18745
1071.29,1.306760,387377,19115
1074.96,1.323294,388536,18456
1078.63,1.309711,389855,19107
1082.3,1.323487,391215,18575
1085.96,1.317755,393215,18918
1090.84,1.311176,396270,19356
1094.49,1.317999,398760,19174
1098.14,1.318226,400987,19271
1101.79,1.319564,403477,19331
1105.43,1.314956,406116,19665
1109.06,1.317776,407701,19614
1112.7,1.317441,409859,19733
1117.53,1.314062,412494,20015
1121.15,1.318685,414909,19919
1124.77,1.325431,416559,19690
1128.38,1.316635,418532,20188
1131.99,1.322739,419956,19974
1135.6,1.320121,421946,20190
1139.2,1.322387,423881,20177
1143.99,1.316006,426786,20616
1147.58,1.322077,428617,20417
1151.17,1.320570,431169,20610
1154.75,1.328824,433579,20335
1158.33,1.318462,436264,20955
1161.91,1.324281,439132,20812
1165.48,1.322903,442389,21033
1169.04,1.328187,446101,20953
1173.79,1.321160,451929,21573
1177.34,1.326551,456026,21500
1180.9,1.321231,461306,22017
1184.44,1.312736,467657,22761
1187.99,1.323336,473969,22512
1191.52,1.309600,479856,23524
1195.06,1.320784,487372,23285
1199.76,1.323122,497347,23634
1203.29,1.324519,504311,23888
1206.81,1.326276,511507,24131
1210.33,1.326723,519078,24463
1213.84,1.315609,527163,25488
1217.35,1.324590,534208,25300
1220.85,1.330649,540472,25242
1225.51,1.332746,549929,25560
1229.01,1.326920,556888,26233
1232.5,1.322470,562180,26755
1235.98,1.320208,567975,27172
1239.46,1.327072,574815,27068
1242.94,1.326489,582782,27480
1246.41,1.323432,591476,28087
1251.03,1.320572,604016,28872
1254.5,1.320816,612289,29251
1257.96,1.328901,619125,29032
1261.41,1.327723,624551,29366
1264.86,1.328861,629900,29540
1268.31,1.327090,634345,29870
1271.75,1.329250,638574,29920
1276.33,1.328009,642499,30190
1279.76,1.327881,645905,30359
1283.19,1.328907,648307,30400
1286.61,1.332500,650446,30249
1290.03,1.327820,652132,30656
1293.44,1.330988,653907,30516
1296.85,1.326205,655963,30951
1301.39,1.331394,657349,30648
1304.8,1.333762,657558,30491
1308.19,1.334323,658515,30496
1311.58,1.331901,658804,30680
1314.97,1.331542,659011,30715
1318.36,1.334946,658272,30441
1321.73,1.328394,658022,30892
1326.23,1.336296,657870,30328
1329.6,1.334492,656482,30390
1332.97,1.328828,654926,30716
1336.33,1.335174,653727,30215
1339.69,1.332878,652497,30318
1343.04,1.334765,649913,30067
1346.39,1.325293,647671,30624
1349.73,1.332811,645338,29990
1354.18,1.332134,641175,29843
1357.52,1.334299,638376,29565
1360.85,1.331475,635805,29638
1364.17,1.331350,633413,29535
1367.49,1.329549,631026,29546
1370.81,1.332418,628050,29213
1374.12,1.328577,625034,29331
1378.54,1.327512,620272,29179
1381.84,1.329958,616892,28857
1385.14,1.328216,613613,28819
1388.43,1.328957,611526,28672
1391.72,1.331994,610663,28432
1395.01,1.326132,610634,28817
1398.29,1.328369,611700,28719
1402.66,1.331231,614051,28640
1405.93,1.333571,616268,28589
1409.2,1.333190,617795,28685
1412.46,1.340336,618872,28266
1415.72,1.334790,619795,28672
1418.98,1.331360,620495,28932
1422.23,1.337881,621087,28528
1426.56,1.335018,621375,28730
1429.8,1.335489,621616,28710
1433.04,1.327161,622129,29290
1436.27,1.334686,621526,28759
1439.5,1.336501,621113,28620
1442.72,1.341695,620921,28271
1445.94,1.335684,620270,28635
1450.23,1.335287,618860,28596
1453.44,1.334394,617697,28601
1456.64,1.337444,616264,28335
1459.85,1.337242,614413,28263
1463.04,1.335183,612307,28300
1466.24,1.340605,610032,27845
1469.43,1.335131,607345,28074
1473.67,1.342406,603789,27446
1476.85,1.338092,601175,27600
1480.02,1.331373,597737,27870
1483.19,1.341023,594479,27109
1486.36,1.338148,591232,27140
1489.52,1.339597,587853,26895
1492.68,1.339565,583875,26715
1496.89,1.333742,578062,26806
1500.03,1.342658,574159,26084
1503.18,1.333896,570285,26436
1506.32,1.339341,565444,25885
1509.45,1.342909,560571,25452
1512.58,1.341163,555821,25338
1515.71,1.345937,550344,24814
1519.87,1.338497,543983,24951
1522.99,1.337999,538764,24740
1526.1,1.340382,533692,24373
1529.21,1.337698,527902,24258
1532.32,1.334155,521886,24178
1535.42,1.335122,515888,23847
1538.51,1.333343,509987,23671
1541.6,1.334908,503936,23306
1545.72,1.334368,494694,22907
1548.8,1.341582,488378,22242
1551.88,1.338385,481832,22106
1554.95,1.336180,474989,21903
1558.02,1.340821,467818,21343
1561.08,1.340442,460730,21038
1564.15,1.341794,454170,20674
1568.22,1.333398,444181,20614
1571.27,1.337881,436947,20070
1574.32,1.340076,429598,19633
1577.36,1.332631,422039,19621
1580.4,1.336087,414375,19112
1583.43,1.332972,406354,18877
1586.46,1.332995,398475,18510
1590.49,1.327336,388982,18306
1593.51,1.344181,380708,17235
1596.53,1.338496,372727,17096
1599.54,1.320668,365060,17446
1602.55,1.326754,357543,16849
1605.55,1.330375,349495,16333
1608.55,1.332428,341154,15868
1612.54,1.328803,330877,15519
1615.53,1.329120,322904,15134
1618.51,1.312787,315116,15335
1621.49,1.331138,307217,14332
1624.47,1.332169,299481,13938
1627.44,1.320820,292112,13955
1630.41,1.313059,284245,13824
1634.36,1.315857,274079,13244
1637.32,1.319504,266916,12790
1640.27,1.315716,259612,12549
1643.22,1.318672,251804,12089
1646.16,1.328105,244348,11479
1649.1,1.328842,236703,11101
1652.04,1.316158,228171,11018
1655.95,1.299035,215408,10820
1658.88,1.310276,204937,10031
1661.8,1.290591,193395,9905
1664.72,1.292720,179728,9160
1667.63,1.281167,163642,8565
1670.54,1.278846,146312,7699
1673.44,1.264758,128451,6982
1677.31,1.229268,105080,6198
1680.21,1.200976,88906,5597
1683.1,1.239065,75033,4327
1685.99,1.179661,63520,4200
1688.87,1.224666,53714,3202
1691.75,1.203103,45653,2860
1694.62,1.225045,39137,2331
1697.49,1.330226,33776,1579
1701.31,1.216360,28175,1712

File: Column 1_078263_20241121_165329.csv
Method:,Column 1,,
Host Date-Time:,21/11/24 @ 16:53:29,,
Header Version:,1,,
System Temp (C):,34.22,,
Detector Temp (C):,32.04,,
Humidity (%):,2.45,,
Lamp PD:,3802,,
Shift Vector Coefficients:,-10.5391,0.0761263,-0.000134223,,
Pixel to Wavelength Coefficients:,1775.68,-0.916766,-0.000235065,,
Serial Number:,5510004,,
Scan Config Name:,Column 1,,
Scan Config Type:,Slew,,
Section 1,,
Start wavelength (nm):,900,,
End wavelength (nm):,1700,,
Pattern Pixel Width (nm):,   7.03,,,,
Exposure (ms):,  0.635,,,,
Digital Resolution:,228,,
Num Repeats:,6,,
PGA Gain:,64,,
Total Measurement Time in sec:,  2.730,,
Wavelength (nm),Absorbance (AU),Reference Signal (unitless),Sample Signal (unitless)
901.51,1.313724,108485,5268
905.376,1.315022,121306,5873
909.237,1.309975,131909,6461
913.095,1.331272,143299,6683
916.948,1.323402,156982,7455
922.079,1.329241,179937,8431
925.923,1.335184,200504,9267
929.762,1.323444,222660,10573
933.597,1.317999,244426,11753
937.427,1.313027,263972,12839
941.254,1.313321,281845,13699
945.076,1.326157,297271,14028
950.165,1.318473,315605,15159
953.978,1.320871,328029,15669
957.786,1.316521,340470,16427
961.59,1.319175,352317,16895
965.389,1.316415,363056,17521
969.185,1.315589,373162,18043
972.976,1.311381,382632,18681
976.763,1.313990,391202,18985
981.806,1.312321,400190,19496
985.583,1.311648,406088,19814
989.355,1.311123,410162,20037
993.124,1.315564,412868,19964
996.888,1.316224,414263,20001
1000.65,1.311414,415476,20283
1004.4,1.319347,415479,19916
1009.41,1.314980,414358,20063
1013.15,1.320324,412923,19749
1016.89,1.317316,411526,19819
1020.63,1.319870,409066,19585
1024.36,1.306117,406777,20102
1028.09,1.308009,404427,19899
1031.82,1.317651,401911,19341
1036.78,1.320367,398410,19053
1040.49,1.317363,396204,19079
1044.2,1.312794,394236,19185
1047.91,1.317009,392042,18894
1051.61,1.323625,389823,18503
1055.31,1.312954,388234,18886
1059,1.322433,387599,18448
1063.92,1.316240,386688,18669
1067.61,1.320111,386598,18499
1071.29,1.323410,387377,18396
1074.96,1.311983,388536,18943
1078.63,1.316514,389855,18810
1082.3,1.312817,391215,19037
1085.96,1.323998,393215,18648
1090.84,1.313064,396270,19272
1094.49,1.320589,398760,19060
1098.14,1.320350,400987,19177
1101.79,1.315562,403477,19510
1105.43,1.329348,406116,19024
1109.06,1.323235,407701,19369
1112.7,1.323246,409859,19471
1117.53,1.321459,412494,19677
1121.15,1.320389,414909,19841
1124.77,1.321129,416559,19886
1128.38,1.320677,418532,20001
1131.99,1.329068,419956,19685
1135.6,1.319197,421946,20233
1139.2,1.318850,423881,20342
1143.99,1.314450,426786,20690
1147.58,1.321227,428617,20457
1151.17,1.324422,431169,20428
1154.75,1.328824,433579,20335
1158.33,1.323318,436264,20722
1161.91,1.320852,439132,20977
1165.48,1.324994,442389,20932
1169.04,1.332604,446101,20741
1173.79,1.323056,451929,21479
1177.34,1.325019,456026,21576
1180.9,1.321942,461306,21981
1184.44,1.320533,467657,22356
1187.99,1.325017,473969,22425
1191.52,1.325583,479856,22674
1195.06,1.329374,487372,22829
1199.76,1.323674,497347,23604
1203.29,1.322144,504311,24019
1206.81,1.320502,511507,24454
1210.33,1.326883,519078,24454
1213.84,1.322756,527163,25072
1217.35,1.328937,534208,25048
1220.85,1.346239,540472,24352
1225.51,1.323516,549929,26109
1229.01,1.324526,556888,26378
1232.5,1.319156,562180,26960
1235.98,1.320192,567975,27173
1239.46,1.321112,574815,27442
1242.94,1.332922,582782,27076
1246.41,1.327970,591476,27795
1251.03,1.331000,604016,28187
1254.5,1.327187,612289,28825
1257.96,1.331738,619125,28843
1261.41,1.332781,624551,29026
1264.86,1.334097,629900,29186
1268.31,1.329686,634345,29692
1271.75,1.327453,638574,30044
1276.33,1.332637,642499,29870
1279.76,1.332859,645905,30013
1283.19,1.338221,648307,29755
1286.61,1.330981,650446,30355
1290.03,1.332248,652132,30345
1293.44,1.335078,653907,30230
1296.85,1.339440,655963,30022
1301.39,1.336870,657349,30264
1304.8,1.332681,657558,30567
1308.19,1.334380,658515,30492
1311.58,1.333077,658804,30597
1314.97,1.331471,659011,30720
1318.36,1.337881,658272,30236
1321.73,1.329084,658022,30843
1326.23,1.336239,657870,30332
1329.6,1.332951,656482,30498
1332.97,1.340913,654926,29873
1336.33,1.333610,653727,30324
1339.69,1.334888,652497,30178
1343.04,1.335879,649913,29990
1346.39,1.333308,647671,30064
1349.73,1.335265,645338,29821
1354.18,1.336757,641175,29527
1357.52,1.335608,638376,29476
1360.85,1.328045,635805,29873
1364.17,1.332042,633413,29488
1367.49,1.333046,631026,29309
1370.81,1.331987,628050,29242
1374.12,1.331578,625034,29129
1378.54,1.326887,620272,29221
1381.84,1.330862,616892,28797
1385.14,1.331529,613613,28600
1388.43,1.328321,611526,28714
1391.72,1.333371,610663,28342
1395.01,1.329081,610634,28622
1398.29,1.328233,611700,28728
1402.66,1.332097,614051,28583
1405.93,1.325712,616268,29111
1409.2,1.331693,617795,28784
1412.46,1.333658,618872,28704
1415.72,1.336642,619795,28550
1418.98,1.336676,620495,28580
1422.23,1.337197,621087,28573
1426.56,1.338966,621375,28470
1429.8,1.337080,621616,28605
1433.04,1.338411,622129,28541
1436.27,1.342933,621526,28218
1439.5,1.334472,621113,28754
1442.72,1.335866,620921,28653
1445.94,1.337355,620270,28525
1450.23,1.340482,618860,28256
1453.44,1.345763,617697,27862
1456.64,1.336647,616264,28387
1459.85,1.335769,614413,28359
1463.04,1.343518,612307,27762
1466.24,1.343500,610032,27660
1469.43,1.337582,607345,27916
1473.67,1.343341,603789,27387
1476.85,1.343698,601175,27246
1480.02,1.339124,597737,27377
1483.19,1.341328,594479,27090
1486.36,1.340169,591232,27014
1489.52,1.339694,587853,26889
1492.68,1.341520,583875,26595
1496.89,1.340617,578062,26385
1500.03,1.338037,574159,26363
1503.18,1.338753,570285,26142
1506.32,1.343709,565444,25626
1509.45,1.335767,560571,25874
1512.58,1.340443,555821,25380
1515.71,1.345955,550344,24813
1519.87,1.340679,543983,24826
1522.99,1.344436,538764,24376
1526.1,1.342651,533692,24246
1529.21,1.341691,527902,24036
1532.32,1.343763,521886,23649
1535.42,1.339092,515888,23630
1538.51,1.341566,509987,23227
1541.6,1.345375,503936,22751
1545.72,1.341229,494694,22548
1548.8,1.341660,488378,22238
1551.88,1.334279,481832,22316
1554.95,1.337391,474989,21842
1558.02,1.337053,467818,21529
1561.08,1.332668,460730,21418
1564.15,1.337363,454170,20886
1568.22,1.332934,444181,20636
1571.27,1.343786,436947,19799
1574.32,1.337649,429598,19743
1577.36,1.343706,422039,19127
1580.4,1.332647,414375,19264
1583.43,1.342485,406354,18468
1586.46,1.337310,398475,18327
1590.49,1.340511,388982,17759
1593.51,1.341668,380708,17335
1596.53,1.331541,372727,17372
1599.54,1.333092,365060,16954
1602.55,1.337823,357543,16425
1605.55,1.328703,349495,16396
1608.55,1.330871,341154,15925
1612.54,1.323104,330877,15724
1615.53,1.329953,322904,15105
1618.51,1.335190,315116,14564
1621.49,1.332443,307217,14289
1624.47,1.319881,299481,14338
1627.44,1.329083,292112,13692
1630.41,1.324293,284245,13471
1634.36,1.321966,274079,13059
1637.32,1.317505,266916,12849
1640.27,1.335795,259612,11982
1643.22,1.328519,251804,11818
1646.16,1.319007,244348,11722
1649.1,1.332062,236703,11019
1652.04,1.325239,228171,10790
1655.95,1.319919,215408,10312
1658.88,1.310233,204937,10032
1661.8,1.287402,193395,9978
1664.72,1.302114,179728,8964
1667.63,1.286114,163642,8468
1670.54,1.283895,146312,7610
1673.44,1.241093,128451,7373
1677.31,1.228568,105080,6208
1680.21,1.196729,88906,5652
1683.1,1.267154,75033,4056
1685.99,1.218353,63520,3842
1688.87,1.271903,53714,2872
1691.75,1.187884,45653,2962
1694.62,1.222445,39137,2345
1697.49,1.172774,33776,2269
1701.31,1.323733,28175,1337

File: Column 1_078264_20241121_165332.csv
Method:,Column 1,,
Host Date-Time:,21/11/24 @ 16:53:32,,
Header Version:,1,,
System Temp (C):,34.29,,
Detector Temp (C):,32.01,,
Humidity (%):,2.45,,
Lamp PD:,3802,,
Shift Vector Coefficients:,-10.5391,0.0761263,-0.000134223,,
Pixel to Wavelength Coefficients:,1775.68,-0.916766,-0.000235065,,
Serial Number:,5510004,,
Scan Config Name:,Column 1,,
Scan Config Type:,Slew,,
Section 1,,
Start wavelength (nm):,900,,
End wavelength (nm):,1700,,
Pattern Pixel Width (nm):,   7.03,,,,
Exposure (ms):,  0.635,,,,
Digital Resolution:,228,,
Num Repeats:,6,,
PGA Gain:,64,,
Total Measurement Time in sec:,  2.727,,
Wavelength (nm),Absorbance (AU),Reference Signal (unitless),Sample Signal (unitless)
901.51,1.318115,108485,5215
905.376,1.321204,121306,5790
909.237,1.318734,131909,6332
913.095,1.311766,143299,6990
916.948,1.312586,156982,7643
922.079,1.312567,179937,8761
925.923,1.329365,200504,9392
929.762,1.327986,222660,10463
933.597,1.324101,244426,11589
937.427,1.312081,263972,12867
941.254,1.334566,281845,13045
945.076,1.328609,297271,13949
950.165,1.323024,315605,15001
953.978,1.300222,328029,16432
957.786,1.309675,340470,16688
961.59,1.319613,352317,16878
965.389,1.307752,363056,17874
969.185,1.315589,373162,18043
972.976,1.315750,382632,18494
976.763,1.321024,391202,18680
981.806,1.310320,400190,19586
985.583,1.305640,406088,20090
989.355,1.315195,410162,19850
993.124,1.316391,412868,19926
996.888,1.315617,414263,20029
1000.65,1.315069,415476,20113
1004.4,1.309260,415479,20384
1009.41,1.310565,414358,20268
1013.15,1.316776,412923,19911
1016.89,1.308423,411526,20229
1020.63,1.316754,409066,19726
1024.36,1.309936,406777,19926
1028.09,1.314340,404427,19611
1031.82,1.305692,401911,19881
1036.78,1.319115,398410,19108
1040.49,1.305021,396204,19629
1044.2,1.316432,394236,19025
1047.91,1.306450,392042,19359
1051.61,1.319305,389823,18688
1055.31,1.314890,388234,18802
1059,1.311049,387599,18938
1063.92,1.312464,386688,18832
1067.61,1.305613,386598,19127
1071.29,1.319813,387377,18549
1074.96,1.317265,388536,18714
1078.63,1.313477,389855,18942
1082.3,1.320086,391215,18721
1085.96,1.318398,393215,18890
1090.84,1.311355,396270,19348
1094.49,1.313313,398760,19382
1098.14,1.329597,400987,18773
1101.79,1.319048,403477,19354
1105.43,1.313897,406116,19713
1109.06,1.309464,407701,19993
1112.7,1.315290,409859,19831
1117.53,1.313823,412494,20026
1121.15,1.325586,414909,19605
1124.77,1.318538,416559,20005
1128.38,1.313506,418532,20334
1131.99,1.312808,419956,20436
1135.6,1.322299,421946,20089
1139.2,1.311588,423881,20685
1143.99,1.328551,426786,20029
1147.58,1.317191,428617,20648
1151.17,1.328587,431169,20233
1154.75,1.314849,433579,21000
1158.33,1.323213,436264,20727
1161.91,1.316649,439132,21181
1165.48,1.319591,442389,21194
1169.04,1.317136,446101,21493
1173.79,1.312726,451929,21996
1177.34,1.320513,456026,21801
1180.9,1.319754,461306,22092
1184.44,1.320514,467657,22357
1187.99,1.325424,473969,22404
1191.52,1.313606,479856,23308
1195.06,1.327267,487372,22940
1199.76,1.320046,497347,23802
1203.29,1.325410,504311,23839
1206.81,1.321337,511507,24407
1210.33,1.318946,519078,24905
1213.84,1.326549,527163,24854
1217.35,1.322296,534208,25434
1220.85,1.323686,540472,25650
1225.51,1.326906,549929,25906
1229.01,1.332233,556888,25914
1232.5,1.329507,562180,26325
1235.98,1.331165,567975,26495
1239.46,1.330406,574815,26861
1242.94,1.326300,582782,27492
1246.41,1.326613,591476,27882
1251.03,1.323939,604016,28649
1254.5,1.331853,612289,28517
1257.96,1.327319,619125,29138
1261.41,1.333979,624551,28946
1264.86,1.328626,629900,29556
1268.31,1.327498,634345,29842
1271.75,1.331783,638574,29746
1276.33,1.326946,642499,30264
1279.76,1.327752,645905,30368
1283.19,1.336357,648307,29883
1286.61,1.331898,650446,30291
1290.03,1.334847,652132,30164
1293.44,1.330448,653907,30554
1296.85,1.327427,655963,30864
1301.39,1.337401,657349,30227
1304.8,1.335275,657558,30385
1308.19,1.329930,658515,30806
1311.58,1.333830,658804,30544
1314.97,1.333256,659011,30594
1318.36,1.333309,658272,30556
1321.73,1.337673,658022,30239
1326.23,1.329843,657870,30782
1329.6,1.333536,656482,30457
1332.97,1.330301,654926,30612
1336.33,1.332409,653727,30408
1339.69,1.332334,652497,30356
1343.04,1.328712,649913,30489
1346.39,1.336410,647671,29850
1349.73,1.329680,645338,30207
1354.18,1.331974,641175,29854
1357.52,1.335534,638376,29481
1360.85,1.332487,635805,29569
1364.17,1.328916,633413,29701
1367.49,1.329416,631026,29555
1370.81,1.329484,628050,29411
1374.12,1.325229,625034,29558
1378.54,1.329675,620272,29034
1381.84,1.332585,616892,28683
1385.14,1.335035,613613,28370
1388.43,1.333908,611526,28347
1391.72,1.326575,610663,28789
1395.01,1.328096,610634,28687
1398.29,1.333358,611700,28391
1402.66,1.334214,614051,28444
1405.93,1.331646,616268,28716
1409.2,1.331965,617795,28766
1412.46,1.336573,618872,28512
1415.72,1.333792,619795,28738
1418.98,1.331300,620495,28936
1422.23,1.334605,621087,28744
1426.56,1.335865,621375,28674
1429.8,1.335580,621616,28704
1433.04,1.329987,622129,29100
1436.27,1.340799,621526,28357
1439.5,1.329636,621113,29076
1442.72,1.335533,620921,28675
1445.94,1.337355,620270,28525
1450.23,1.334877,618860,28623
1453.44,1.335185,617697,28549
1456.64,1.342252,616264,28023
1459.85,1.336659,614413,28301
1463.04,1.332155,612307,28498
1466.24,1.335658,610032,28164
1469.43,1.333695,607345,28167
1473.67,1.337951,603789,27729
1476.85,1.345023,601175,27163
1480.02,1.335129,597737,27630
1483.19,1.335784,594479,27438
1486.36,1.338789,591232,27100
1489.52,1.344240,587853,26609
1492.68,1.338704,583875,26768
1496.89,1.340815,578062,26373
1500.03,1.340151,574159,26235
1503.18,1.337145,570285,26239
1506.32,1.342456,565444,25700
1509.45,1.343968,560571,25390
1512.58,1.338037,555821,25521
1515.71,1.337411,550344,25306
1519.87,1.342677,543983,24712
1522.99,1.339458,538764,24657
1526.1,1.342830,533692,24236
1529.21,1.337967,527902,24243
1532.32,1.335577,521886,24099
1535.42,1.341395,515888,23505
1538.51,1.340893,509987,23263
1541.6,1.341006,503936,22981
1545.72,1.335014,494694,22873
1548.8,1.339304,488378,22359
1551.88,1.343504,481832,21847
1554.95,1.339105,474989,21756
1558.02,1.344028,467818,21186
1561.08,1.342885,460730,20920
1564.15,1.339907,454170,20764
1568.22,1.339636,444181,20320
1571.27,1.328611,436947,20503
1574.32,1.343786,429598,19466
1577.36,1.336880,422039,19430
1580.4,1.330757,414375,19348
1583.43,1.323910,406354,19275
1586.46,1.327817,398475,18732
1590.49,1.334271,388982,18016
1593.51,1.328832,380708,17855
1596.53,1.323001,372727,17717
1599.54,1.333297,365060,16946
1602.55,1.333482,357543,16590
1605.55,1.338535,349495,16029
1608.55,1.333305,341154,15836
1612.54,1.328579,330877,15527
1615.53,1.321948,322904,15386
1618.51,1.323278,315116,14969
1621.49,1.327698,307217,14446
1624.47,1.313447,299481,14552
1627.44,1.332458,292112,13586
1630.41,1.332461,284245,13220
1634.36,1.320074,274079,13116
1637.32,1.306426,266916,13181
1640.27,1.312303,259612,12648
1643.22,1.311829,251804,12281
1646.16,1.320120,244348,11692
1649.1,1.309821,236703,11598
1652.04,1.327904,228171,10724
1655.95,1.323853,215408,10219
1658.88,1.313187,204937,9964
1661.8,1.283502,193395,10068
1664.72,1.283572,179728,9355
1667.63,1.267590,163642,8837
1670.54,1.245470,146312,8314
1673.44,1.242214,128451,7354
1677.31,1.192731,105080,6742
1680.21,1.201752,88906,5587
1683.1,1.242491,75033,4293
1685.99,1.219939,63520,3828
1688.87,1.235516,53714,3123
1691.75,1.231497,45653,2679
1694.62,1.234082,39137,2283
1697.49,1.312442,33776,1645
1701.31,1.247376,28175,1594