Folder: textile_sorting_NIRSCAN_/ML/samples/unknown (part 71)

File: Column 1_078494_20241121_170526.csv
Method:,Column 1,,
Host Date-Time:,21/11/24 @ 17:5:26,,
Header Version:,1,,
System Temp (C):,34.9,,
Detector Temp (C):,33.82,,
Humidity (%):,1.91,,
Lamp PD:,3800,,
Shift Vector Coefficients:,-10.5391,0.0761263,-0.000134223,,
Pixel to Wavelength Coefficients:,1775.68,-0.916766,-0.000235065,,
Serial Number:,5510004,,
Scan Config Name:,Column 1,,
Scan Config Type:,Slew,,
Section 1,,
Start wavelength (nm):,900,,
End wavelength (nm):,1700,,
Pattern Pixel Width (nm):,   7.03,,,,
Exposure (ms):,  0.635,,,,
Digital Resolution:,228,,
Num Repeats:,6,,
PGA Gain:,64,,
Total Measurement Time in sec:,  2.706,,
Wavelength (nm),Absorbance (AU),Reference Signal (unitless),Sample Signal (unitless)
901.51,1.311750,108485,5292
905.376,1.308126,121306,5967
909.237,1.335942,131909,6086
913.095,1.359946,143299,6256
916.948,1.341908,156982,7144
922.079,1.325650,179937,8501
925.923,1.351612,200504,8923
929.762,1.342505,222660,10119
933.597,1.326280,244426,11531
937.427,1.317925,263972,12695
941.254,1.330919,281845,13155
945.076,1.332865,297271,13813
950.165,1.313999,315605,15316
953.978,1.314980,328029,15883
957.786,1.315148,340470,16479
961.59,1.309692,352317,17268
965.389,1.318676,363056,17430
969.185,1.313212,373162,18142
972.976,1.319406,382632,18339
976.763,1.316790,391202,18863
981.806,1.313749,400190,19432
985.583,1.311385,406088,19826
989.355,1.312230,410162,19986
993.124,1.314260,412868,20024
996.888,1.311216,414263,20233
1000.65,1.308363,415476,20426
1004.4,1.310732,415479,20315
1009.41,1.303319,414358,20609
1013.15,1.325790,412923,19502
1016.89,1.311828,411526,20071
1020.63,1.309701,409066,20049
1024.36,1.319300,406777,19501
1028.09,1.309080,404427,19850
1031.82,1.324144,401911,19054
1036.78,1.307100,398410,19644
1040.49,1.303541,396204,19696
1044.2,1.320122,394236,18864
1047.91,1.313005,392042,19069
1051.61,1.305018,389823,19313
1055.31,1.311645,388234,18943
1059,1.313555,387599,18829
1063.92,1.316147,386688,18673
1067.61,1.320440,386598,18485
1071.29,1.328564,387377,18179
1074.96,1.312855,388536,18905
1078.63,1.314143,389855,18913
1082.3,1.311382,391215,19100
1085.96,1.322000,393215,18734
1090.84,1.321277,396270,18911
1094.49,1.329404,398760,18677
1098.14,1.321483,400987,19127
1101.79,1.326882,403477,19008
1105.43,1.320356,406116,19422
1109.06,1.317709,407701,19617
1112.7,1.318477,409859,19686
1117.53,1.325806,412494,19481
1121.15,1.316706,414909,20010
1124.77,1.313745,416559,20227
1128.38,1.325393,418532,19785
1131.99,1.324438,419956,19896
1135.6,1.320896,421946,20154
1139.2,1.319363,423881,20318
1143.99,1.317187,426786,20560
1147.58,1.324488,428617,20304
1151.17,1.326702,431169,20321
1154.75,1.321203,433579,20695
1158.33,1.330993,436264,20359
1161.91,1.316280,439132,21199
1165.48,1.326511,442389,20859
1169.04,1.320585,446101,21323
1173.79,1.321784,451929,21542
1177.34,1.324174,456026,21618
1180.9,1.319086,461306,22126
1184.44,1.325221,467657,22116
1187.99,1.328283,473969,22257
1191.52,1.317292,479856,23111
1195.06,1.318404,487372,23413
1199.76,1.323067,497347,23637
1203.29,1.321475,504311,24056
1206.81,1.323549,511507,24283
1210.33,1.319539,519078,24871
1213.84,1.326758,527163,24842
1217.35,1.330849,534208,24938
1220.85,1.325603,540472,25537
1225.51,1.322968,549929,26142
1229.01,1.323112,556888,26464
1232.5,1.322665,562180,26743
1235.98,1.324109,567975,26929
1239.46,1.332415,574815,26737
1242.94,1.329710,582782,27277
1246.41,1.319017,591476,28374
1251.03,1.329124,604016,28309
1254.5,1.327820,612289,28783
1257.96,1.325727,619125,29245
1261.41,1.327767,624551,29363
1264.86,1.325464,629900,29772
1268.31,1.329906,634345,29677
1271.75,1.329671,638574,29891
1276.33,1.331635,642499,29939
1279.76,1.332961,645905,30006
1283.19,1.334486,648307,30012
1286.61,1.331754,650446,30301
1290.03,1.336679,652132,30037
1293.44,1.329114,653907,30648
1296.85,1.333149,655963,30460
1301.39,1.332217,657349,30590
1304.8,1.332880,657558,30553
1308.19,1.330481,658515,30767
1311.58,1.327395,658804,31000
1314.97,1.335562,659011,30432
1318.36,1.335418,658272,30408
1321.73,1.331640,658022,30662
1326.23,1.334225,657870,30473
1329.6,1.333578,656482,30454
1332.97,1.334893,654926,30290
1336.33,1.328909,653727,30654
1339.69,1.332978,652497,30311
1343.04,1.333222,649913,30174
1346.39,1.331866,647671,30164
1349.73,1.332840,645338,29988
1354.18,1.332731,641175,29802
1357.52,1.331414,638376,29762
1360.85,1.332267,635805,29584
1364.17,1.325914,633413,29907
1367.49,1.333283,631026,29293
1370.81,1.332463,628050,29210
1374.12,1.323996,625034,29642
1378.54,1.324279,620272,29397
1381.84,1.330937,616892,28792
1385.14,1.326051,613613,28963
1388.43,1.334429,611526,28313
1391.72,1.329405,610663,28602
1395.01,1.329354,610634,28604
1398.29,1.332075,611700,28475
1402.66,1.334168,614051,28447
1405.93,1.332812,616268,28639
1409.2,1.331618,617795,28789
1412.46,1.337488,618872,28452
1415.72,1.338456,619795,28431
1418.98,1.331795,620495,28903
1422.23,1.326596,621087,29279
1426.56,1.339226,621375,28453
1429.8,1.337369,621616,28586
1433.04,1.336983,622129,28635
1436.27,1.335124,621526,28730
1439.5,1.340174,621113,28379
1442.72,1.331283,620921,28957
1445.94,1.333068,620270,28808
1450.23,1.335758,618860,28565
1453.44,1.334713,617697,28580
1456.64,1.347899,616264,27661
1459.85,1.339569,614413,28112
1463.04,1.342222,612307,27845
1466.24,1.339702,610032,27903
1469.43,1.336076,607345,28013
1473.67,1.335577,603789,27881
1476.85,1.336082,601175,27728
1480.02,1.344423,597737,27045
1483.19,1.343433,594479,26959
1486.36,1.341102,591232,26956
1489.52,1.344795,587853,26575
1492.68,1.343878,583875,26451
1496.89,1.339319,578062,26464
1500.03,1.339489,574159,26275
1503.18,1.338820,570285,26138
1506.32,1.345084,565444,25545
1509.45,1.339984,560571,25624
1512.58,1.344276,555821,25157
1515.71,1.340062,550344,25152
1519.87,1.342537,543983,24720
1522.99,1.337490,538764,24769
1526.1,1.344715,533692,24131
1529.21,1.337287,527902,24281
1532.32,1.345400,521886,23560
1535.42,1.335450,515888,23829
1538.51,1.339105,509987,23359
1541.6,1.331437,503936,23493
1545.72,1.340171,494694,22603
1548.8,1.336960,488378,22480
1551.88,1.339349,481832,22057
1554.95,1.336398,474989,21892
1558.02,1.341677,467818,21301
1561.08,1.340236,460730,21048
1564.15,1.345655,454170,20491
1568.22,1.333356,444181,20616
1571.27,1.341161,436947,19919
1574.32,1.338089,429598,19723
1577.36,1.344751,422039,19081
1580.4,1.347134,414375,18632
1583.43,1.346287,406354,18307
1586.46,1.340545,398475,18191
1590.49,1.334440,388982,18009
1593.51,1.329270,380708,17837
1596.53,1.324769,372727,17645
1599.54,1.333348,365060,16944
1602.55,1.325801,357543,16886
1605.55,1.338724,349495,16022
1608.55,1.335918,341154,15741
1612.54,1.333558,330877,15350
1615.53,1.330614,322904,15082
1618.51,1.322032,315116,15012
1621.49,1.337887,307217,14111
1624.47,1.341714,299481,13635
1627.44,1.335280,292112,13498
1630.41,1.317289,284245,13690
1634.36,1.324802,274079,12974
1637.32,1.328458,266916,12529
1640.27,1.329391,259612,12160
1643.22,1.320508,251804,12038
1646.16,1.337127,244348,11243
1649.1,1.320703,236703,11311
1652.04,1.312078,228171,11122
1655.95,1.311866,215408,10505
1658.88,1.294671,204937,10398
1661.8,1.306851,193395,9541
1664.72,1.282737,179728,9373
1667.63,1.267934,163642,8830
1670.54,1.252102,146312,8188
1673.44,1.234894,128451,7479
1677.31,1.229689,105080,6192
1680.21,1.173758,88906,5959
1683.1,1.212494,75033,4600
1685.99,1.224959,63520,3784
1688.87,1.198864,53714,3398
1691.75,1.203103,45653,2860
1694.62,1.269542,39137,2104
1697.49,1.181278,33776,2225
1701.31,1.175244,28175,1882

File: Column 1_078498_20241121_170537.csv
Method:,Column 1,,
Host Date-Time:,21/11/24 @ 17:5:37,,
Header Version:,1,,
System Temp (C):,34.63,,
Detector Temp (C):,33.87,,
Humidity (%):,1.71,,
Lamp PD:,3801,,
Shift Vector Coefficients:,-10.5391,0.0761263,-0.000134223,,
Pixel to Wavelength Coefficients:,1775.68,-0.916766,-0.000235065,,
Serial Number:,5510004,,
Scan Config Name:,Column 1,,
Scan Config Type:,Slew,,
Section 1,,
Start wavelength (nm):,900,,
End wavelength (nm):,1700,,
Pattern Pixel Width (nm):,   7.03,,,,
Exposure (ms):,  0.635,,,,
Digital Resolution:,228,,
Num Repeats:,6,,
PGA Gain:,64,,
Total Measurement Time in sec:,  2.669,,
Wavelength (nm),Absorbance (AU),Reference Signal (unitless),Sample Signal (unitless)
901.51,1.316370,108485,5236
905.376,1.308126,121306,5967
909.237,1.315931,131909,6373
913.095,1.318718,143299,6879
916.948,1.326970,156982,7394
922.079,1.313311,179937,8746
925.923,1.327611,200504,9430
929.762,1.325049,222660,10534
933.597,1.322493,244426,11632
937.427,1.331512,263972,12304
941.254,1.323911,281845,13369
945.076,1.305953,297271,14696
950.165,1.310103,315605,15454
953.978,1.305808,328029,16222
957.786,1.313675,340470,16535
961.59,1.315286,352317,17047
965.389,1.313771,363056,17628
969.185,1.306914,373162,18407
972.976,1.312802,382632,18620
976.763,1.307272,391202,19281
981.806,1.300737,400190,20023
985.583,1.305057,406088,20117
989.355,1.306638,410162,20245
993.124,1.307097,412868,20357
996.888,1.299526,414263,20785
1000.65,1.318168,415476,19970
1004.4,1.303966,415479,20634
1009.41,1.305304,414358,20515
1013.15,1.300760,412923,20659
1016.89,1.299877,411526,20631
1020.63,1.311394,409066,19971
1024.36,1.316370,406777,19633
1028.09,1.310504,404427,19785
1031.82,1.305976,401911,19868
1036.78,1.309295,398410,19545
1040.49,1.299918,396204,19861
1044.2,1.308559,394236,19373
1047.91,1.306136,392042,19373
1051.61,1.309607,389823,19110
1055.31,1.313322,388234,18870
1059,1.307054,387599,19113
1063.92,1.298798,386688,19434
1067.61,1.308323,386598,19008
1071.29,1.321690,387377,18469
1074.96,1.316453,388536,18749
1078.63,1.307828,389855,19190
1082.3,1.319206,391215,18759
1085.96,1.325000,393215,18605
1090.84,1.307645,396270,19514
1094.49,1.319565,398760,19105
1098.14,1.315127,400987,19409
1101.79,1.316096,403477,19486
1105.43,1.315929,406116,19621
1109.06,1.303788,407701,20256
1112.7,1.323023,409859,19481
1117.53,1.316979,412494,19881
1121.15,1.315968,414909,20044
1124.77,1.316697,416559,20090
1128.38,1.322745,418532,19906
1131.99,1.319489,419956,20124
1135.6,1.324683,421946,19979
1139.2,1.312114,423881,20660
1143.99,1.318456,426786,20500
1147.58,1.305611,428617,21206
1151.17,1.319601,431169,20656
1154.75,1.323750,433579,20574
1158.33,1.311553,436264,21291
1161.91,1.320148,439132,21011
1165.48,1.314033,442389,21467
1169.04,1.312114,446101,21743
1173.79,1.310757,451929,22096
1177.34,1.320374,456026,21808
1180.9,1.317617,461306,22201
1184.44,1.312431,467657,22777
1187.99,1.319858,473969,22693
1191.52,1.312712,479856,23356
1195.06,1.319499,487372,23354
1199.76,1.318734,497347,23874
1203.29,1.318757,504311,24207
1206.81,1.318889,511507,24545
1210.33,1.316928,519078,25021
1213.84,1.323762,527163,25014
1217.35,1.319555,534208,25595
1220.85,1.321692,540472,25768
1225.51,1.315294,549929,26608
1229.01,1.323490,556888,26441
1232.5,1.343420,562180,25495
1235.98,1.319218,567975,27234
1239.46,1.318462,574815,27610
1242.94,1.318689,582782,27978
1246.41,1.321596,591476,28206
1251.03,1.322018,604016,28776
1254.5,1.327956,612289,28774
1257.96,1.324911,619125,29300
1261.41,1.328997,624551,29280
1264.86,1.330304,629900,29442
1268.31,1.325277,634345,29995
1271.75,1.323181,638574,30341
1276.33,1.326545,642499,30292
1279.76,1.328396,645905,30323
1283.19,1.322709,648307,30837
1286.61,1.328897,650446,30501
1290.03,1.324237,652132,30910
1293.44,1.327177,653907,30785
1296.85,1.329798,655963,30696
1301.39,1.334437,657349,30434
1304.8,1.326390,657558,31013
1308.19,1.334351,658515,30494
1311.58,1.331476,658804,30710
1314.97,1.326579,659011,31068
1318.36,1.319985,658272,31508
1321.73,1.331527,658022,30670
1326.23,1.331285,657870,30680
1329.6,1.332411,656482,30536
1332.97,1.330996,654926,30563
1336.33,1.325944,653727,30864
1339.69,1.332091,652497,30373
1343.04,1.332015,649913,30258
1346.39,1.326400,647671,30546
1349.73,1.327543,645338,30356
1354.18,1.325405,641175,30309
1357.52,1.324423,638376,30245
1360.85,1.327319,635805,29923
1364.17,1.327310,633413,29811
1367.49,1.327335,631026,29697
1370.81,1.328128,628050,29503
1374.12,1.332220,625034,29086
1378.54,1.327214,620272,29199
1381.84,1.321596,616892,29418
1385.14,1.324225,613613,29085
1388.43,1.327989,611526,28736
1391.72,1.328647,610663,28652
1395.01,1.330967,610634,28498
1398.29,1.332869,611700,28423
1402.66,1.329521,614051,28753
1405.93,1.331676,616268,28714
1409.2,1.327250,617795,29080
1412.46,1.327932,618872,29085
1415.72,1.326211,619795,29244
1418.98,1.333105,620495,28816
1422.23,1.337866,621087,28529
1426.56,1.330417,621375,29036
1429.8,1.329018,621616,29141
1433.04,1.330779,622129,29047
1436.27,1.332952,621526,28874
1439.5,1.335910,621113,28659
1442.72,1.331778,620921,28924
1445.94,1.335941,620270,28618
1450.23,1.329149,618860,29003
1453.44,1.337258,617697,28413
1456.64,1.333735,616264,28578
1459.85,1.332976,614413,28542
1463.04,1.336474,612307,28216
1466.24,1.331041,610032,28465
1469.43,1.331741,607345,28294
1473.67,1.336997,603789,27790
1476.85,1.330774,601175,28069
1480.02,1.336105,597737,27568
1483.19,1.337290,594479,27343
1486.36,1.330896,591232,27597
1489.52,1.332645,587853,27329
1492.68,1.340069,583875,26684
1496.89,1.336017,578062,26666
1500.03,1.339771,574159,26258
1503.18,1.330835,570285,26623
1506.32,1.339946,565444,25849
1509.45,1.336758,560571,25815
1512.58,1.337731,555821,25539
1515.71,1.337376,550344,25308
1519.87,1.334564,543983,25178
1522.99,1.335635,538764,24875
1526.1,1.336762,533692,24577
1529.21,1.330684,527902,24653
1532.32,1.339560,521886,23879
1535.42,1.339662,515888,23599
1538.51,1.335974,509987,23528
1541.6,1.339215,503936,23076
1545.72,1.335127,494694,22867
1548.8,1.328883,488378,22902
1551.88,1.335312,481832,22263
1554.95,1.335744,474989,21925
1558.02,1.331939,467818,21784
1561.08,1.335924,460730,21258
1564.15,1.339949,454170,20762
1568.22,1.337653,444181,20413
1571.27,1.338856,436947,20025
1574.32,1.322581,429598,20440
1577.36,1.329060,422039,19783
1580.4,1.330802,414375,19346
1583.43,1.330357,406354,18991
1586.46,1.328652,398475,18696
1590.49,1.324781,388982,18414
1593.51,1.329246,380708,17838
1596.53,1.326372,372727,17580
1599.54,1.325978,365060,17234
1602.55,1.319926,357543,17116
1605.55,1.321766,349495,16660
1608.55,1.325155,341154,16136
1612.54,1.314435,330877,16041
1615.53,1.319415,322904,15476
1618.51,1.318689,315116,15128
1621.49,1.329505,307217,14386
1624.47,1.312582,299481,14581
1627.44,1.318182,292112,14040
1630.41,1.328016,284245,13356
1634.36,1.317466,274079,13195
1637.32,1.314776,266916,12930
1640.27,1.320553,259612,12410
1643.22,1.300761,251804,12598
1646.16,1.312243,244348,11906
1649.1,1.324986,236703,11200
1652.04,1.288112,228171,11753
1655.95,1.302662,215408,10730
1658.88,1.291218,204937,10481
1661.8,1.261919,193395,10581
1664.72,1.294526,179728,9122
1667.63,1.251099,163642,9179
1670.54,1.248352,146312,8259
1673.44,1.202780,128451,8053
1677.31,1.180474,105080,6935
1680.21,1.165528,88906,6073
1683.1,1.151386,75033,5295
1685.99,1.156507,63520,4430
1688.87,1.186144,53714,3499
1691.75,1.173890,45653,3059
1694.62,1.210210,39137,2412
1697.49,1.121387,33776,2554
1701.31,1.230018,28175,1659

File: Column 1_078503_20241121_170552.csv
Method:,Column 1,,
Host Date-Time:,21/11/24 @ 17:5:52,,
Header Version:,1,,
System Temp (C):,34.38,,
Detector Temp (C):,33.9,,
Humidity (%):,1.81,,
Lamp PD:,3800,,
Shift Vector Coefficients:,-10.5391,0.0761263,-0.000134223,,
Pixel to Wavelength Coefficients:,1775.68,-0.916766,-0.000235065,,
Serial Number:,5510004,,
Scan Config Name:,Column 1,,
Scan Config Type:,Slew,,
Section 1,,
Start wavelength (nm):,900,,
End wavelength (nm):,1700,,
Pattern Pixel Width (nm):,   7.03,,,,
Exposure (ms):,  0.635,,,,
Digital Resolution:,228,,
Num Repeats:,6,,
PGA Gain:,64,,
Total Measurement Time in sec:,  2.727,,
Wavelength (nm),Absorbance (AU),Reference Signal (unitless),Sample Signal (unitless)
901.51,1.337966,108485,4982
905.376,1.322631,121306,5771
909.237,1.302974,131909,6566
913.095,1.333683,143299,6646
916.948,1.312756,156982,7640
922.079,1.313559,179937,8741
925.923,1.333687,200504,9299
929.762,1.334636,222660,10304
933.597,1.335800,244426,11281
937.427,1.319880,263972,12638
941.254,1.323587,281845,13379
945.076,1.311306,297271,14516
950.165,1.322966,315605,15003
953.978,1.322203,328029,15621
957.786,1.321359,340470,16245
961.59,1.319561,352317,16880
965.389,1.317333,363056,17484
969.185,1.305148,373162,18482
972.976,1.306365,382632,18898
976.763,1.316008,391202,18897
981.806,1.298660,400190,20119
985.583,1.311166,406088,19836
989.355,1.313753,410162,19916
993.124,1.307866,412868,20321
996.888,1.306902,414263,20435
1000.65,1.307152,415476,20483
1004.4,1.310882,415479,20308
1009.41,1.305029,414358,20528
1013.15,1.313668,412923,20054
1016.89,1.316768,411526,19844
1020.63,1.307842,409066,20135
1024.36,1.308587,406777,19988
1028.09,1.313544,404427,19647
1031.82,1.305998,401911,19867
1036.78,1.311545,398410,19444
1040.49,1.309647,396204,19421
1044.2,1.312206,394236,19211
1047.91,1.317837,392042,18858
1051.61,1.313212,389823,18952
1055.31,1.310157,388234,19008
1059,1.311829,387599,18904
1063.92,1.299649,386688,19396
1067.61,1.313148,386598,18798
1071.29,1.311006,387377,18929
1074.96,1.314420,388536,18837
1078.63,1.319736,389855,18671
1082.3,1.318396,391215,18794
1085.96,1.317824,393215,18915
1090.84,1.317891,396270,19059
1094.49,1.315379,398760,19290
1098.14,1.315508,400987,19392
1101.79,1.321140,403477,19261
1105.43,1.313787,406116,19718
1109.06,1.312538,407701,19852
1112.7,1.320024,409859,19616
1117.53,1.324071,412494,19559
1121.15,1.318511,414909,19927
1124.77,1.314928,416559,20172
1128.38,1.325700,418532,19771
1131.99,1.320289,419956,20087
1135.6,1.317953,421946,20291
1139.2,1.320626,423881,20259
1143.99,1.320048,426786,20425
1147.58,1.328593,428617,20113
1151.17,1.320001,431169,20637
1154.75,1.314746,433579,21005
1158.33,1.326494,436264,20571
1161.91,1.321556,439132,20943
1165.48,1.317037,442389,21319
1169.04,1.327276,446101,20997
1173.79,1.316275,451929,21817
1177.34,1.318288,456026,21913
1180.9,1.320817,461306,22038
1184.44,1.323164,467657,22221
1187.99,1.326958,473969,22325
1191.52,1.318101,479856,23068
1195.06,1.324042,487372,23111
1199.76,1.320630,497347,23770
1203.29,1.324210,504311,23905
1206.81,1.323406,511507,24291
1210.33,1.326670,519078,24466
1213.84,1.326077,527163,24881
1217.35,1.325896,534208,25224
1220.85,1.321608,540472,25773
1225.51,1.331185,549929,25652
1229.01,1.323523,556888,26439
1232.5,1.334885,562180,26001
1235.98,1.324900,567975,26880
1239.46,1.324720,574815,27215
1242.94,1.320665,582782,27851
1246.41,1.321380,591476,28220
1251.03,1.321445,604016,28814
1254.5,1.329817,612289,28651
1257.96,1.334502,619125,28660
1261.41,1.326851,624551,29425
1264.86,1.328891,629900,29538
1268.31,1.327512,634345,29841
1271.75,1.326212,638574,30130
1276.33,1.330173,642499,30040
1279.76,1.329242,645905,30264
1283.19,1.328193,648307,30450
1286.61,1.332414,650446,30255
1290.03,1.335005,652132,30153
1293.44,1.335351,653907,30211
1296.85,1.330491,655963,30647
1301.39,1.334366,657349,30439
1304.8,1.330230,657558,30740
1308.19,1.333597,658515,30547
1311.58,1.333092,658804,30596
1314.97,1.336376,659011,30375
1318.36,1.331947,658272,30652
1321.73,1.331640,658022,30662
1326.23,1.327634,657870,30939
1329.6,1.334035,656482,30422
1332.97,1.332833,654926,30434
1336.33,1.330172,653727,30565
1339.69,1.334528,652497,30203
1343.04,1.334116,649913,30112
1346.39,1.328838,647671,30375
1349.73,1.331639,645338,30071
1354.18,1.325491,641175,30303
1357.52,1.335078,638376,29512
1360.85,1.332076,635805,29597
1364.17,1.336661,633413,29176
1367.49,1.331139,631026,29438
1370.81,1.332240,628050,29225
1374.12,1.328059,625034,29366
1378.54,1.325700,620272,29301
1381.84,1.325407,616892,29161
1385.14,1.329831,613613,28712
1388.43,1.327551,611526,28765
1391.72,1.322685,610663,29048
1395.01,1.327990,610634,28694
1398.29,1.335366,611700,28260
1402.66,1.331034,614051,28653
1405.93,1.329639,616268,28849
1409.2,1.332479,617795,28732
1412.46,1.332646,618872,28771
1415.72,1.337418,619795,28499
1418.98,1.331315,620495,28935
1422.23,1.333067,621087,28846
1426.56,1.333449,621375,28834
1429.8,1.332009,621616,28941
1433.04,1.329510,622129,29132
1436.27,1.330373,621526,29046
1439.5,1.335047,621113,28716
1442.72,1.332169,620921,28898
1445.94,1.337157,620270,28538
1450.23,1.330980,618860,28881
1453.44,1.332863,617697,28702
1456.64,1.335273,616264,28477
1459.85,1.339044,614413,28146
1463.04,1.333865,612307,28386
1466.24,1.336523,610032,28108
1469.43,1.335534,607345,28048
1473.67,1.339253,603789,27646
1476.85,1.336835,601175,27680
1480.02,1.339648,597737,27344
1483.19,1.332316,594479,27658
1486.36,1.344873,591232,26723
1489.52,1.331899,587853,27376
1492.68,1.331272,583875,27230
1496.89,1.336114,578062,26660
1500.03,1.334870,574159,26556
1503.18,1.338886,570285,26134
1506.32,1.339778,565444,25859
1509.45,1.336136,560571,25852
1512.58,1.338565,555821,25490
1515.71,1.335271,550344,25431
1519.87,1.336466,543983,25068
1522.99,1.334067,538764,24965
1526.1,1.338834,533692,24460
1529.21,1.337233,527902,24284
1532.32,1.328711,521886,24483
1535.42,1.339846,515888,23589
1538.51,1.334206,509987,23624
1541.6,1.335411,503936,23279
1545.72,1.332684,494694,22996
1548.8,1.338198,488378,22416
1551.88,1.346276,481832,21708
1554.95,1.332743,474989,22077
1558.02,1.343905,467818,21192
1561.08,1.331837,460730,21459
1564.15,1.336615,454170,20922
1568.22,1.331716,444181,20694
1571.27,1.348949,436947,19565
1574.32,1.338177,429598,19719
1577.36,1.328907,422039,19790
1580.4,1.335542,414375,19136
1583.43,1.335718,406354,18758
1586.46,1.326914,398475,18771
1590.49,1.325371,388982,18389
1593.51,1.339818,380708,17409
1596.53,1.326174,372727,17588
1599.54,1.336952,365060,16804
1602.55,1.328355,357543,16787
1605.55,1.322784,349495,16621
1608.55,1.320683,341154,16303
1612.54,1.324404,330877,15677
1615.53,1.330701,322904,15079
1618.51,1.331390,315116,14692
1621.49,1.330109,307217,14366
1624.47,1.312820,299481,14573
1627.44,1.317286,292112,14069
1630.41,1.327951,284245,13358
1634.36,1.321667,274079,13068
1637.32,1.312431,266916,13000
1640.27,1.315059,259612,12568
1643.22,1.314667,251804,12201
1646.16,1.324863,244348,11565
1649.1,1.295965,236703,11974
1652.04,1.317342,228171,10988
1655.95,1.294483,215408,10934
1658.88,1.296554,204937,10353
1661.8,1.288360,193395,9956
1664.72,1.268516,179728,9685
1667.63,1.258688,163642,9020
1670.54,1.251307,146312,8203
1673.44,1.236290,128451,7455
1677.31,1.207472,105080,6517
1680.21,1.184232,88906,5817
1683.1,1.190317,75033,4841
1685.99,1.162628,63520,4368
1688.87,1.181698,53714,3535
1691.75,1.161435,45653,3148
1694.62,1.157699,39137,2722
1697.49,1.190750,33776,2177
1701.31,1.196041,28175,1794