Folder: textile_sorting_NIRSCAN_/ML/samples/unknown (part 133)

File: Column 1_078988_20241121_173150.csv
Method:,Column 1,,
Host Date-Time:,21/11/24 @ 17:31:50,,
Header Version:,1,,
System Temp (C):,37.66,,
Detector Temp (C):,36.9,,
Humidity (%):,0.78,,
Lamp PD:,3795,,
Shift Vector Coefficients:,-10.5391,0.0761263,-0.000134223,,
Pixel to Wavelength Coefficients:,1775.68,-0.916766,-0.000235065,,
Serial Number:,5510004,,
Scan Config Name:,Column 1,,
Scan Config Type:,Slew,,
Section 1,,
Start wavelength (nm):,900,,
End wavelength (nm):,1700,,
Pattern Pixel Width (nm):,   7.03,,,,
Exposure (ms):,  0.635,,,,
Digital Resolution:,228,,
Num Repeats:,6,,
PGA Gain:,64,,
Total Measurement Time in sec:,  2.725,,
Wavelength (nm),Absorbance (AU),Reference Signal (unitless),Sample Signal (unitless)
901.51,1.331219,108485,5060
905.376,1.349162,121306,5429
909.237,1.296539,131909,6664
913.095,1.331142,143299,6685
916.948,1.326383,156982,7404
922.079,1.317653,179937,8659
925.923,1.316203,200504,9681
929.762,1.313656,222660,10814
933.597,1.314356,244426,11852
937.427,1.313602,263972,12822
941.254,1.319677,281845,13500
945.076,1.322427,297271,14149
950.165,1.314084,315605,15313
953.978,1.308197,328029,16133
957.786,1.316336,340470,16434
961.59,1.312821,352317,17144
965.389,1.308774,363056,17832
969.185,1.300753,373162,18670
972.976,1.300703,382632,19146
976.763,1.306147,391202,19331
981.806,1.306655,400190,19752
985.583,1.309527,406088,19911
989.355,1.298330,410162,20636
993.124,1.304439,412868,20482
996.888,1.301222,414263,20704
1000.65,1.297611,415476,20938
1004.4,1.310604,415479,20321
1009.41,1.315283,414358,20049
1013.15,1.305686,412923,20426
1016.89,1.315522,411526,19901
1020.63,1.301801,409066,20417
1024.36,1.298663,406777,20450
1028.09,1.307529,404427,19921
1031.82,1.307158,401911,19814
1036.78,1.298714,398410,20027
1040.49,1.308352,396204,19479
1044.2,1.296750,394236,19907
1047.91,1.311686,392042,19127
1051.61,1.311566,389823,19024
1055.31,1.299460,388234,19482
1059,1.306940,387599,19118
1063.92,1.310394,386688,18922
1067.61,1.307935,386598,19025
1071.29,1.318504,387377,18605
1074.96,1.305023,388536,19249
1078.63,1.319410,389855,18685
1082.3,1.306116,391215,19333
1085.96,1.314257,393215,19071
1090.84,1.311692,396270,19333
1094.49,1.310076,398760,19527
1098.14,1.316292,400987,19357
1101.79,1.311154,403477,19709
1105.43,1.316704,406116,19586
1109.06,1.309442,407701,19994
1112.7,1.315531,409859,19820
1117.53,1.310583,412494,20176
1121.15,1.316641,414909,20013
1124.77,1.325519,416559,19686
1128.38,1.309044,418532,20544
1131.99,1.315066,419956,20330
1135.6,1.320314,421946,20181
1139.2,1.309076,423881,20805
1143.99,1.323099,426786,20282
1147.58,1.309106,428617,21036
1151.17,1.318321,431169,20717
1154.75,1.317005,433579,20896
1158.33,1.307594,436264,21486
1161.91,1.311877,439132,21415
1165.48,1.309185,442389,21708
1169.04,1.314256,446101,21636
1173.79,1.319171,451929,21672
1177.34,1.313067,456026,22178
1180.9,1.310054,461306,22591
1184.44,1.315665,467657,22608
1187.99,1.317910,473969,22795
1191.52,1.317988,479856,23074
1195.06,1.321531,487372,23245
1199.76,1.318044,497347,23912
1203.29,1.318542,504311,24219
1206.81,1.319721,511507,24498
1210.33,1.317884,519078,24966
1213.84,1.322877,527163,25065
1217.35,1.318657,534208,25648
1220.85,1.319289,540472,25911
1225.51,1.317454,549929,26476
1229.01,1.316840,556888,26849
1232.5,1.319687,562180,26927
1235.98,1.317372,567975,27350
1239.46,1.312820,574815,27971
1242.94,1.313275,582782,28329
1246.41,1.311701,591476,28856
1251.03,1.320181,604016,28898
1254.5,1.316546,612289,29540
1257.96,1.327229,619125,29144
1261.41,1.321177,624551,29812
1264.86,1.318302,629900,30267
1268.31,1.323298,634345,30132
1271.75,1.326876,638574,30084
1276.33,1.323573,642499,30500
1279.76,1.320435,645905,30884
1283.19,1.318462,648307,31140
1286.61,1.322930,650446,30923
1290.03,1.326490,652132,30750
1293.44,1.324954,653907,30943
1296.85,1.327864,655963,30833
1301.39,1.325427,657349,31072
1304.8,1.320631,657558,31427
1308.19,1.323730,658515,31249
1311.58,1.328039,658804,30954
1314.97,1.330187,659011,30811
1318.36,1.327548,658272,30964
1321.73,1.331753,658022,30654
1326.23,1.324139,657870,31189
1329.6,1.324393,656482,31105
1332.97,1.323921,654926,31065
1336.33,1.327156,653727,30778
1339.69,1.328191,652497,30647
1343.04,1.328114,649913,30531
1346.39,1.327981,647671,30435
1349.73,1.333361,645338,29952
1354.18,1.325706,641175,30288
1357.52,1.323304,638376,30323
1360.85,1.325595,635805,30042
1364.17,1.327412,633413,29804
1367.49,1.322362,631026,30039
1370.81,1.324172,628050,29773
1374.12,1.325317,625034,29552
1378.54,1.327229,620272,29198
1381.84,1.325020,616892,29187
1385.14,1.323390,613613,29141
1388.43,1.324706,611526,28954
1391.72,1.329815,610663,28575
1395.01,1.328808,610634,28640
1398.29,1.326814,611700,28822
1402.66,1.332325,614051,28568
1405.93,1.331086,616268,28753
1409.2,1.332615,617795,28723
1412.46,1.331982,618872,28815
1415.72,1.329117,619795,29049
1418.98,1.329234,620495,29074
1422.23,1.325811,621087,29332
1426.56,1.326664,621375,29288
1429.8,1.325234,621616,29396
1433.04,1.325489,622129,29403
1436.27,1.331676,621526,28959
1439.5,1.331042,621113,28982
1442.72,1.329696,620921,29063
1445.94,1.331758,620270,28895
1450.23,1.332607,618860,28773
1453.44,1.328812,617697,28971
1456.64,1.327998,616264,28958
1459.85,1.330624,614413,28697
1463.04,1.333238,612307,28427
1466.24,1.330218,610032,28519
1469.43,1.332079,607345,28272
1473.67,1.353513,603789,26753
1476.85,1.332697,601175,27945
1480.02,1.336073,597737,27570
1483.19,1.340415,594479,27147
1486.36,1.332299,591232,27508
1489.52,1.334349,587853,27222
1492.68,1.344436,583875,26417
1496.89,1.335772,578062,26681
1500.03,1.336147,574159,26478
1503.18,1.334044,570285,26427
1506.32,1.340383,565444,25823
1509.45,1.339594,560571,25647
1512.58,1.328311,555821,26099
1515.71,1.333720,550344,25522
1519.87,1.331522,543983,25355
1522.99,1.329068,538764,25254
1526.1,1.336691,533692,24581
1529.21,1.335448,527902,24384
1532.32,1.331451,521886,24329
1535.42,1.336672,515888,23762
1538.51,1.333893,509987,23641
1541.6,1.331788,503936,23474
1545.72,1.322955,494694,23517
1548.8,1.330174,488378,22834
1551.88,1.336249,481832,22215
1554.95,1.336934,474989,21865
1558.02,1.331760,467818,21793
1561.08,1.330968,460730,21502
1564.15,1.328798,454170,21302
1568.22,1.328766,444181,20835
1571.27,1.321489,436947,20842
1574.32,1.332315,429598,19987
1577.36,1.332809,422039,19613
1580.4,1.329681,414375,19396
1583.43,1.327099,406354,19134
1586.46,1.335914,398475,18386
1590.49,1.327787,388982,18287
1593.51,1.321907,380708,18142
1596.53,1.321190,372727,17791
1599.54,1.318681,365060,17526
1602.55,1.327554,357543,16818
1605.55,1.324014,349495,16574
1608.55,1.318928,341154,16369
1612.54,1.316090,330877,15980
1615.53,1.326288,322904,15233
1618.51,1.317829,315116,15158
1621.49,1.321459,307217,14655
1624.47,1.310621,299481,14647
1627.44,1.317997,292112,14046
1630.41,1.314885,284245,13766
1634.36,1.322332,274079,13048
1637.32,1.306294,266916,13185
1640.27,1.306572,259612,12816
1643.22,1.301555,251804,12575
1646.16,1.313668,244348,11867
1649.1,1.317756,236703,11388
1652.04,1.300480,228171,11423
1655.95,1.312321,215408,10494
1658.88,1.299839,204937,10275
1661.8,1.276824,193395,10224
1664.72,1.269414,179728,9665
1667.63,1.241090,163642,9393
1670.54,1.218828,146312,8840
1673.44,1.190655,128451,8281
1677.31,1.143171,105080,7557
1680.21,1.156329,88906,6203
1683.1,1.112949,75033,5785
1685.99,1.113424,63520,4892
1688.87,1.117198,53714,4101
1691.75,1.136504,45653,3334
1694.62,1.121443,39137,2959
1697.49,1.081605,33776,2799
1701.31,1.129925,28175,2089

File: Column 1_078989_20241121_173153.csv
Method:,Column 1,,
Host Date-Time:,21/11/24 @ 17:31:53,,
Header Version:,1,,
System Temp (C):,37.66,,
Detector Temp (C):,36.93,,
Humidity (%):,0.83,,
Lamp PD:,3795,,
Shift Vector Coefficients:,-10.5391,0.0761263,-0.000134223,,
Pixel to Wavelength Coefficients:,1775.68,-0.916766,-0.000235065,,
Serial Number:,5510004,,
Scan Config Name:,Column 1,,
Scan Config Type:,Slew,,
Section 1,,
Start wavelength (nm):,900,,
End wavelength (nm):,1700,,
Pattern Pixel Width (nm):,   7.03,,,,
Exposure (ms):,  0.635,,,,
Digital Resolution:,228,,
Num Repeats:,6,,
PGA Gain:,64,,
Total Measurement Time in sec:,  2.728,,
Wavelength (nm),Absorbance (AU),Reference Signal (unitless),Sample Signal (unitless)
901.51,1.303056,108485,5399
905.376,1.303709,121306,6028
909.237,1.312199,131909,6428
913.095,1.328680,143299,6723
916.948,1.320615,156982,7503
922.079,1.332239,179937,8373
925.923,1.301082,200504,10024
929.762,1.328567,222660,10449
933.597,1.320482,244426,11686
937.427,1.303293,263972,13130
941.254,1.310730,281845,13781
945.076,1.311365,297271,14514
950.165,1.318588,315605,15155
953.978,1.297981,328029,16517
957.786,1.321225,340470,16250
961.59,1.311456,352317,17198
965.389,1.307776,363056,17873
969.185,1.295367,373162,18903
972.976,1.305539,382632,18934
976.763,1.304286,391202,19414
981.806,1.298660,400190,20119
985.583,1.298586,406088,20419
989.355,1.293287,410162,20877
993.124,1.297873,412868,20794
996.888,1.302083,414263,20663
1000.65,1.299336,415476,20855
1004.4,1.305906,415479,20542
1009.41,1.294020,414358,21055
1013.15,1.298558,412923,20764
1016.89,1.309239,411526,20191
1020.63,1.300633,409066,20472
1024.36,1.294331,406777,20655
1028.09,1.305138,404427,20031
1031.82,1.306698,401911,19835
1036.78,1.304060,398410,19782
1040.49,1.322677,396204,18847
1044.2,1.297318,394236,19881
1047.91,1.311640,392042,19129
1051.61,1.310039,389823,19091
1055.31,1.305295,388234,19222
1059,1.315381,387599,18750
1063.92,1.297705,386688,19483
1067.61,1.312571,386598,18823
1071.29,1.312155,387377,18879
1074.96,1.303874,388536,19300
1078.63,1.301515,389855,19471
1082.3,1.311610,391215,19090
1085.96,1.313688,393215,19096
1090.84,1.304231,396270,19668
1094.49,1.305166,398760,19749
1098.14,1.309503,400987,19662
1101.79,1.309702,403477,19775
1105.43,1.316571,406116,19592
1109.06,1.305981,407701,20154
1112.7,1.307950,409859,20169
1117.53,1.305596,412494,20409
1121.15,1.312580,414909,20201
1124.77,1.315811,416559,20131
1128.38,1.315819,418532,20226
1131.99,1.310878,419956,20527
1135.6,1.305901,421946,20862
1139.2,1.310519,423881,20736
1143.99,1.315059,426786,20661
1147.58,1.312526,428617,20871
1151.17,1.319580,431169,20657
1154.75,1.318275,433579,20835
1158.33,1.314357,436264,21154
1161.91,1.307418,439132,21636
1165.48,1.315553,442389,21392
1169.04,1.315140,446101,21592
1173.79,1.312509,451929,22007
1177.34,1.320812,456026,21786
1180.9,1.311459,461306,22518
1184.44,1.316993,467657,22539
1187.99,1.306070,473969,23425
1191.52,1.317349,479856,23108
1195.06,1.310791,487372,23827
1199.76,1.315093,497347,24075
1203.29,1.317772,504311,24262
1206.81,1.315505,511507,24737
1210.33,1.322219,519078,24718
1213.84,1.318138,527163,25340
1217.35,1.313506,534208,25954
1220.85,1.320867,540472,25817
1225.51,1.314561,549929,26653
1229.01,1.322260,556888,26516
1232.5,1.322081,562180,26779
1235.98,1.315597,567975,27462
1239.46,1.308925,574815,28223
1242.94,1.312647,582782,28370
1246.41,1.319369,591476,28351
1251.03,1.318695,604016,28997
1254.5,1.318521,612289,29406
1257.96,1.320047,619125,29630
1261.41,1.319490,624551,29928
1264.86,1.320561,629900,30110
1268.31,1.322347,634345,30198
1271.75,1.315126,638574,30909
1276.33,1.327291,642499,30240
1279.76,1.325741,645905,30509
1283.19,1.317445,648307,31213
1286.61,1.316918,650446,31354
1290.03,1.323016,652132,30997
1293.44,1.321765,653907,31171
1296.85,1.326135,655963,30956
1301.39,1.328119,657349,30880
1304.8,1.328735,657558,30846
1308.19,1.329113,658515,30864
1311.58,1.323962,658804,31246
1314.97,1.318121,659011,31679
1318.36,1.326344,658272,31050
1321.73,1.326571,658022,31022
1326.23,1.323012,657870,31270
1329.6,1.326352,656482,30965
1332.97,1.323837,654926,31071
1336.33,1.327905,653727,30725
1339.69,1.328829,652497,30602
1343.04,1.323614,649913,30849
1346.39,1.327881,647671,30442
1349.73,1.318972,645338,30961
1354.18,1.320305,641175,30667
1357.52,1.326222,638376,30120
1360.85,1.319836,635805,30443
1364.17,1.325580,633413,29930
1367.49,1.320530,631026,30166
1370.81,1.323501,628050,29819
1374.12,1.324803,625034,29587
1378.54,1.320763,620272,29636
1381.84,1.327691,616892,29008
1385.14,1.321531,613613,29266
1388.43,1.324646,611526,28958
1391.72,1.326093,610663,28821
1395.01,1.324838,610634,28903
1398.29,1.320814,611700,29223
1402.66,1.320582,614051,29351
1405.93,1.328406,616268,28931
1409.2,1.323029,617795,29364
1412.46,1.322707,618872,29437
1415.72,1.328116,619795,29116
1418.98,1.329772,620495,29038
1422.23,1.328499,621087,29151
1426.56,1.336320,621375,28644
1429.8,1.325914,621616,29350
1433.04,1.328289,622129,29214
1436.27,1.330149,621526,29061
1439.5,1.329995,621113,29052
1442.72,1.325177,620921,29367
1445.94,1.325254,620270,29331
1450.23,1.337571,618860,28446
1453.44,1.329532,617697,28923
1456.64,1.329666,616264,28847
1459.85,1.333661,614413,28497
1463.04,1.326733,612307,28856
1466.24,1.328759,610032,28615
1469.43,1.332694,607345,28232
1473.67,1.328026,603789,28370
1476.85,1.329831,601175,28130
1480.02,1.329197,597737,28010
1483.19,1.329093,594479,27864
1486.36,1.326668,591232,27867
1489.52,1.330031,587853,27494
1492.68,1.338607,583875,26774
1496.89,1.332771,578062,26866
1500.03,1.327009,574159,27041
1503.18,1.330362,570285,26652
1506.32,1.335101,565444,26139
1509.45,1.334694,560571,25938
1512.58,1.330279,555821,25981
1515.71,1.331225,550344,25669
1519.87,1.332757,543983,25283
1522.99,1.341046,538764,24567
1526.1,1.336285,533692,24604
1529.21,1.330772,527902,24648
1532.32,1.327453,521886,24554
1535.42,1.330899,515888,24080
1538.51,1.330034,509987,23852
1541.6,1.336775,503936,23206
1545.72,1.329804,494694,23149
1548.8,1.327803,488378,22959
1551.88,1.329691,481832,22553
1554.95,1.332114,474989,22109
1558.02,1.330149,467818,21874
1561.08,1.330503,460730,21525
1564.15,1.321279,454170,21674
1568.22,1.328433,444181,20851
1571.27,1.317507,436947,21034
1574.32,1.320293,429598,20548
1577.36,1.326172,422039,19915
1580.4,1.329771,414375,19392
1583.43,1.328008,406354,19094
1586.46,1.327539,398475,18744
1590.49,1.331532,388982,18130
1593.51,1.323298,380708,18084
1596.53,1.328775,372727,17483
1599.54,1.312042,365060,17796
1602.55,1.322420,357543,17018
1605.55,1.312635,349495,17014
1608.55,1.323677,341154,16191
1612.54,1.328355,330877,15535
1615.53,1.324212,322904,15306
1618.51,1.314091,315116,15289
1621.49,1.315748,307217,14849
1624.47,1.308225,299481,14728
1627.44,1.303314,292112,14529
1630.41,1.312682,284245,13836
1634.36,1.323799,274079,13004
1637.32,1.323804,266916,12664
1640.27,1.308304,259612,12765
1643.22,1.306242,251804,12440
1646.16,1.301969,244348,12191
1649.1,1.305499,236703,11714
1652.04,1.299683,228171,11444
1655.95,1.306279,215408,10641
1658.88,1.293544,204937,10425
1661.8,1.265670,193395,10490
1664.72,1.254312,179728,10007
1667.63,1.240675,163642,9402
1670.54,1.194468,146312,9350
1673.44,1.184976,128451,8390
1677.31,1.164067,105080,7202
1680.21,1.137557,88906,6477
1683.1,1.109509,75033,5831
1685.99,1.093132,63520,5126
1688.87,1.150647,53714,3797
1691.75,1.077520,45653,3819
1694.62,1.074205,39137,3299
1697.49,1.108983,33776,2628
1701.31,1.044006,28175,2546

File: Column 1_078990_20241121_173156.csv
Method:,Column 1,,
Host Date-Time:,21/11/24 @ 17:31:56,,
Header Version:,1,,
System Temp (C):,37.73,,
Detector Temp (C):,36.93,,
Humidity (%):,0.93,,
Lamp PD:,3795,,
Shift Vector Coefficients:,-10.5391,0.0761263,-0.000134223,,
Pixel to Wavelength Coefficients:,1775.68,-0.916766,-0.000235065,,
Serial Number:,5510004,,
Scan Config Name:,Column 1,,
Scan Config Type:,Slew,,
Section 1,,
Start wavelength (nm):,900,,
End wavelength (nm):,1700,,
Pattern Pixel Width (nm):,   7.03,,,,
Exposure (ms):,  0.635,,,,
Digital Resolution:,228,,
Num Repeats:,6,,
PGA Gain:,64,,
Total Measurement Time in sec:,  2.727,,
Wavelength (nm),Absorbance (AU),Reference Signal (unitless),Sample Signal (unitless)
901.51,1.326185,108485,5119
905.376,1.305514,121306,6003
909.237,1.332531,131909,6134
913.095,1.312263,143299,6982
916.948,1.326442,156982,7403
922.079,1.328212,179937,8451
925.923,1.333033,200504,9313
929.762,1.324925,222660,10537
933.597,1.333917,244426,11330
937.427,1.311575,263972,12882
941.254,1.325539,281845,13319
945.076,1.302861,297271,14801
950.165,1.313573,315605,15331
953.978,1.307659,328029,16153
957.786,1.308272,340470,16742
961.59,1.320385,352317,16848
965.389,1.320124,363056,17372
969.185,1.314339,373162,18095
972.976,1.307355,382632,18855
976.763,1.308422,391202,19230
981.806,1.304615,400190,19845
985.583,1.306333,406088,20058
989.355,1.310430,410162,20069
993.124,1.308636,412868,20285
996.888,1.302693,414263,20634
1000.65,1.304426,415476,20612
1004.4,1.304576,415479,20605
1009.41,1.308811,414358,20350
1013.15,1.306367,412923,20394
1016.89,1.306837,411526,20303
1020.63,1.305647,409066,20237
1024.36,1.312801,406777,19795
1028.09,1.308162,404427,19892
1031.82,1.300006,401911,20143
1036.78,1.306151,398410,19687
1040.49,1.316681,396204,19109
1044.2,1.316888,394236,19005
1047.91,1.312458,392042,19093
1051.61,1.313717,389823,18930
1055.31,1.312012,388234,18927
1059,1.306486,387599,19138
1063.92,1.305646,386688,19130
1067.61,1.319009,386598,18546
1071.29,1.317176,387377,18662
1074.96,1.314466,388536,18835
1078.63,1.313088,389855,18959
1082.3,1.313228,391215,19019
1085.96,1.313369,393215,19110
1090.84,1.310346,396270,19393
1094.49,1.311212,398760,19476
1098.14,1.312539,400987,19525
1101.79,1.315072,403477,19532
1105.43,1.316350,406116,19602
1109.06,1.313348,407701,19815
1112.7,1.305310,409859,20292
1117.53,1.310195,412494,20194
1121.15,1.315276,414909,20076
1124.77,1.321719,416559,19859
1128.38,1.314447,418532,20290
1131.99,1.317186,419956,20231
1135.6,1.323793,421946,20020
1139.2,1.321742,423881,20207
1143.99,1.318139,426786,20515
1147.58,1.309437,428617,21020
1151.17,1.316542,431169,20802
1154.75,1.315159,433579,20985
1158.33,1.311533,436264,21292
1161.91,1.316956,439132,21166
1165.48,1.312518,442389,21542
1169.04,1.306419,446101,22030
1173.79,1.314190,451929,21922
1177.34,1.312480,456026,22208
1180.9,1.316893,461306,22238
1184.44,1.312431,467657,22777
1187.99,1.316427,473969,22873
1191.52,1.315080,479856,23229
1195.06,1.312654,487372,23725
1199.76,1.319572,497347,23828
1203.29,1.313586,504311,24497
1206.81,1.319969,511507,24484
1210.33,1.324739,519078,24575
1213.84,1.314112,527163,25576
1217.35,1.324899,534208,25282
1220.85,1.319574,540472,25894
1225.51,1.319262,549929,26366
1229.01,1.324921,556888,26354
1232.5,1.317644,562180,27054
1235.98,1.320559,567975,27150
1239.46,1.318635,574815,27599
1242.94,1.323575,582782,27665
1246.41,1.322737,591476,28132
1251.03,1.321204,604016,28830
1254.5,1.326209,612289,28890
1257.96,1.325445,619125,29264
1261.41,1.327058,624551,29411
1264.86,1.324808,629900,29817
1268.31,1.323153,634345,30142
1271.75,1.327511,638574,30040
1276.33,1.328945,642499,30125
1279.76,1.325954,645905,30494
1283.19,1.323188,648307,30803
1286.61,1.325070,650446,30771
1290.03,1.326971,652132,30716
1293.44,1.329709,653907,30606
1296.85,1.327329,655963,30871
1301.39,1.324157,657349,31163
1304.8,1.324839,657558,31124
1308.19,1.325456,658515,31125
1311.58,1.330883,658804,30752
1314.97,1.330779,659011,30769
1318.36,1.325338,658272,31122
1321.73,1.329267,658022,30830
1326.23,1.326610,657870,31012
1329.6,1.329745,656482,30724
1332.97,1.325433,654926,30957
1336.33,1.329093,653727,30641
1339.69,1.325704,652497,30823
1343.04,1.326326,649913,30657
1346.39,1.328824,647671,30376
1349.73,1.323201,645338,30661
1354.18,1.325878,641175,30276
1357.52,1.326351,638376,30111
1360.85,1.330714,635805,29690
1364.17,1.323149,633413,30098
1367.49,1.327905,631026,29658
1370.81,1.317441,628050,30238
1374.12,1.323894,625034,29649
1378.54,1.325611,620272,29307
1381.84,1.317146,616892,29721
1385.14,1.327553,613613,28863
1388.43,1.326359,611526,28844
1391.72,1.328859,610663,28638
1395.01,1.327309,610634,28739
1398.29,1.326890,611700,28817
1402.66,1.321426,614051,29294
1405.93,1.334042,616268,28558
1409.2,1.327848,617795,29040
1412.46,1.330222,618872,28932
1415.72,1.331275,619795,28905
1418.98,1.328890,620495,29097
1422.23,1.329274,621087,29099
1426.56,1.330447,621375,29034
1429.8,1.332009,621616,28941
1433.04,1.332938,622129,28903
1436.27,1.334852,621526,28748
1439.5,1.329367,621113,29094
1442.72,1.332214,620921,28895
1445.94,1.333520,620270,28778
1450.23,1.330244,618860,28930
1453.44,1.332500,617697,28726
1456.64,1.335196,616264,28482
1459.85,1.332748,614413,28557
1463.04,1.341381,612307,27899
1466.24,1.332677,610032,28358
1469.43,1.333325,607345,28191
1473.67,1.332689,603789,28067
1476.85,1.337259,601175,27653
1480.02,1.326169,597737,28206
1483.19,1.332929,594479,27619
1486.36,1.334388,591232,27376
1489.52,1.334109,587853,27237
1492.68,1.335375,583875,26974
1496.89,1.332254,578062,26898
1500.03,1.339440,574159,26278
1503.18,1.334949,570285,26372
1506.32,1.333939,565444,26209
1509.45,1.333841,560571,25989
1512.58,1.330446,555821,25971
1515.71,1.333975,550344,25507
1519.87,1.328518,543983,25531
1522.99,1.337753,538764,24754
1526.1,1.339403,533692,24428
1529.21,1.339978,527902,24131
1532.32,1.338216,521886,23953
1535.42,1.335103,515888,23848
1538.51,1.337713,509987,23434
1541.6,1.336457,503936,23223
1545.72,1.325566,494694,23376
1548.8,1.329186,488378,22886
1551.88,1.333482,481832,22357
1554.95,1.332173,474989,22106
1558.02,1.335784,467818,21592
1561.08,1.334822,460730,21312
1564.15,1.335558,454170,20973
1568.22,1.321163,444181,21203
1571.27,1.334154,436947,20243
1574.32,1.336222,429598,19808
1577.36,1.335363,422039,19498
1580.4,1.331297,414375,19324
1583.43,1.329557,406354,19026
1586.46,1.324882,398475,18859
1590.49,1.322664,388982,18504
1593.51,1.329100,380708,17844
1596.53,1.324917,372727,17639
1599.54,1.339206,365060,16717
1602.55,1.322063,357543,17032
1605.55,1.325825,349495,16505
1608.55,1.320603,341154,16306
1612.54,1.320597,330877,15815
1615.53,1.330154,322904,15098
1618.51,1.325138,315116,14905
1621.49,1.325239,307217,14528
1624.47,1.310561,299481,14649
1627.44,1.315100,292112,14140
1630.41,1.322780,284245,13518
1634.36,1.319743,274079,13126
1637.32,1.328666,266916,12523
1640.27,1.318667,259612,12464
1643.22,1.310487,251804,12319
1646.16,1.311114,244348,11937
1649.1,1.303944,236703,11756
1652.04,1.298659,228171,11471
1655.95,1.302217,215408,10741
1658.88,1.303873,204937,10180
1661.8,1.280150,193395,10146
1664.72,1.260607,179728,9863
1667.63,1.244013,163642,9330
1670.54,1.232806,146312,8560
1673.44,1.207170,128451,7972
1677.31,1.151995,105080,7405
1680.21,1.129387,88906,6600
1683.1,1.128074,75033,5587
1685.99,1.148060,63520,4517
1688.87,1.153861,53714,3769
1691.75,1.142670,45653,3287
1694.62,1.137438,39137,2852
1697.49,1.167636,33776,2296
1701.31,1.123119,28175,2122