Folder: textile_sorting_NIRSCAN_/ML/samples/unknown (part 25)

File: Column 1_078159_20241121_164822.csv
Method:,Column 1,,
Host Date-Time:,21/11/24 @ 16:48:22,,
Header Version:,1,,
System Temp (C):,33.32,,
Detector Temp (C):,29.49,,
Humidity (%):,3.32,,
Lamp PD:,3805,,
Shift Vector Coefficients:,-10.5391,0.0761263,-0.000134223,,
Pixel to Wavelength Coefficients:,1775.68,-0.916766,-0.000235065,,
Serial Number:,5510004,,
Scan Config Name:,Column 1,,
Scan Config Type:,Slew,,
Section 1,,
Start wavelength (nm):,900,,
End wavelength (nm):,1700,,
Pattern Pixel Width (nm):,   7.03,,,,
Exposure (ms):,  0.635,,,,
Digital Resolution:,228,,
Num Repeats:,6,,
PGA Gain:,64,,
Total Measurement Time in sec:,  2.705,,
Wavelength (nm),Absorbance (AU),Reference Signal (unitless),Sample Signal (unitless)
901.51,1.342523,108485,4930
905.376,1.311561,121306,5920
909.237,1.296409,131909,6666
913.095,1.319856,143299,6861
916.948,1.329090,156982,7358
922.079,1.297753,179937,9065
925.923,1.299611,200504,10058
929.762,1.317974,222660,10707
933.597,1.328584,244426,11470
937.427,1.312520,263972,12854
941.254,1.311613,281845,13753
945.076,1.311785,297271,14500
950.165,1.313347,315605,15339
953.978,1.325272,328029,15511
957.786,1.316706,340470,16420
961.59,1.309641,352317,17270
965.389,1.318601,363056,17433
969.185,1.308925,373162,18322
972.976,1.316009,382632,18483
976.763,1.311027,391202,19115
981.806,1.306260,400190,19770
985.583,1.314794,406088,19671
989.355,1.312512,410162,19973
993.124,1.312788,412868,20092
996.888,1.310401,414263,20271
1000.65,1.317994,415476,19978
1004.4,1.306541,415479,20512
1009.41,1.314677,414358,20077
1013.15,1.310475,412923,20202
1016.89,1.315086,411526,19921
1020.63,1.313290,409066,19884
1024.36,1.312911,406777,19790
1028.09,1.311317,404427,19748
1031.82,1.315501,401911,19437
1036.78,1.309383,398410,19541
1040.49,1.308464,396204,19474
1044.2,1.313837,394236,19139
1047.91,1.312276,392042,19101
1051.61,1.327255,389823,18349
1055.31,1.303289,388234,19311
1059,1.320367,387599,18536
1063.92,1.314637,386688,18738
1067.61,1.309994,386598,18935
1071.29,1.313653,387377,18814
1074.96,1.319475,388536,18619
1078.63,1.311578,389855,19025
1082.3,1.318489,391215,18790
1085.96,1.320888,393215,18782
1090.84,1.321392,396270,18906
1094.49,1.318384,398760,19157
1098.14,1.319445,400987,19217
1101.79,1.323038,403477,19177
1105.43,1.317348,406116,19557
1109.06,1.324515,407701,19312
1112.7,1.314240,409859,19879
1117.53,1.306086,412494,20386
1121.15,1.317662,414909,19966
1124.77,1.311432,416559,20335
1128.38,1.329340,418532,19606
1131.99,1.318907,419956,20151
1135.6,1.317718,421946,20302
1139.2,1.317848,423881,20389
1143.99,1.314261,426786,20699
1147.58,1.312693,428617,20863
1151.17,1.325188,431169,20392
1154.75,1.324214,433579,20552
1158.33,1.318918,436264,20933
1161.91,1.325159,439132,20770
1165.48,1.317078,442389,21317
1169.04,1.317642,446101,21468
1173.79,1.314884,451929,21887
1177.34,1.317931,456026,21931
1180.9,1.319047,461306,22128
1184.44,1.315665,467657,22608
1187.99,1.315005,473969,22948
1191.52,1.322567,479856,22832
1195.06,1.322073,487372,23216
1199.76,1.327221,497347,23412
1203.29,1.320573,504311,24106
1206.81,1.313106,511507,24874
1210.33,1.319557,519078,24870
1213.84,1.320183,527163,25221
1217.35,1.319504,534208,25598
1220.85,1.321524,540472,25778
1225.51,1.324399,549929,26056
1229.01,1.321409,556888,26568
1232.5,1.318078,562180,27027
1235.98,1.324561,567975,26901
1239.46,1.326559,574815,27100
1242.94,1.325668,582782,27532
1246.41,1.326317,591476,27901
1251.03,1.323272,604016,28693
1254.5,1.323034,612289,29102
1257.96,1.325905,619125,29233
1261.41,1.331063,624551,29141
1264.86,1.324473,629900,29840
1268.31,1.325827,634345,29957
1271.75,1.330136,638574,29859
1276.33,1.323886,642499,30478
1279.76,1.330694,645905,30163
1283.19,1.331616,648307,30211
1286.61,1.336669,650446,29960
1290.03,1.324307,652132,30905
1293.44,1.334877,653907,30244
1296.85,1.331811,655963,30554
1301.39,1.339648,657349,30071
1304.8,1.327175,657558,30957
1308.19,1.331272,658515,30711
1311.58,1.333333,658804,30579
1314.97,1.331373,659011,30727
1318.36,1.334832,658272,30449
1321.73,1.331074,658022,30702
1326.23,1.330083,657870,30765
1329.6,1.333251,656482,30477
1332.97,1.334606,654926,30310
1336.33,1.335289,653727,30207
1339.69,1.330877,652497,30458
1343.04,1.330911,649913,30335
1346.39,1.334378,647671,29990
1349.73,1.329766,645338,30201
1354.18,1.329060,641175,30055
1357.52,1.337158,638376,29371
1360.85,1.334224,635805,29451
1364.17,1.328638,633413,29720
1367.49,1.333639,631026,29269
1370.81,1.330475,628050,29344
1374.12,1.332713,625034,29053
1378.54,1.330634,620272,28970
1381.84,1.334603,616892,28550
1385.14,1.325751,613613,28983
1388.43,1.329245,611526,28653
1391.72,1.327421,610663,28733
1395.01,1.321038,610634,29157
1398.29,1.325731,611700,28894
1402.66,1.332264,614051,28572
1405.93,1.330362,616268,28801
1409.2,1.332978,617795,28699
1412.46,1.332389,618872,28788
1415.72,1.332871,619795,28799
1418.98,1.330550,620495,28986
1422.23,1.326641,621087,29276
1426.56,1.335321,621375,28710
1429.8,1.334401,621616,28782
1433.04,1.331258,622129,29015
1436.27,1.333148,621526,28861
1439.5,1.332664,621113,28874
1442.72,1.334746,620921,28727
1445.94,1.335274,620270,28662
1450.23,1.339331,618860,28331
1453.44,1.338422,617697,28337
1456.64,1.334252,616264,28544
1459.85,1.335616,614413,28369
1463.04,1.338882,612307,28060
1466.24,1.334796,610032,28220
1469.43,1.341536,607345,27663
1473.67,1.341268,603789,27518
1476.85,1.338013,601175,27605
1480.02,1.338966,597737,27387
1483.19,1.333968,594479,27553
1486.36,1.339542,591232,27053
1489.52,1.334780,587853,27195
1492.68,1.339792,583875,26701
1496.89,1.341210,578062,26349
1500.03,1.343158,574159,26054
1503.18,1.334356,570285,26408
1506.32,1.343794,565444,25621
1509.45,1.344105,560571,25382
1512.58,1.339418,555821,25440
1515.71,1.341116,550344,25091
1519.87,1.338236,543983,24966
1522.99,1.337981,538764,24741
1526.1,1.338160,533692,24498
1529.21,1.337842,527902,24250
1532.32,1.340506,521886,23827
1535.42,1.338247,515888,23676
1538.51,1.333563,509987,23659
1541.6,1.340836,503936,22990
1545.72,1.342927,494694,22460
1548.8,1.341817,488378,22230
1551.88,1.330539,481832,22509
1554.95,1.333334,474989,22047
1558.02,1.339176,467818,21424
1561.08,1.343051,460730,20912
1564.15,1.335972,454170,20953
1568.22,1.332114,444181,20675
1571.27,1.335529,436947,20179
1574.32,1.339390,429598,19664
1577.36,1.342595,422039,19176
1580.4,1.335202,414375,19151
1583.43,1.336761,406354,18713
1586.46,1.330771,398475,18605
1590.49,1.324569,388982,18423
1593.51,1.329684,380708,17820
1596.53,1.322364,372727,17743
1599.54,1.319177,365060,17506
1602.55,1.338220,357543,16410
1605.55,1.331014,349495,16309
1608.55,1.323194,341154,16209
1612.54,1.330654,330877,15453
1615.53,1.339164,322904,14788
1618.51,1.322785,315116,14986
1621.49,1.323301,307217,14593
1624.47,1.325061,299481,14168
1627.44,1.330480,292112,13648
1630.41,1.320985,284245,13574
1634.36,1.331005,274079,12790
1637.32,1.313368,266916,12972
1640.27,1.313128,259612,12624
1643.22,1.304709,251804,12484
1646.16,1.314694,244348,11839
1649.1,1.319438,236703,11344
1652.04,1.321871,228171,10874
1655.95,1.307056,215408,10622
1658.88,1.316073,204937,9898
1661.8,1.309088,193395,9492
1664.72,1.284408,179728,9337
1667.63,1.303911,163642,8128
1670.54,1.285611,146312,7580
1673.44,1.287617,128451,6624
1677.31,1.267325,105080,5678
1680.21,1.231677,88906,5215
1683.1,1.229634,75033,4422
1685.99,1.302125,63520,3168
1688.87,1.233573,53714,3137
1691.75,1.243328,45653,2607
1694.62,1.207160,39137,2429
1697.49,1.194356,33776,2159
1701.31,1.336924,28175,1297

File: Column 1_078163_20241121_164834.csv
Method:,Column 1,,
Host Date-Time:,21/11/24 @ 16:48:34,,
Header Version:,1,,
System Temp (C):,33.39,,
Detector Temp (C):,29.58,,
Humidity (%):,3.28,,
Lamp PD:,3805,,
Shift Vector Coefficients:,-10.5391,0.0761263,-0.000134223,,
Pixel to Wavelength Coefficients:,1775.68,-0.916766,-0.000235065,,
Serial Number:,5510004,,
Scan Config Name:,Column 1,,
Scan Config Type:,Slew,,
Section 1,,
Start wavelength (nm):,900,,
End wavelength (nm):,1700,,
Pattern Pixel Width (nm):,   7.03,,,,
Exposure (ms):,  0.635,,,,
Digital Resolution:,228,,
Num Repeats:,6,,
PGA Gain:,64,,
Total Measurement Time in sec:,  2.671,,
Wavelength (nm),Absorbance (AU),Reference Signal (unitless),Sample Signal (unitless)
901.51,1.331477,108485,5057
905.376,1.311414,121306,5922
909.237,1.326694,131909,6217
913.095,1.317709,143299,6895
916.948,1.321542,156982,7487
922.079,1.335154,179937,8317
925.923,1.322165,200504,9549
929.762,1.331989,222660,10367
933.597,1.314796,244426,11840
937.427,1.310934,263972,12901
941.254,1.327041,281845,13273
945.076,1.320192,297271,14222
950.165,1.323951,315605,14969
953.978,1.311765,328029,16001
957.786,1.324660,340470,16122
961.59,1.322038,352317,16784
965.389,1.323109,363056,17253
969.185,1.316070,373162,18023
972.976,1.309641,382632,18756
976.763,1.308264,391202,19237
981.806,1.310609,400190,19573
985.583,1.317407,406088,19553
989.355,1.323032,410162,19495
993.124,1.311321,412868,20160
996.888,1.315942,414263,20014
1000.65,1.314465,415476,20141
1004.4,1.306689,415479,20505
1009.41,1.316672,414358,19985
1013.15,1.312306,412923,20117
1016.89,1.314607,411526,19943
1020.63,1.313268,409066,19885
1024.36,1.313328,406777,19771
1028.09,1.313787,404427,19636
1031.82,1.314586,401911,19478
1036.78,1.322126,398410,18976
1040.49,1.310834,396204,19368
1044.2,1.318422,394236,18938
1047.91,1.316228,392042,18928
1051.61,1.317774,389823,18754
1055.31,1.318718,388234,18637
1059,1.316704,387599,18693
1063.92,1.316472,386688,18659
1067.61,1.319408,386598,18529
1071.29,1.325090,387377,18325
1074.96,1.310221,388536,19020
1078.63,1.320644,389855,18632
1082.3,1.324775,391215,18520
1085.96,1.320426,393215,18802
1090.84,1.314125,396270,19225
1094.49,1.319519,398760,19107
1098.14,1.325980,400987,18930
1101.79,1.316698,403477,19459
1105.43,1.328094,406116,19079
1109.06,1.320909,407701,19473
1112.7,1.329288,409859,19202
1117.53,1.322254,412494,19641
1121.15,1.320324,414909,19844
1124.77,1.318473,416559,20008
1128.38,1.327196,418532,19703
1131.99,1.328693,419956,19702
1135.6,1.320379,421946,20178
1139.2,1.318317,423881,20367
1143.99,1.332253,426786,19859
1147.58,1.323334,428617,20358
1151.17,1.320759,431169,20601
1154.75,1.322001,433579,20657
1158.33,1.322920,436264,20741
1161.91,1.315257,439132,21249
1165.48,1.315797,442389,21380
1169.04,1.320402,446101,21332
1173.79,1.326018,451929,21333
1177.34,1.319836,456026,21835
1180.9,1.322475,461306,21954
1184.44,1.323203,467657,22219
1187.99,1.318864,473969,22745
1191.52,1.319761,479856,22980
1195.06,1.328727,487372,22863
1199.76,1.324835,497347,23541
1203.29,1.328941,504311,23646
1206.81,1.326294,511507,24130
1210.33,1.327060,519078,24444
1213.84,1.319151,527163,25281
1217.35,1.330797,534208,24941
1220.85,1.320346,540472,25848
1225.51,1.323583,549929,26105
1229.01,1.327815,556888,26179
1232.5,1.324162,562180,26651
1235.98,1.329644,567975,26588
1239.46,1.327297,574815,27054
1242.94,1.317868,582782,28031
1246.41,1.326878,591476,27865
1251.03,1.332141,604016,28113
1254.5,1.324065,612289,29033
1257.96,1.325875,619125,29235
1261.41,1.327915,624551,29353
1264.86,1.329995,629900,29463
1268.31,1.328722,634345,29758
1271.75,1.330063,638574,29864
1276.33,1.328585,642499,30150
1279.76,1.332700,645905,30024
1283.19,1.335123,648307,29968
1286.61,1.335208,650446,30061
1290.03,1.329296,652132,30552
1293.44,1.328731,653907,30675
1296.85,1.336097,655963,30254
1301.39,1.332188,657349,30592
1304.8,1.333620,657558,30501
1308.19,1.334280,658515,30499
1311.58,1.331081,658804,30738
1314.97,1.333526,659011,30575
1318.36,1.332145,658272,30638
1321.73,1.335867,658022,30365
1326.23,1.334681,657870,30441
1329.6,1.339378,656482,30050
1332.97,1.330584,654926,30592
1336.33,1.333982,653727,30298
1339.69,1.338138,652497,29953
1343.04,1.332273,649913,30240
1346.39,1.330557,647671,30255
1349.73,1.333347,645338,29953
1354.18,1.329306,641175,30038
1357.52,1.334225,638376,29570
1360.85,1.332223,635805,29587
1364.17,1.328697,633413,29716
1367.49,1.328873,631026,29592
1370.81,1.334071,628050,29102
1374.12,1.328814,625034,29315
1378.54,1.326843,620272,29224
1381.84,1.334512,616892,28556
1385.14,1.337199,613613,28229
1388.43,1.329215,611526,28655
1391.72,1.330774,610663,28512
1395.01,1.327914,610634,28699
1398.29,1.324860,611700,28952
1402.66,1.334443,614051,28429
1405.93,1.324937,616268,29163
1409.2,1.334402,617795,28605
1412.46,1.333507,618872,28714
1415.72,1.330930,619795,28928
1418.98,1.334085,620495,28751
1422.23,1.337333,621087,28564
1426.56,1.335820,621375,28677
1429.8,1.333437,621616,28846
1433.04,1.335469,622129,28735
1436.27,1.339377,621526,28450
1439.5,1.334035,621113,28783
1442.72,1.335033,620921,28708
1445.94,1.337995,620270,28483
1450.23,1.335697,618860,28569
1453.44,1.340111,617697,28227
1456.64,1.340412,616264,28142
1459.85,1.337258,614413,28262
1463.04,1.339765,612307,28003
1466.24,1.338551,610032,27977
1469.43,1.338376,607345,27865
1473.67,1.337278,603789,27772
1476.85,1.342473,601175,27323
1480.02,1.336231,597737,27560
1483.19,1.337942,594479,27302
1486.36,1.343267,591232,26822
1489.52,1.338372,587853,26971
1492.68,1.339029,583875,26748
1496.89,1.337730,578062,26561
1500.03,1.343425,574159,26038
1503.18,1.346277,570285,25693
1506.32,1.337383,565444,26002
1509.45,1.344550,560571,25356
1512.58,1.333719,555821,25776
1515.71,1.340701,550344,25115
1519.87,1.339421,543983,24898
1522.99,1.341931,538764,24517
1526.1,1.336603,533692,24586
1529.21,1.344865,527902,23861
1532.32,1.343855,521886,23644
1535.42,1.337313,515888,23727
1538.51,1.336843,509987,23481
1541.6,1.342350,503936,22910
1545.72,1.341710,494694,22523
1548.8,1.345564,488378,22039
1551.88,1.338936,481832,22078
1554.95,1.334044,474989,22011
1558.02,1.339095,467818,21428
1561.08,1.340669,460730,21027
1564.15,1.346101,454170,20470
1568.22,1.340706,444181,20270
1571.27,1.340943,436947,19929
1574.32,1.340297,429598,19623
1577.36,1.334406,422039,19541
1580.4,1.344207,414375,18758
1583.43,1.330220,406354,18997
1586.46,1.341596,398475,18147
1590.49,1.335140,388982,17980
1593.51,1.337604,380708,17498
1596.53,1.336519,372727,17174
1599.54,1.340012,365060,16686
1602.55,1.336529,357543,16474
1605.55,1.329684,349495,16359
1608.55,1.329809,341154,15964
1612.54,1.330429,330877,15461
1615.53,1.332548,322904,15015
1618.51,1.333078,315116,14635
1621.49,1.334454,307217,14223
1624.47,1.324907,299481,14173
1627.44,1.336537,292112,13459
1630.41,1.333975,284245,13174
1634.36,1.313959,274079,13302
1637.32,1.324215,266916,12652
1640.27,1.321429,259612,12385
1643.22,1.335222,251804,11637
1646.16,1.318785,244348,11728
1649.1,1.315095,236703,11458
1652.04,1.304990,228171,11305
1655.95,1.314312,215408,10446
1658.88,1.300812,204937,10252
1661.8,1.299405,193395,9706
1664.72,1.305714,179728,8890
1667.63,1.293615,163642,8323
1670.54,1.265624,146312,7937
1673.44,1.279820,128451,6744
1677.31,1.274575,105080,5584
1680.21,1.269503,88906,4780
1683.1,1.251693,75033,4203
1685.99,1.243962,63520,3622
1688.87,1.285106,53714,2786
1691.75,1.279258,45653,2400
1694.62,1.237136,39137,2267
1697.49,1.273336,33776,1800
1701.31,1.336924,28175,1297

File: Column 1_078166_20241121_164842.csv
Method:,Column 1,,
Host Date-Time:,21/11/24 @ 16:48:42,,
Header Version:,1,,
System Temp (C):,33.41,,
Detector Temp (C):,29.76,,
Humidity (%):,3.33,,
Lamp PD:,3804,,
Shift Vector Coefficients:,-10.5391,0.0761263,-0.000134223,,
Pixel to Wavelength Coefficients:,1775.68,-0.916766,-0.000235065,,
Serial Number:,5510004,,
Scan Config Name:,Column 1,,
Scan Config Type:,Slew,,
Section 1,,
Start wavelength (nm):,900,,
End wavelength (nm):,1700,,
Pattern Pixel Width (nm):,   7.03,,,,
Exposure (ms):,  0.635,,,,
Digital Resolution:,228,,
Num Repeats:,6,,
PGA Gain:,64,,
Total Measurement Time in sec:,  2.726,,
Wavelength (nm),Absorbance (AU),Reference Signal (unitless),Sample Signal (unitless)
901.51,1.300570,108485,5430
905.376,1.315688,121306,5864
909.237,1.335229,131909,6096
913.095,1.329003,143299,6718
916.948,1.313610,156982,7625
922.079,1.318004,179937,8652
925.923,1.321211,200504,9570
929.762,1.324884,222660,10538
933.597,1.322045,244426,11644
937.427,1.312013,263972,12869
941.254,1.304876,281845,13968
945.076,1.316452,297271,14345
950.165,1.310131,315605,15453
953.978,1.309329,328029,16091
957.786,1.319598,340470,16311
961.59,1.314344,352317,17084
965.389,1.308847,363056,17829
969.185,1.303296,373162,18561
972.976,1.310615,382632,18714
976.763,1.307362,391202,19277
981.806,1.301084,400190,20007
985.583,1.303871,406088,20172
989.355,1.312817,410162,19959
993.124,1.305288,412868,20442
996.888,1.306583,414263,20450
1000.65,1.306284,415476,20524
1004.4,1.305315,415479,20570
1009.41,1.307980,414358,20389
1013.15,1.307753,412923,20329
1016.89,1.313020,411526,20016
1020.63,1.314405,409066,19833
1024.36,1.307979,406777,20016
1028.09,1.306397,404427,19973
1031.82,1.313161,401911,19542
1036.78,1.309228,398410,19548
1040.49,1.312429,396204,19297
1044.2,1.311709,394236,19233
1047.91,1.315609,392042,18955
1051.61,1.309925,389823,19096
1055.31,1.311370,388234,18955
1059,1.317960,387599,18639
1063.92,1.319860,386688,18514
1067.61,1.311764,386598,18858
1071.29,1.314115,387377,18794
1074.96,1.312625,388536,18915
1078.63,1.310940,389855,19053
1082.3,1.315150,391215,18935
1085.96,1.312416,393215,19152
1090.84,1.316594,396270,19116
1094.49,1.312574,398760,19415
1098.14,1.325338,400987,18958
1101.79,1.315428,403477,19516
1105.43,1.321207,406116,19384
1109.06,1.309399,407701,19996
1112.7,1.317662,409859,19723
1117.53,1.318270,412494,19822
1121.15,1.313376,414909,20164
1124.77,1.323670,416559,19770
1128.38,1.321438,418532,19966
1131.99,1.320721,419956,20067
1135.6,1.318789,421946,20252
1139.2,1.319406,423881,20316
1143.99,1.315122,426786,20658
1147.58,1.326245,428617,20222
1151.17,1.317881,431169,20738
1154.75,1.321749,433579,20669
1158.33,1.320518,436264,20856
1161.91,1.315686,439132,21228
1165.48,1.317731,442389,21285
1169.04,1.314196,446101,21639
1173.79,1.317232,451929,21769
1177.34,1.310490,456026,22310
1180.9,1.316893,461306,22238
1184.44,1.323477,467657,22205
1187.99,1.320069,473969,22682
1191.52,1.315586,479856,23202
1195.06,1.317644,487372,23454
1199.76,1.319463,497347,23834
1203.29,1.325702,504311,23823
1206.81,1.318889,511507,24545
1210.33,1.321657,519078,24750
1213.84,1.325257,527163,24928
1217.35,1.324796,534208,25288
1220.85,1.320413,540472,25844
1225.51,1.318571,549929,26408
1229.01,1.320658,556888,26614
1232.5,1.326187,562180,26527
1235.98,1.319011,567975,27247
1239.46,1.327441,574815,27045
1242.94,1.322165,582782,27755
1246.41,1.323973,591476,28052
1251.03,1.327807,604016,28395
1254.5,1.329271,612289,28687
1257.96,1.330490,619125,28926
1261.41,1.328834,624551,29291
1264.86,1.327027,629900,29665
1268.31,1.326567,634345,29906
1271.75,1.328438,638574,29976
1276.33,1.330650,642499,30007
1279.76,1.327552,645905,30382
1283.19,1.331443,648307,30223
1286.61,1.327561,650446,30595
1290.03,1.328770,652132,30589
1293.44,1.335495,653907,30201
1296.85,1.331754,655963,30558
1301.39,1.330403,657349,30718
1304.8,1.331390,657558,30658
1308.19,1.332603,658515,30617
1311.58,1.327913,658804,30963
1314.97,1.334735,659011,30490
1318.36,1.335432,658272,30407
1321.73,1.332051,658022,30633
1326.23,1.335024,657870,30417
1329.6,1.334764,656482,30371
1332.97,1.337236,654926,30127
1336.33,1.329023,653727,30646
1339.69,1.329070,652497,30585
1343.04,1.331255,649913,30311
1346.39,1.328981,647671,30365
1349.73,1.335469,645338,29807
1354.18,1.333052,641175,29780
1357.52,1.325631,638376,30161
1360.85,1.326043,635805,30011
1364.17,1.335620,633413,29246
1367.49,1.331626,631026,29405
1370.81,1.334027,628050,29105
1374.12,1.333206,625034,29020
1378.54,1.324900,620272,29355
1381.84,1.332524,616892,28687
1385.14,1.327914,613613,28839
1388.43,1.332852,611526,28416
1391.72,1.334814,610663,28248
1395.01,1.327279,610634,28741
1398.29,1.331983,611700,28481
1402.66,1.329234,614051,28772
1405.93,1.331328,616268,28737
1409.2,1.331935,617795,28768
1412.46,1.332948,618872,28751
1415.72,1.329012,619795,29056
1418.98,1.336008,620495,28624
1422.23,1.329573,621087,29079
1426.56,1.328447,621375,29168
1429.8,1.331694,621616,28962
1433.04,1.335968,622129,28702
1436.27,1.333374,621526,28846
1439.5,1.328681,621113,29140
1442.72,1.331073,620921,28971
1445.94,1.332480,620270,28847
1450.23,1.335849,618860,28559
1453.44,1.335778,617697,28510
1456.64,1.334587,616264,28522
1459.85,1.336904,614413,28285
1463.04,1.340308,612307,27968
1466.24,1.338381,610032,27988
1469.43,1.337209,607345,27940
1473.67,1.333758,603789,27998
1476.85,1.331920,601175,27995
1480.02,1.333717,597737,27720
1483.19,1.331563,594479,27706
1486.36,1.335245,591232,27322
1489.52,1.336364,587853,27096
1492.68,1.345506,583875,26352
1496.89,1.328509,578062,27131
1500.03,1.339043,574159,26302
1503.18,1.328719,570285,26753
1506.32,1.338688,565444,25924
1509.45,1.342926,560571,25451
1512.58,1.335543,555821,25668
1515.71,1.340234,550344,25142
1519.87,1.339700,543983,24882
1522.99,1.336929,538764,24801
1526.1,1.339101,533692,24445
1529.21,1.342035,527902,24017
1532.32,1.339105,521886,23904
1535.42,1.340048,515888,23578
1538.51,1.332536,509987,23715
1541.6,1.337187,503936,23184
1545.72,1.341036,494694,22558
1548.8,1.336747,488378,22491
1551.88,1.332493,481832,22408
1554.95,1.336140,474989,21905
1558.02,1.328464,467818,21959
1561.08,1.333114,460730,21396
1564.15,1.337613,454170,20874
1568.22,1.338164,444181,20389
1571.27,1.329290,436947,20471
1574.32,1.335608,429598,19836
1577.36,1.337439,422039,19405
1580.4,1.336428,414375,19097
1583.43,1.346406,406354,18302
1586.46,1.326382,398475,18794
1590.49,1.349680,388982,17388
1593.51,1.331345,380708,17752
1596.53,1.330966,372727,17395
1599.54,1.318929,365060,17516
1602.55,1.328071,357543,16798
1605.55,1.331973,349495,16273
1608.55,1.326772,341154,16076
1612.54,1.319966,330877,15838
1615.53,1.332895,322904,15003
1618.51,1.307803,315116,15512
1621.49,1.317037,307217,14805
1624.47,1.327427,299481,14091
1627.44,1.319328,292112,14003
1630.41,1.328928,284245,13328
1634.36,1.321467,274079,13074
1637.32,1.321444,266916,12733
1640.27,1.309394,259612,12733
1643.22,1.309150,251804,12357
1646.16,1.316274,244348,11796
1649.1,1.300156,236703,11859
1652.04,1.322231,228171,10865
1655.95,1.300965,215408,10772
1658.88,1.287792,204937,10564
1661.8,1.296640,193395,9768
1664.72,1.276572,179728,9507
1667.63,1.295078,163642,8295
1670.54,1.287506,146312,7547
1673.44,1.273174,128451,6848
1677.31,1.245037,105080,5977
1680.21,1.282226,88906,4642
1683.1,1.248912,75033,4230
1685.99,1.232484,63520,3719
1688.87,1.290439,53714,2752
1691.75,1.281981,45653,2385
1694.62,1.231049,39137,2299
1697.49,1.257231,33776,1868
1701.31,1.223522,28175,1684