Folder: textile_sorting_NIRSCAN_/ML/samples/unknown (part 80)

File: Column 1_078563_20241121_170850.csv
Method:,Column 1,,
Host Date-Time:,21/11/24 @ 17:8:50,,
Header Version:,1,,
System Temp (C):,35.79,,
Detector Temp (C):,34.41,,
Humidity (%):,1.17,,
Lamp PD:,3799,,
Shift Vector Coefficients:,-10.5391,0.0761263,-0.000134223,,
Pixel to Wavelength Coefficients:,1775.68,-0.916766,-0.000235065,,
Serial Number:,5510004,,
Scan Config Name:,Column 1,,
Scan Config Type:,Slew,,
Section 1,,
Start wavelength (nm):,900,,
End wavelength (nm):,1700,,
Pattern Pixel Width (nm):,   7.03,,,,
Exposure (ms):,  0.635,,,,
Digital Resolution:,228,,
Num Repeats:,6,,
PGA Gain:,64,,
Total Measurement Time in sec:,  2.724,,
Wavelength (nm),Absorbance (AU),Reference Signal (unitless),Sample Signal (unitless)
901.51,1.288735,108485,5580
905.376,1.321879,121306,5781
909.237,1.343065,131909,5987
913.095,1.321505,143299,6835
916.948,1.305988,156982,7760
922.079,1.315701,179937,8698
925.923,1.323486,200504,9520
929.762,1.315306,222660,10773
933.597,1.320742,244426,11679
937.427,1.329469,263972,12362
941.254,1.326551,281845,13288
945.076,1.316240,297271,14352
950.165,1.319420,315605,15126
953.978,1.312064,328029,15990
957.786,1.312861,340470,16566
961.59,1.307309,352317,17363
965.389,1.303015,363056,18070
969.185,1.297462,373162,18812
972.976,1.306182,382632,18906
976.763,1.305855,391202,19344
981.806,1.305031,400190,19826
985.583,1.301981,406088,20260
989.355,1.312121,410162,19991
993.124,1.311235,412868,20164
996.888,1.304824,414263,20533
1000.65,1.301005,415476,20775
1004.4,1.300632,415479,20793
1009.41,1.302287,414358,20658
1013.15,1.301391,412923,20629
1016.89,1.306153,411526,20335
1020.63,1.301376,409066,20437
1024.36,1.297666,406777,20497
1028.09,1.304055,404427,20081
1031.82,1.308299,401911,19762
1036.78,1.303621,398410,19802
1040.49,1.298782,396204,19913
1044.2,1.305099,394236,19528
1047.91,1.308744,392042,19257
1051.61,1.302037,389823,19446
1055.31,1.304212,388234,19270
1059,1.308853,387599,19034
1063.92,1.306851,386688,19077
1067.61,1.309857,386598,18941
1071.29,1.304674,387377,19207
1074.96,1.312120,388536,18937
1078.63,1.307873,389855,19188
1082.3,1.309725,391215,19173
1085.96,1.318536,393215,18884
1090.84,1.311917,396270,19323
1094.49,1.310543,398760,19506
1098.14,1.311074,400987,19591
1101.79,1.305462,403477,19969
1105.43,1.318749,406116,19494
1109.06,1.308097,407701,20056
1112.7,1.315597,409859,19817
1117.53,1.308328,412494,20281
1121.15,1.316077,414909,20039
1124.77,1.316589,416559,20095
1128.38,1.318144,418532,20118
1131.99,1.316779,419956,20250
1135.6,1.316415,421946,20363
1139.2,1.315490,423881,20500
1143.99,1.325224,426786,20183
1147.58,1.313964,428617,20802
1151.17,1.311313,431169,21054
1154.75,1.316195,433579,20935
1158.33,1.314254,436264,21159
1161.91,1.309753,439132,21520
1165.48,1.317119,442389,21315
1169.04,1.312613,446101,21718
1173.79,1.318671,451929,21697
1177.34,1.313106,456026,22176
1180.9,1.322060,461306,21975
1184.44,1.313921,467657,22699
1187.99,1.312307,473969,23091
1191.52,1.316560,479856,23150
1195.06,1.316460,487372,23518
1199.76,1.316430,497347,24001
1203.29,1.309246,504311,24743
1206.81,1.319349,511507,24519
1210.33,1.309391,519078,25459
1213.84,1.323970,527163,25002
1217.35,1.321187,534208,25499
1220.85,1.316782,540472,26061
1225.51,1.317405,549929,26479
1229.01,1.316339,556888,26880
1232.5,1.321449,562180,26818
1235.98,1.318373,567975,27287
1239.46,1.313100,574815,27953
1242.94,1.314965,582782,28219
1246.41,1.320750,591476,28261
1251.03,1.318112,604016,29036
1254.5,1.319792,612289,29320
1257.96,1.319973,619125,29635
1261.41,1.323514,624551,29652
1264.86,1.322078,629900,30005
1268.31,1.322721,634345,30172
1271.75,1.320101,638574,30557
1276.33,1.324171,642499,30458
1279.76,1.322380,645905,30746
1283.19,1.321415,648307,30929
1286.61,1.322986,650446,30919
1290.03,1.318694,652132,31307
1293.44,1.323343,653907,31058
1296.85,1.329543,655963,30714
1301.39,1.324729,657349,31122
1304.8,1.323891,657558,31192
1308.19,1.328959,658515,30875
1311.58,1.327717,658804,30977
1314.97,1.326817,659011,31051
1318.36,1.326484,658272,31040
1321.73,1.324155,658022,31195
1326.23,1.325463,657870,31094
1329.6,1.328362,656482,30822
1332.97,1.322149,654926,31192
1336.33,1.325972,653727,30862
1339.69,1.320494,652497,31195
1343.04,1.332374,649913,30233
1346.39,1.320722,647671,30948
1349.73,1.328674,645338,30277
1354.18,1.327157,641175,30187
1357.52,1.322260,638376,30396
1360.85,1.328176,635805,29864
1364.17,1.322558,633413,30139
1367.49,1.324492,631026,29892
1370.81,1.319558,628050,30091
1374.12,1.325449,625034,29543
1378.54,1.319343,620272,29733
1381.84,1.321153,616892,29448
1385.14,1.322452,613613,29204
1388.43,1.324466,611526,28970
1391.72,1.322118,610663,29086
1395.01,1.322784,610634,29040
1398.29,1.323811,611700,29022
1402.66,1.319768,614051,29406
1405.93,1.328526,616268,28923
1409.2,1.324081,617795,29293
1412.46,1.323416,618872,29389
1415.72,1.326300,619795,29238
1418.98,1.330580,620495,28984
1422.23,1.329364,621087,29093
1426.56,1.335593,621375,28692
1429.8,1.326818,621616,29289
1433.04,1.326998,622129,29301
1436.27,1.332832,621526,28882
1439.5,1.329487,621113,29086
1442.72,1.331073,620921,28971
1445.94,1.329121,620270,29071
1450.23,1.332396,618860,28787
1453.44,1.333727,617697,28645
1456.64,1.330073,616264,28820
1459.85,1.330912,614413,28678
1463.04,1.332521,612307,28474
1466.24,1.332723,610032,28355
1469.43,1.333079,607345,28207
1473.67,1.332906,603789,28053
1476.85,1.339431,601175,27515
1480.02,1.328825,597737,28034
1483.19,1.329904,594479,27812
1486.36,1.334372,591232,27377
1489.52,1.331154,587853,27423
1492.68,1.324217,583875,27676
1496.89,1.332755,578062,26867
1500.03,1.330768,574159,26808
1503.18,1.335212,570285,26356
1506.32,1.329357,565444,26487
1509.45,1.338478,560571,25713
1512.58,1.325475,555821,26270
1515.71,1.333209,550344,25552
1519.87,1.354416,543983,24053
1522.99,1.333684,538764,24987
1526.1,1.326839,533692,25145
1529.21,1.332927,527902,24526
1532.32,1.330275,521886,24395
1535.42,1.333703,515888,23925
1538.51,1.326426,509987,24051
1541.6,1.330606,503936,23538
1545.72,1.334938,494694,22877
1548.8,1.329775,488378,22855
1551.88,1.337110,481832,22171
1554.95,1.335249,474989,21950
1558.02,1.332977,467818,21732
1561.08,1.327908,460730,21654
1564.15,1.332237,454170,21134
1568.22,1.336103,444181,20486
1571.27,1.334197,436947,20241
1574.32,1.331772,429598,20012
1577.36,1.331592,422039,19668
1580.4,1.330286,414375,19369
1583.43,1.323325,406354,19301
1586.46,1.331449,398475,18576
1590.49,1.324357,388982,18432
1593.51,1.325416,380708,17996
1596.53,1.329073,372727,17471
1599.54,1.326912,365060,17197
1602.55,1.324620,357543,16932
1605.55,1.320751,349495,16699
1608.55,1.334486,341154,15793
1612.54,1.321009,330877,15800
1615.53,1.313063,322904,15704
1618.51,1.325605,315116,14889
1621.49,1.324941,307217,14538
1624.47,1.311600,299481,14614
1627.44,1.303942,292112,14508
1630.41,1.306295,284245,14041
1634.36,1.313502,274079,13316
1637.32,1.307284,266916,13155
1640.27,1.315508,259612,12555
1643.22,1.316272,251804,12156
1646.16,1.307130,244348,12047
1649.1,1.302285,236703,11801
1652.04,1.296770,228171,11521
1655.95,1.295835,215408,10900
1658.88,1.277233,204937,10824
1661.8,1.282640,193395,10088
1664.72,1.266012,179728,9741
1667.63,1.252426,163642,9151
1670.54,1.237243,146312,8473
1673.44,1.224339,128451,7663
1677.31,1.194086,105080,6721
1680.21,1.207937,88906,5508
1683.1,1.127064,75033,5600
1685.99,1.133687,63520,4669
1688.87,1.167200,53714,3655
1691.75,1.124682,45653,3426
1694.62,1.197786,39137,2482
1697.49,1.229319,33776,1992
1701.31,1.240617,28175,1619

File: Column 1_078567_20241121_170902.csv
Method:,Column 1,,
Host Date-Time:,21/11/24 @ 17:9:2,,
Header Version:,1,,
System Temp (C):,36.09,,
Detector Temp (C):,34.46,,
Humidity (%):,1.08,,
Lamp PD:,3799,,
Shift Vector Coefficients:,-10.5391,0.0761263,-0.000134223,,
Pixel to Wavelength Coefficients:,1775.68,-0.916766,-0.000235065,,
Serial Number:,5510004,,
Scan Config Name:,Column 1,,
Scan Config Type:,Slew,,
Section 1,,
Start wavelength (nm):,900,,
End wavelength (nm):,1700,,
Pattern Pixel Width (nm):,   7.03,,,,
Exposure (ms):,  0.635,,,,
Digital Resolution:,228,,
Num Repeats:,6,,
PGA Gain:,64,,
Total Measurement Time in sec:,  2.710,,
Wavelength (nm),Absorbance (AU),Reference Signal (unitless),Sample Signal (unitless)
901.51,1.301691,108485,5416
905.376,1.283646,121306,6313
909.237,1.311119,131909,6444
913.095,1.299454,143299,7191
916.948,1.323053,156982,7461
922.079,1.314305,179937,8726
925.923,1.326094,200504,9463
929.762,1.326287,222660,10504
933.597,1.320705,244426,11680
937.427,1.327017,263972,12432
941.254,1.305530,281845,13947
945.076,1.311605,297271,14506
950.165,1.306465,315605,15584
953.978,1.323903,328029,15560
957.786,1.306175,340470,16823
961.59,1.295928,352317,17824
965.389,1.302703,363056,18083
969.185,1.297924,373162,18792
972.976,1.303342,382632,19030
976.763,1.308399,391202,19231
981.806,1.297625,400190,20167
985.583,1.301831,406088,20267
989.355,1.302963,410162,20417
993.124,1.302176,412868,20589
996.888,1.301789,414263,20677
1000.65,1.300336,415476,20807
1004.4,1.301761,415479,20739
1009.41,1.302813,414358,20633
1013.15,1.307006,412923,20364
1016.89,1.300804,411526,20587
1020.63,1.301143,409066,20448
1024.36,1.309806,406777,19932
1028.09,1.297934,404427,20366
1031.82,1.300610,401911,20115
1036.78,1.305335,398410,19724
1040.49,1.309379,396204,19433
1044.2,1.303279,394236,19610
1047.91,1.307955,392042,19292
1051.61,1.305423,389823,19295
1055.31,1.300956,388234,19415
1059,1.311140,387599,18934
1063.92,1.305441,386688,19139
1067.61,1.305522,386598,19131
1071.29,1.306805,387377,19113
1074.96,1.305204,388536,19241
1078.63,1.302229,389855,19439
1082.3,1.310133,391215,19155
1085.96,1.313688,393215,19096
1090.84,1.311400,396270,19346
1094.49,1.303674,398760,19817
1098.14,1.312739,400987,19516
1101.79,1.312766,403477,19636
1105.43,1.312819,406116,19762
1109.06,1.304539,407701,20221
1112.7,1.313345,409859,19920
1117.53,1.312978,412494,20065
1121.15,1.311957,414909,20230
1124.77,1.314003,416559,20215
1128.38,1.298745,418532,21037
1131.99,1.316929,419956,20243
1135.6,1.310884,421946,20624
1139.2,1.312934,423881,20621
1143.99,1.311938,426786,20810
1147.58,1.310223,428617,20982
1151.17,1.316438,431169,20807
1154.75,1.312333,433579,21122
1158.33,1.309417,436264,21396
1161.91,1.313441,439132,21338
1165.48,1.306174,442389,21859
1169.04,1.312553,446101,21721
1173.79,1.301981,451929,22547
1177.34,1.314047,456026,22128
1180.9,1.307619,461306,22718
1184.44,1.316280,467657,22576
1187.99,1.316256,473969,22882
1191.52,1.315249,479856,23220
1195.06,1.312563,487372,23730
1199.76,1.311769,497347,24260
1203.29,1.322144,504311,24019
1206.81,1.316612,511507,24674
1210.33,1.317623,519078,24981
1213.84,1.313688,527163,25601
1217.35,1.322006,534208,25451
1220.85,1.314903,540472,26174
1225.51,1.319625,549929,26344
1229.01,1.321442,556888,26566
1232.5,1.315434,562180,27192
1235.98,1.314176,567975,27552
1239.46,1.318965,574815,27578
1242.94,1.313275,582782,28329
1246.41,1.315510,591476,28604
1251.03,1.314566,604016,29274
1254.5,1.319896,612289,29313
1257.96,1.322693,619125,29450
1261.41,1.320115,624551,29885
1264.86,1.321875,629900,30019
1268.31,1.321772,634345,30238
1271.75,1.322466,638574,30391
1276.33,1.327391,642499,30233
1279.76,1.318163,645905,31046
1283.19,1.328850,648307,30404
1286.61,1.321164,650446,31049
1290.03,1.323044,652132,30995
1293.44,1.320360,653907,31272
1296.85,1.320850,655963,31335
1301.39,1.326645,657349,30985
1304.8,1.324281,657558,31164
1308.19,1.326043,658515,31083
1311.58,1.329360,658804,30860
1314.97,1.322392,659011,31369
1318.36,1.327282,658272,30983
1321.73,1.328085,658022,30914
1326.23,1.326120,657870,31047
1329.6,1.323458,656482,31172
1332.97,1.331409,654926,30534
1336.33,1.325255,653727,30913
1339.69,1.323862,652497,30954
1343.04,1.316562,649913,31354
1346.39,1.321284,647671,30908
1349.73,1.318552,645338,30991
1354.18,1.322051,641175,30544
1357.52,1.321703,638376,30435
1360.85,1.317872,635805,30581
1364.17,1.324450,633413,30008
1367.49,1.317717,631026,30362
1370.81,1.322846,628050,29864
1374.12,1.323308,625034,29689
1378.54,1.324279,620272,29397
1381.84,1.323090,616892,29317
1385.14,1.325033,613613,29031
1388.43,1.323762,611526,29017
1391.72,1.322970,610663,29029
1395.01,1.321813,610634,29105
1398.29,1.321662,611700,29166
1402.66,1.323685,614051,29142
1405.93,1.320154,616268,29486
1409.2,1.325060,617795,29227
1412.46,1.321690,618872,29506
1415.72,1.330180,619795,28978
1418.98,1.332894,620495,28830
1422.23,1.324746,621087,29404
1426.56,1.328462,621375,29167
1429.8,1.329958,621616,29078
1433.04,1.331962,622129,28968
1436.27,1.324227,621526,29460
1439.5,1.324646,621113,29412
1442.72,1.332605,620921,28869
1445.94,1.331984,620270,28880
1450.23,1.329524,618860,28978
1453.44,1.324457,617697,29263
1456.64,1.329862,616264,28834
1459.85,1.326407,614413,28977
1463.04,1.324511,612307,29004
1466.24,1.329154,610032,28589
1469.43,1.330117,607345,28400
1473.67,1.331175,603789,28165
1476.85,1.336960,601175,27672
1480.02,1.326800,597737,28165
1483.19,1.326328,594479,28042
1486.36,1.328354,591232,27759
1489.52,1.327589,587853,27649
1492.68,1.329903,583875,27316
1496.89,1.334488,578062,26760
1500.03,1.334837,574159,26558
1503.18,1.334061,570285,26426
1506.32,1.325456,565444,26726
1509.45,1.325467,560571,26495
1512.58,1.328294,555821,26100
1515.71,1.333464,550344,25537
1519.87,1.332293,543983,25310
1522.99,1.325080,538764,25487
1526.1,1.321091,533692,25480
1529.21,1.333245,527902,24508
1532.32,1.334209,521886,24175
1535.42,1.331892,515888,24025
1538.51,1.329016,509987,23908
1541.6,1.322037,503936,24007
1545.72,1.333516,494694,22952
1548.8,1.329414,488378,22874
1551.88,1.322208,481832,22945
1554.95,1.333590,474989,22034
1558.02,1.327339,467818,22016
1561.08,1.328209,460730,21639
1564.15,1.329022,454170,21291
1568.22,1.329142,444181,20817
1571.27,1.330586,436947,20410
1574.32,1.324690,429598,20341
1577.36,1.327986,422039,19832
1580.4,1.328519,414375,19448
1583.43,1.327712,406354,19107
1586.46,1.329909,398475,18642
1590.49,1.316165,388982,18783
1593.51,1.321931,380708,18141
1596.53,1.327510,372727,17534
1599.54,1.317000,365060,17594
1602.55,1.326213,357543,16870
1605.55,1.312966,349495,17001
1608.55,1.318822,341154,16373
1612.54,1.324321,330877,15680
1615.53,1.318714,322904,15501
1618.51,1.307775,315116,15513
1621.49,1.322795,307217,14610
1624.47,1.313894,299481,14537
1627.44,1.303134,292112,14535
1630.41,1.311272,284245,13881
1634.36,1.311517,274079,13377
1637.32,1.312632,266916,12994
1640.27,1.303264,259612,12914
1643.22,1.315665,251804,12173
1646.16,1.313631,244348,11868
1649.1,1.308325,236703,11638
1652.04,1.302118,228171,11380
1655.95,1.292106,215408,10994
1658.88,1.295088,204937,10388
1661.8,1.277505,193395,10208
1664.72,1.266503,179728,9730
1667.63,1.252047,163642,9159
1670.54,1.224067,146312,8734
1673.44,1.203211,128451,8045
1677.31,1.167579,105080,7144
1680.21,1.158013,88906,6179
1683.1,1.145602,75033,5366
1685.99,1.165021,63520,4344
1688.87,1.125645,53714,4022
1691.75,1.177597,45653,3033
1694.62,1.111862,39137,3025
1697.49,1.144076,33776,2424
1701.31,1.150139,28175,1994

File: Column 1_078568_20241121_170905.csv
Method:,Column 1,,
Host Date-Time:,21/11/24 @ 17:9:5,,
Header Version:,1,,
System Temp (C):,36.14,,
Detector Temp (C):,34.51,,
Humidity (%):,1.08,,
Lamp PD:,3798,,
Shift Vector Coefficients:,-10.5391,0.0761263,-0.000134223,,
Pixel to Wavelength Coefficients:,1775.68,-0.916766,-0.000235065,,
Serial Number:,5510004,,
Scan Config Name:,Column 1,,
Scan Config Type:,Slew,,
Section 1,,
Start wavelength (nm):,900,,
End wavelength (nm):,1700,,
Pattern Pixel Width (nm):,   7.03,,,,
Exposure (ms):,  0.635,,,,
Digital Resolution:,228,,
Num Repeats:,6,,
PGA Gain:,64,,
Total Measurement Time in sec:,  2.726,,
Wavelength (nm),Absorbance (AU),Reference Signal (unitless),Sample Signal (unitless)
901.51,1.332595,108485,5044
905.376,1.323686,121306,5757
909.237,1.313484,131909,6409
913.095,1.325078,143299,6779
916.948,1.292163,156982,8011
922.079,1.302134,179937,8974
925.923,1.325086,200504,9485
929.762,1.313214,222660,10825
933.597,1.314686,244426,11843
937.427,1.321187,263972,12600
941.254,1.328188,281845,13238
945.076,1.310528,297271,14542
950.165,1.317700,315605,15186
953.978,1.309896,328029,16070
957.786,1.303704,340470,16919
961.59,1.316076,352317,17016
965.389,1.310408,363056,17765
969.185,1.303553,373162,18550
972.976,1.309687,382632,18754
976.763,1.307114,391202,19288
981.806,1.305316,400190,19813
985.583,1.299800,406088,20362
989.355,1.302645,410162,20432
993.124,1.307888,412868,20320
996.888,1.308861,414263,20343
1000.65,1.302869,415476,20686
1004.4,1.306520,415479,20513
1009.41,1.307682,414358,20403
1013.15,1.305898,412923,20416
1016.89,1.303216,411526,20473
1020.63,1.303635,409066,20331
1024.36,1.305318,406777,20139
1028.09,1.305658,404427,20007
1031.82,1.303861,401911,19965
1036.78,1.308739,398410,19570
1040.49,1.308285,396204,19482
1044.2,1.306591,394236,19461
1047.91,1.307730,392042,19302
1051.61,1.309948,389823,19095
1055.31,1.302054,388234,19366
1059,1.307895,387599,19076
1063.92,1.310233,386688,18929
1067.61,1.303642,386598,19214
1071.29,1.306623,387377,19121
1074.96,1.310015,388536,19029
1078.63,1.312470,389855,18986
1082.3,1.309069,391215,19202
1085.96,1.309433,393215,19284
1090.84,1.314170,396270,19223
1094.49,1.310833,398760,19493
1098.14,1.315060,400987,19412
1101.79,1.307686,403477,19867
1105.43,1.304936,406116,20124
1109.06,1.313348,407701,19815
1112.7,1.315071,409859,19841
1117.53,1.316565,412494,19900
1121.15,1.314908,414909,20093
1124.77,1.312266,416559,20296
1128.38,1.317454,418532,20150
1131.99,1.323065,419956,19959
1135.6,1.325924,421946,19922
1139.2,1.314622,423881,20541
1143.99,1.310043,426786,20901
1147.58,1.318772,428617,20573
1151.17,1.320233,431169,20626
1154.75,1.322295,433579,20643
1158.33,1.318752,436264,20941
1161.91,1.317244,439132,21152
1165.48,1.311170,442389,21609
1169.04,1.320687,446101,21318
1173.79,1.314448,451929,21909
1177.34,1.315227,456026,22068
1180.9,1.314401,461306,22366
1184.44,1.311745,467657,22813
1187.99,1.317777,473969,22802
1191.52,1.316147,479856,23172
1195.06,1.319555,487372,23351
1199.76,1.315617,497347,24046
1203.29,1.319404,504311,24171
1206.81,1.318694,511507,24556
1210.33,1.317241,519078,25003
1213.84,1.323241,527163,25044
1217.35,1.327259,534208,25145
1220.85,1.317015,540472,26047
1225.51,1.318637,549929,26404
1229.01,1.317552,556888,26805
1232.5,1.316522,562180,27124
1235.98,1.320831,567975,27133
1239.46,1.319186,574815,27564
1242.94,1.316290,582782,28133
1246.41,1.314964,591476,28640
1251.03,1.319700,604016,28930
1254.5,1.314756,612289,29662
1257.96,1.321633,619125,29522
1261.41,1.327147,624551,29405
1264.86,1.326647,629900,29691
1268.31,1.322750,634345,30170
1271.75,1.326789,638574,30090
1276.33,1.316385,642499,31009
1279.76,1.321829,645905,30785
1283.19,1.325010,648307,30674
1286.61,1.323464,650446,30885
1290.03,1.327042,652132,30711
1293.44,1.326430,653907,30838
1296.85,1.321668,655963,31276
1301.39,1.329316,657349,30795
1304.8,1.326853,657558,30980
1308.19,1.324383,658515,31202
1311.58,1.330149,658804,30804
1314.97,1.327951,659011,30970
1318.36,1.326722,658272,31023
1321.73,1.327468,658022,30958
1326.23,1.329434,657870,30811
1329.6,1.330495,656482,30671
1332.97,1.323599,654926,31088
1336.33,1.322357,653727,31120
1339.69,1.333394,652497,30282
1343.04,1.337315,649913,29891
1346.39,1.326912,647671,30510
1349.73,1.329536,645338,30217
1354.18,1.328237,641175,30112
1357.52,1.328593,638376,29956
1360.85,1.324613,635805,30110
1364.17,1.329487,633413,29662
1367.49,1.323230,631026,29979
1370.81,1.325282,628050,29697
1374.12,1.320494,625034,29882
1378.54,1.325566,620272,29310
1381.84,1.317102,616892,29724
1385.14,1.320597,613613,29329
1388.43,1.327475,611526,28770
1391.72,1.323538,610663,28991
1395.01,1.322441,610634,29063
1398.29,1.327629,611700,28768
1402.66,1.318721,614051,29477
1405.93,1.326459,616268,29061
1409.2,1.330277,617795,28878
1412.46,1.324807,618872,29295
1415.72,1.329431,619795,29028
1418.98,1.329577,620495,29051
1422.23,1.326893,621087,29259
1426.56,1.326412,621375,29305
1429.8,1.327991,621616,29210
1433.04,1.336771,622129,28649
1436.27,1.328151,621526,29195
1439.5,1.327684,621113,29207
1442.72,1.331388,620921,28950
1445.94,1.332872,620270,28821
1450.23,1.327491,618860,29114
1453.44,1.329322,617697,28937
1456.64,1.330691,616264,28779
1459.85,1.330246,614413,28722
1463.04,1.334003,612307,28377
1466.24,1.333351,610032,28314
1469.43,1.328027,607345,28537
1473.67,1.335826,603789,27865
1476.85,1.327660,601175,28271
1480.02,1.334721,597737,27656
1483.19,1.330623,594479,27766
1486.36,1.334642,591232,27360
1489.52,1.327856,587853,27632
1492.68,1.332774,583875,27136
1496.89,1.332400,578062,26889
1500.03,1.335066,574159,26544
1503.18,1.334669,570285,26389
1506.32,1.332913,565444,26271
1509.45,1.333457,560571,26012
1512.58,1.329678,555821,26017
1515.71,1.333532,550344,25533
1519.87,1.331916,543983,25332
1522.99,1.333389,538764,25004
1526.1,1.333768,533692,24747
1529.21,1.330120,527902,24685
1532.32,1.334569,521886,24155
1535.42,1.330863,515888,24082
1538.51,1.335679,509987,23544
1541.6,1.339554,503936,23058
1545.72,1.321425,494694,23600
1548.8,1.332004,488378,22738
1551.88,1.327962,481832,22643
1554.95,1.334064,474989,22010
1558.02,1.333317,467818,21715
1561.08,1.333825,460730,21361
1564.15,1.333884,454170,21054
1568.22,1.337526,444181,20419
1571.27,1.332847,436947,20304
1574.32,1.328830,429598,20148
1577.36,1.328030,422039,19830
1580.4,1.324517,414375,19628
1583.43,1.327508,406354,19116
1586.46,1.323710,398475,18910
1590.49,1.326270,388982,18351
1593.51,1.326382,380708,17956
1596.53,1.319509,372727,17860
1599.54,1.325978,365060,17234
1602.55,1.331601,357543,16662
1605.55,1.320672,349495,16702
1608.55,1.334101,341154,15807
1612.54,1.316498,330877,15965
1615.53,1.321948,322904,15386
1618.51,1.315485,315116,15240
1621.49,1.321726,307217,14646
1624.47,1.320942,299481,14303
1627.44,1.325985,292112,13790
1630.41,1.316750,284245,13707
1634.36,1.322965,274079,13029
1637.32,1.326073,266916,12598
1640.27,1.324596,259612,12295
1643.22,1.318349,251804,12098
1646.16,1.327349,244348,11499
1649.1,1.314602,236703,11471
1652.04,1.304875,228171,11308
1655.95,1.306933,215408,10625
1658.88,1.287176,204937,10579
1661.8,1.276824,193395,10224
1664.72,1.264988,179728,9764
1667.63,1.252284,163642,9154
1670.54,1.232350,146312,8569
1673.44,1.214145,128451,7845
1677.31,1.192023,105080,6753
1680.21,1.183412,88906,5828
1683.1,1.154845,75033,5253
1685.99,1.179661,63520,4200
1688.87,1.198609,53714,3400
1691.75,1.178313,45653,3028
1694.62,1.198486,39137,2478
1697.49,1.133806,33776,2482
1701.31,1.154297,28175,1975