Folder: textile_sorting_NIRSCAN_/ML/samples/unknown (part 84)

File: Column 1_078595_20241121_171025.csv
Method:,Column 1,,
Host Date-Time:,21/11/24 @ 17:10:25,,
Header Version:,1,,
System Temp (C):,36.75,,
Detector Temp (C):,34.8,,
Humidity (%):,1.22,,
Lamp PD:,3798,,
Shift Vector Coefficients:,-10.5391,0.0761263,-0.000134223,,
Pixel to Wavelength Coefficients:,1775.68,-0.916766,-0.000235065,,
Serial Number:,5510004,,
Scan Config Name:,Column 1,,
Scan Config Type:,Slew,,
Section 1,,
Start wavelength (nm):,900,,
End wavelength (nm):,1700,,
Pattern Pixel Width (nm):,   7.03,,,,
Exposure (ms):,  0.635,,,,
Digital Resolution:,228,,
Num Repeats:,6,,
PGA Gain:,64,,
Total Measurement Time in sec:,  2.725,,
Wavelength (nm),Absorbance (AU),Reference Signal (unitless),Sample Signal (unitless)
901.51,1.325168,108485,5131
905.376,1.349162,121306,5429
909.237,1.306493,131909,6513
913.095,1.345540,143299,6467
916.948,1.315608,156982,7590
922.079,1.313609,179937,8740
925.923,1.322165,200504,9549
929.762,1.324102,222660,10557
933.597,1.310162,244426,11967
937.427,1.319914,263972,12637
941.254,1.320256,281845,13482
945.076,1.316664,297271,14338
950.165,1.315362,315605,15268
953.978,1.316596,328029,15824
957.786,1.310691,340470,16649
961.59,1.307834,352317,17342
965.389,1.308287,363056,17852
969.185,1.307717,373162,18373
972.976,1.305791,382632,18923
976.763,1.306237,391202,19327
981.806,1.305777,400190,19792
985.583,1.309331,406088,19920
989.355,1.307561,410162,20202
993.124,1.299904,412868,20697
996.888,1.309566,414263,20310
1000.65,1.303332,415476,20664
1004.4,1.305019,415479,20584
1009.41,1.309153,414358,20334
1013.15,1.305516,412923,20434
1016.89,1.308874,411526,20208
1020.63,1.303080,409066,20357
1024.36,1.301967,406777,20295
1028.09,1.295235,404427,20493
1031.82,1.297683,401911,20251
1036.78,1.306062,398410,19691
1040.49,1.309401,396204,19432
1044.2,1.311890,394236,19225
1047.91,1.312663,392042,19084
1051.61,1.307974,389823,19182
1055.31,1.311118,388234,18966
1059,1.313163,387599,18846
1063.92,1.307352,386688,19055
1067.61,1.309971,386598,18936
1071.29,1.304765,387377,19203
1074.96,1.311685,388536,18956
1078.63,1.308032,389855,19181
1082.3,1.309861,391215,19167
1085.96,1.314690,393215,19052
1090.84,1.311782,396270,19329
1094.49,1.305452,398760,19736
1098.14,1.319467,400987,19216
1101.79,1.312788,403477,19635
1105.43,1.312534,406116,19775
1109.06,1.311685,407701,19891
1112.7,1.310239,409859,20063
1117.53,1.303897,412494,20489
1121.15,1.317075,414909,19993
1124.77,1.315358,416559,20152
1128.38,1.318295,418532,20111
1131.99,1.310942,419956,20524
1135.6,1.321284,421946,20136
1139.2,1.315045,423881,20521
1143.99,1.309213,426786,20941
1147.58,1.318139,428617,20603
1151.17,1.314855,431169,20883
1154.75,1.321644,433579,20674
1158.33,1.314850,436264,21130
1161.91,1.315993,439132,21213
1165.48,1.317629,442389,21290
1169.04,1.311375,446101,21780
1173.79,1.318791,451929,21691
1177.34,1.314853,456026,22087
1180.9,1.313063,461306,22435
1184.44,1.317494,467657,22513
1187.99,1.315668,473969,22913
1191.52,1.318289,479856,23058
1195.06,1.314250,487372,23638
1199.76,1.314030,497347,24134
1203.29,1.325338,504311,23843
1206.81,1.316999,511507,24652
1210.33,1.317275,519078,25001
1213.84,1.317607,527163,25371
1217.35,1.320472,534208,25541
1220.85,1.320363,540472,25847
1225.51,1.321591,549929,26225
1229.01,1.323309,556888,26452
1232.5,1.320204,562180,26895
1235.98,1.318979,567975,27249
1239.46,1.319722,574815,27530
1242.94,1.315195,582782,28204
1246.41,1.325975,591476,27923
1251.03,1.318665,604016,28999
1254.5,1.322154,612289,29161
1257.96,1.317285,619125,29819
1261.41,1.328863,624551,29289
1264.86,1.322006,629900,30010
1268.31,1.323990,634345,30084
1271.75,1.317649,638574,30730
1276.33,1.320070,642499,30747
1279.76,1.329228,645905,30265
1283.19,1.325690,648307,30626
1286.61,1.330466,650446,30391
1290.03,1.327240,652132,30697
1293.44,1.319833,653907,31310
1296.85,1.324650,655963,31062
1301.39,1.327852,657349,30899
1304.8,1.327582,657558,30928
1308.19,1.326658,658515,31039
1311.58,1.330290,658804,30794
1314.97,1.328695,659011,30917
1318.36,1.328672,658272,30884
1321.73,1.332264,658022,30618
1326.23,1.328477,657870,30879
1329.6,1.324896,656482,31069
1332.97,1.331238,654926,30546
1336.33,1.323587,653727,31032
1339.69,1.328900,652497,30597
1343.04,1.329568,649913,30429
1346.39,1.329869,647671,30303
1349.73,1.330313,645338,30163
1354.18,1.324603,641175,30365
1357.52,1.326135,638376,30126
1360.85,1.322900,635805,30229
1364.17,1.325348,633413,29946
1367.49,1.323042,631026,29992
1370.81,1.321844,628050,29933
1374.12,1.325361,625034,29549
1378.54,1.322937,620272,29488
1381.84,1.324410,616892,29228
1385.14,1.325527,613613,28998
1388.43,1.327400,611526,28775
1391.72,1.324183,610663,28948
1395.01,1.326132,610634,28817
1398.29,1.322109,611700,29136
1402.66,1.324819,614051,29066
1405.93,1.327566,616268,28987
1409.2,1.324956,617795,29234
1412.46,1.324763,618872,29298
1415.72,1.326093,619795,29252
1418.98,1.327103,620495,29217
1422.23,1.320352,621087,29703
1426.56,1.331091,621375,28991
1429.8,1.330541,621616,29039
1433.04,1.331842,622129,28976
1436.27,1.328553,621526,29168
1439.5,1.329726,621113,29070
1442.72,1.334625,620921,28735
1445.94,1.327957,620270,29149
1450.23,1.326284,618860,29195
1453.44,1.328213,617697,29011
1456.64,1.333279,616264,28608
1459.85,1.332292,614413,28587
1463.04,1.333253,612307,28426
1466.24,1.330645,610032,28491
1469.43,1.332048,607345,28274
1473.67,1.339709,603789,27617
1476.85,1.333381,601175,27901
1480.02,1.337177,597737,27500
1483.19,1.329779,594479,27820
1486.36,1.334293,591232,27382
1489.52,1.329605,587853,27521
1492.68,1.340346,583875,26667
1496.89,1.329566,578062,27065
1500.03,1.335655,574159,26508
1503.18,1.333174,570285,26480
1506.32,1.334337,565444,26185
1509.45,1.343404,560571,25423
1512.58,1.334985,555821,25701
1515.71,1.335972,550344,25390
1519.87,1.335324,543983,25134
1522.99,1.329481,538764,25230
1526.1,1.336762,533692,24577
1529.21,1.335431,527902,24385
1532.32,1.327878,521886,24530
1535.42,1.337459,515888,23719
1538.51,1.331439,509987,23775
1541.6,1.329095,503936,23620
1545.72,1.319827,494694,23687
1548.8,1.336303,488378,22514
1551.88,1.329383,481832,22569
1554.95,1.329139,474989,22261
1558.02,1.330685,467818,21847
1561.08,1.335842,460730,21262
1564.15,1.332442,454170,21124
1568.22,1.326998,444181,20920
1571.27,1.325803,436947,20636
1574.32,1.338243,429598,19716
1577.36,1.333207,422039,19595
1580.4,1.328876,414375,19432
1583.43,1.330197,406354,18998
1586.46,1.324813,398475,18862
1590.49,1.328405,388982,18261
1593.51,1.329611,380708,17823
1596.53,1.332743,372727,17324
1599.54,1.324293,365060,17301
1602.55,1.323902,357543,16960
1605.55,1.322392,349495,16636
1608.55,1.316099,341154,16476
1612.54,1.310957,330877,16170
1615.53,1.322315,322904,15373
1618.51,1.326832,315116,14847
1621.49,1.318830,307217,14744
1624.47,1.309614,299481,14681
1627.44,1.323066,292112,13883
1630.41,1.301190,284245,14207
1634.36,1.325103,274079,12965
1637.32,1.305965,266916,13195
1640.27,1.316443,259612,12528
1643.22,1.312289,251804,12268
1646.16,1.305152,244348,12102
1649.1,1.304721,236703,11735
1652.04,1.298432,228171,11477
1655.95,1.301167,215408,10767
1658.88,1.287998,204937,10559
1661.8,1.282253,193395,10097
1664.72,1.279690,179728,9439
1667.63,1.245132,163642,9306
1670.54,1.231186,146312,8592
1673.44,1.223659,128451,7675
1677.31,1.164791,105080,7190
1680.21,1.172085,88906,5982
1683.1,1.151058,75033,5299
1685.99,1.175442,63520,4241
1688.87,1.183668,53714,3519
1691.75,1.117890,45653,3480
1694.62,1.155630,39137,2735
1697.49,1.124973,33776,2533
1701.31,1.161168,28175,1944

File: Column 1_078597_20241121_171031.csv
Method:,Column 1,,
Host Date-Time:,21/11/24 @ 17:10:31,,
Header Version:,1,,
System Temp (C):,36.84,,
Detector Temp (C):,34.85,,
Humidity (%):,1.17,,
Lamp PD:,3798,,
Shift Vector Coefficients:,-10.5391,0.0761263,-0.000134223,,
Pixel to Wavelength Coefficients:,1775.68,-0.916766,-0.000235065,,
Serial Number:,5510004,,
Scan Config Name:,Column 1,,
Scan Config Type:,Slew,,
Section 1,,
Start wavelength (nm):,900,,
End wavelength (nm):,1700,,
Pattern Pixel Width (nm):,   7.03,,,,
Exposure (ms):,  0.635,,,,
Digital Resolution:,228,,
Num Repeats:,6,,
PGA Gain:,64,,
Total Measurement Time in sec:,  2.726,,
Wavelength (nm),Absorbance (AU),Reference Signal (unitless),Sample Signal (unitless)
901.51,1.342963,108485,4925
905.376,1.311267,121306,5924
909.237,1.308164,131909,6488
913.095,1.307131,143299,7065
916.948,1.308233,156982,7720
922.079,1.306659,179937,8881
925.923,1.326599,200504,9452
929.762,1.312733,222660,10837
933.597,1.319553,244426,11711
937.427,1.300688,263972,13209
941.254,1.322970,281845,13398
945.076,1.306663,297271,14672
950.165,1.312979,315605,15352
953.978,1.322064,328029,15626
957.786,1.307623,340470,16767
961.59,1.307960,352317,17337
965.389,1.296219,363056,18355
969.185,1.302992,373162,18574
972.976,1.303639,382632,19017
976.763,1.302901,391202,19476
981.806,1.306150,400190,19775
985.583,1.303140,406088,20206
989.355,1.308120,410162,20176
993.124,1.303168,412868,20542
996.888,1.300488,414263,20739
1000.65,1.297652,415476,20936
1004.4,1.299797,415479,20833
1009.41,1.303635,414358,20594
1013.15,1.308031,412923,20316
1016.89,1.312695,411526,20031
1020.63,1.301674,409066,20423
1024.36,1.302181,406777,20285
1028.09,1.298361,404427,20346
1031.82,1.299209,401911,20180
1036.78,1.304719,398410,19752
1040.49,1.305774,396204,19595
1044.2,1.304321,394236,19563
1047.91,1.300390,392042,19631
1051.61,1.299854,389823,19544
1055.31,1.308583,388234,19077
1059,1.315497,387599,18745
1063.92,1.301151,386688,19329
1067.61,1.308620,386598,18995
1071.29,1.304606,387377,19210
1074.96,1.296909,388536,19612
1078.63,1.309711,389855,19107
1082.3,1.314944,391215,18944
1085.96,1.306046,393215,19435
1090.84,1.310413,396270,19390
1094.49,1.310744,398760,19497
1098.14,1.313029,400987,19503
1101.79,1.301975,403477,20130
1105.43,1.309688,406116,19905
1109.06,1.313479,407701,19809
1112.7,1.309093,409859,20116
1117.53,1.306192,412494,20381
1121.15,1.309218,414909,20358
1124.77,1.305451,416559,20617
1128.38,1.316743,418532,20183
1131.99,1.301440,419956,20978
1135.6,1.309622,421946,20684
1139.2,1.311400,423881,20694
1143.99,1.325763,426786,20158
1147.58,1.310802,428617,20954
1151.17,1.310592,431169,21089
1154.75,1.311327,433579,21171
1158.33,1.309986,436264,21368
1161.91,1.317305,439132,21149
1165.48,1.310627,442389,21636
1169.04,1.311017,446101,21798
1173.79,1.314150,451929,21924
1177.34,1.319379,456026,21858
1180.9,1.312850,461306,22446
1184.44,1.314093,467657,22690
1187.99,1.317206,473969,22832
1191.52,1.320290,479856,22952
1195.06,1.312490,487372,23734
1199.76,1.308203,497347,24460
1203.29,1.310424,504311,24676
1206.81,1.317176,511507,24642
1210.33,1.313401,519078,25225
1213.84,1.321096,527163,25168
1217.35,1.319997,534208,25569
1220.85,1.314008,540472,26228
1225.51,1.323516,549929,26109
1229.01,1.314243,556888,27010
1232.5,1.320446,562180,26880
1235.98,1.316262,567975,27420
1239.46,1.317833,574815,27650
1242.94,1.321805,582782,27778
1246.41,1.315207,591476,28624
1251.03,1.320166,604016,28899
1254.5,1.318919,612289,29379
1257.96,1.317577,619125,29799
1261.41,1.318794,624551,29976
1264.86,1.317657,629900,30312
1268.31,1.321356,634345,30267
1271.75,1.318016,638574,30704
1276.33,1.320282,642499,30732
1279.76,1.321618,645905,30800
1283.19,1.323738,648307,30764
1286.61,1.325338,650446,30752
1290.03,1.322862,652132,31008
1293.44,1.322644,653907,31108
1296.85,1.324902,655963,31044
1301.39,1.323934,657349,31179
1304.8,1.323223,657558,31240
1308.19,1.328495,658515,30908
1311.58,1.321813,658804,31401
1314.97,1.326817,659011,31051
1318.36,1.327604,658272,30960
1321.73,1.322155,658022,31339
1326.23,1.331965,657870,30632
1329.6,1.320030,656482,31419
1332.97,1.324522,654926,31022
1336.33,1.328400,653727,30690
1339.69,1.326225,652497,30786
1343.04,1.325137,649913,30741
1346.39,1.324697,647671,30666
1349.73,1.325915,645338,30470
1354.18,1.322307,641175,30526
1357.52,1.320948,638376,30488
1360.85,1.324613,635805,30110
1364.17,1.325305,633413,29949
1367.49,1.323433,631026,29965
1370.81,1.325677,628050,29670
1374.12,1.321134,625034,29838
1378.54,1.322025,620272,29550
1381.84,1.318053,616892,29659
1385.14,1.320005,613613,29369
1388.43,1.319770,611526,29285
1391.72,1.318504,610663,29329
1395.01,1.322859,610634,29035
1398.29,1.319849,611700,29288
1402.66,1.322851,614051,29198
1405.93,1.323495,616268,29260
1409.2,1.329451,617795,28933
1412.46,1.327245,618872,29131
1415.72,1.329955,619795,28993
1418.98,1.323771,620495,29442
1422.23,1.329513,621087,29083
1426.56,1.328194,621375,29185
1429.8,1.332234,621616,28926
1433.04,1.328260,622129,29216
1436.27,1.329477,621526,29106
1439.5,1.334895,621113,28726
1442.72,1.329099,620921,29103
1445.94,1.330333,620270,28990
1450.23,1.336793,618860,28497
1453.44,1.318399,617697,29674
1456.64,1.322825,616264,29305
1459.85,1.326002,614413,29004
1463.04,1.332521,612307,28474
1466.24,1.327834,610032,28676
1469.43,1.325993,607345,28671
1473.67,1.326315,603789,28482
1476.85,1.323334,601175,28554
1480.02,1.331342,597737,27872
1483.19,1.330795,594479,27755
1486.36,1.335007,591232,27337
1489.52,1.332868,587853,27315
1492.68,1.328728,583875,27390
1496.89,1.332448,578062,26886
1500.03,1.336065,574159,26483
1503.18,1.336202,570285,26296
1506.32,1.327279,565444,26614
1509.45,1.333273,560571,26023
1512.58,1.330329,555821,25978
1515.71,1.329200,550344,25789
1519.87,1.334926,543983,25157
1522.99,1.327027,538764,25373
1526.1,1.331737,533692,24863
1529.21,1.326703,527902,24880
1532.32,1.332703,521886,24259
1535.42,1.325219,515888,24397
1538.51,1.329288,509987,23893
1541.6,1.326968,503936,23736
1545.72,1.327410,494694,23277
1548.8,1.328447,488378,22925
1551.88,1.325113,481832,22792
1554.95,1.329275,474989,22254
1558.02,1.328840,467818,21940
1561.08,1.337664,460730,21173
1564.15,1.322463,454170,21615
1568.22,1.326065,444181,20965
1571.27,1.325551,436947,20648
1574.32,1.322688,429598,20435
1577.36,1.318563,422039,20267
1580.4,1.319021,414375,19878
1583.43,1.321394,406354,19387
1586.46,1.325620,398475,18827
1590.49,1.325820,388982,18370
1593.51,1.322122,380708,18133
1596.53,1.322731,372727,17728
1599.54,1.331839,365060,17003
1602.55,1.319799,357543,17121
1605.55,1.316867,349495,16849
1608.55,1.316600,341154,16457
1612.54,1.330991,330877,15441
1615.53,1.315226,322904,15626
1618.51,1.320213,315116,15075
1621.49,1.312949,307217,14945
1624.47,1.321671,299481,14279
1627.44,1.308546,292112,14355
1630.41,1.314349,284245,13783
1634.36,1.312394,274079,13350
1637.32,1.303733,266916,13263
1640.27,1.301854,259612,12956
1643.22,1.303250,251804,12526
1646.16,1.311368,244348,11930
1649.1,1.304758,236703,11734
1652.04,1.289296,228171,11721
1655.95,1.306116,215408,10645
1658.88,1.288327,204937,10551
1661.8,1.274030,193395,10290
1664.72,1.284781,179728,9329
1667.63,1.256623,163642,9063
1670.54,1.243906,146312,8344
1673.44,1.212156,128451,7881
1677.31,1.220185,105080,6329
1680.21,1.176316,88906,5924
1683.1,1.156585,75033,5232
1685.99,1.121760,63520,4799
1688.87,1.135253,53714,3934
1691.75,1.143993,45653,3277
1694.62,1.214553,39137,2388
1697.49,1.082537,33776,2793
1701.31,1.097681,28175,2250

File: Column 1_078598_20241121_171034.csv
Method:,Column 1,,
Host Date-Time:,21/11/24 @ 17:10:34,,
Header Version:,1,,
System Temp (C):,36.9,,
Detector Temp (C):,34.85,,
Humidity (%):,1.08,,
Lamp PD:,3798,,
Shift Vector Coefficients:,-10.5391,0.0761263,-0.000134223,,
Pixel to Wavelength Coefficients:,1775.68,-0.916766,-0.000235065,,
Serial Number:,5510004,,
Scan Config Name:,Column 1,,
Scan Config Type:,Slew,,
Section 1,,
Start wavelength (nm):,900,,
End wavelength (nm):,1700,,
Pattern Pixel Width (nm):,   7.03,,,,
Exposure (ms):,  0.635,,,,
Digital Resolution:,228,,
Num Repeats:,6,,
PGA Gain:,64,,
Total Measurement Time in sec:,  2.725,,
Wavelength (nm),Absorbance (AU),Reference Signal (unitless),Sample Signal (unitless)
901.51,1.322468,108485,5163
905.376,1.347565,121306,5449
909.237,1.326624,131909,6218
913.095,1.309350,143299,7029
916.948,1.325504,156982,7419
922.079,1.303880,179937,8938
925.923,1.319897,200504,9599
929.762,1.312012,222660,10855
933.597,1.327563,244426,11497
937.427,1.323503,263972,12533
941.254,1.315451,281845,13632
945.076,1.313676,297271,14437
950.165,1.316444,315605,15230
953.978,1.322203,328029,15621
957.786,1.307908,340470,16756
961.59,1.314649,352317,17072
965.389,1.308701,363056,17835
969.185,1.307363,373162,18388
972.976,1.300363,382632,19161
976.763,1.312734,391202,19040
981.806,1.313481,400190,19444
985.583,1.302088,406088,20255
989.355,1.313405,410162,19932
993.124,1.299149,412868,20733
996.888,1.310873,414263,20249
1000.65,1.312014,415476,20255
1004.4,1.305949,415479,20540
1009.41,1.306300,414358,20468
1013.15,1.310819,412923,20186
1016.89,1.305044,411526,20387
1020.63,1.304833,409066,20275
1024.36,1.302803,406777,20256
1028.09,1.304856,404427,20044
1031.82,1.312539,401911,19570
1036.78,1.315651,398410,19261
1040.49,1.319280,396204,18995
1044.2,1.302129,394236,19662
1047.91,1.304972,392042,19425
1051.61,1.310175,389823,19085
1055.31,1.314682,388234,18811
1059,1.304720,387599,19216
1063.92,1.310141,386688,18933
1067.61,1.306385,386598,19093
1071.29,1.305398,387377,19175
1074.96,1.309149,388536,19067
1078.63,1.309552,389855,19114
1082.3,1.308866,391215,19211
1085.96,1.318582,393215,18882
1090.84,1.308714,396270,19466
1094.49,1.305585,398760,19730
1098.14,1.317326,400987,19311
1101.79,1.306508,403477,19921
1105.43,1.323048,406116,19302
1109.06,1.317488,407701,19627
1112.7,1.309050,409859,20118
1117.53,1.308714,412494,20263
1121.15,1.309410,414909,20349
1124.77,1.317129,416559,20070
1128.38,1.321938,418532,19943
1131.99,1.318972,419956,20148
1135.6,1.320960,421946,20151
1139.2,1.313040,423881,20616
1143.99,1.310958,426786,20857
1147.58,1.322503,428617,20397
1151.17,1.317441,431169,20759
1154.75,1.311594,433579,21158
1158.33,1.319582,436264,20901
1161.91,1.314787,439132,21272
1165.48,1.313184,442389,21509
1169.04,1.322401,446101,21234
1173.79,1.305812,451929,22349
1177.34,1.317575,456026,21949
1180.9,1.316679,461306,22249
1184.44,1.308691,467657,22974
1187.99,1.314910,473969,22953
1191.52,1.318270,479856,23059
1195.06,1.320169,487372,23318
1199.76,1.312844,497347,24200
1203.29,1.314775,504311,24430
1206.81,1.324158,511507,24249
1210.33,1.318859,519078,24910
1213.84,1.315047,527163,25521
1217.35,1.324332,534208,25315
1220.85,1.318351,540472,25967
1225.51,1.318571,549929,26408
1229.01,1.325713,556888,26306
1232.5,1.322682,562180,26742
1235.98,1.318644,567975,27270
1239.46,1.317535,574815,27669
1242.94,1.322181,582782,27754
1246.41,1.319231,591476,28360
1251.03,1.320767,604016,28859
1254.5,1.322318,612289,29150
1257.96,1.324792,619125,29308
1261.41,1.322446,624551,29725
1264.86,1.320114,629900,30141
1268.31,1.323759,634345,30100
1271.75,1.323969,638574,30286
1276.33,1.324442,642499,30439
1279.76,1.322634,645905,30728
1283.19,1.325039,648307,30672
1286.61,1.327731,650446,30583
1290.03,1.322708,652132,31019
1293.44,1.330505,653907,30550
1296.85,1.326219,655963,30950
1301.39,1.328653,657349,30842
1304.8,1.324225,657558,31168
1308.19,1.327821,658515,30956
1311.58,1.320115,658804,31524
1314.97,1.326272,659011,31090
1318.36,1.327562,658272,30963
1321.73,1.324559,658022,31166
1326.23,1.327227,657870,30968
1329.6,1.329830,656482,30718
1332.97,1.327247,654926,30828
1336.33,1.332966,653727,30369
1339.69,1.330578,652497,30479
1343.04,1.325462,649913,30718
1346.39,1.328338,647671,30410
1349.73,1.323555,645338,30636
1354.18,1.327042,641175,30195
1357.52,1.321076,638376,30479
1360.85,1.326217,635805,29999
1364.17,1.327733,633413,29782
1367.49,1.328961,631026,29586
1370.81,1.319197,628050,30116
1374.12,1.327482,625034,29405
1378.54,1.324427,620272,29387
1381.84,1.324410,616892,29228
1385.14,1.321220,613613,29287
1388.43,1.333066,611526,28402
1391.72,1.323478,610663,28995
1395.01,1.322784,610634,29040
1398.29,1.326769,611700,28825
1402.66,1.321886,614051,29263
1405.93,1.326325,616268,29070
1409.2,1.329331,617795,28941
1412.46,1.330237,618872,28931
1415.72,1.332147,619795,28847
1418.98,1.326761,620495,29240
1422.23,1.329200,621087,29104
1426.56,1.327139,621375,29256
1429.8,1.328422,621616,29181
1433.04,1.331348,622129,29009
1436.27,1.331031,621526,29002
1439.5,1.331807,621113,28931
1442.72,1.334534,620921,28741
1445.94,1.330497,620270,28979
1450.23,1.332094,618860,28807
1453.44,1.329082,617697,28953
1456.64,1.324860,616264,29168
1459.85,1.333875,614413,28483
1463.04,1.333651,612307,28400
1466.24,1.328167,610032,28654
1469.43,1.335549,607345,28047
1473.67,1.330744,603789,28193
1476.85,1.331843,601175,28000
1480.02,1.337841,597737,27458
1483.19,1.334914,594479,27493
1486.36,1.335293,591232,27319
1489.52,1.335147,587853,27172
1492.68,1.328728,583875,27390
1496.89,1.336571,578062,26632
1500.03,1.330023,574159,26854
1503.18,1.332994,570285,26491
1506.32,1.335932,565444,26089
1509.45,1.329700,560571,26238
1512.58,1.331971,555821,25880
1515.71,1.330972,550344,25684
1519.87,1.329284,543983,25486
1522.99,1.337946,538764,24743
1526.1,1.335527,533692,24647
1529.21,1.337466,527902,24271
1532.32,1.334425,521886,24163
1535.42,1.337368,515888,23724
1538.51,1.333416,509987,23667
1541.6,1.327627,503936,23700
1545.72,1.331477,494694,23060
1548.8,1.340023,488378,22322
1551.88,1.338228,481832,22114
1554.95,1.340484,474989,21687
1558.02,1.336670,467818,21548
1561.08,1.326427,460730,21728
1564.15,1.326541,454170,21413
1568.22,1.326065,444181,20965
1571.27,1.326309,436947,20612
1574.32,1.326080,429598,20276
1577.36,1.332078,422039,19646
1580.4,1.334590,414375,19178
1583.43,1.337016,406354,18702
1586.46,1.326983,398475,18768
1590.49,1.329763,388982,18204
1593.51,1.327666,380708,17903
1596.53,1.327386,372727,17539
1599.54,1.324293,365060,17301
1602.55,1.334924,357543,16535
1605.55,1.324145,349495,16569
1608.55,1.321323,341154,16279
1612.54,1.325180,330877,15649
1615.53,1.318966,322904,15492
1618.51,1.332366,315116,14659
1621.49,1.321459,307217,14655
1624.47,1.316141,299481,14462
1627.44,1.309515,292112,14323
1630.41,1.314129,284245,13790
1634.36,1.319611,274079,13130
1637.32,1.316762,266916,12871
1640.27,1.297020,259612,13101
1643.22,1.302142,251804,12558
1646.16,1.301080,244348,12216
1649.1,1.308213,236703,11641
1652.04,1.315370,228171,11038
1655.95,1.286533,215408,11136
1658.88,1.287504,204937,10571
1661.8,1.288448,193395,9954
1664.72,1.274885,179728,9544
1667.63,1.251241,163642,9176
1670.54,1.237089,146312,8476
1673.44,1.207715,128451,7962
1677.31,1.160165,105080,7267
1680.21,1.146089,88906,6351
1683.1,1.157831,75033,5217
1685.99,1.177392,63520,4222
1688.87,1.166369,53714,3662
1691.75,1.210608,45653,2811
1694.62,1.196039,39137,2492
1697.49,1.226710,33776,2004
1701.31,1.160944,28175,1945