Folder: textile_sorting_NIRSCAN_/ML/samples/unknown (part 27)

File: Column 1_078175_20241121_164909.csv
Method:,Column 1,,
Host Date-Time:,21/11/24 @ 16:49:9,,
Header Version:,1,,
System Temp (C):,33.65,,
Detector Temp (C):,29.97,,
Humidity (%):,3.43,,
Lamp PD:,3804,,
Shift Vector Coefficients:,-10.5391,0.0761263,-0.000134223,,
Pixel to Wavelength Coefficients:,1775.68,-0.916766,-0.000235065,,
Serial Number:,5510004,,
Scan Config Name:,Column 1,,
Scan Config Type:,Slew,,
Section 1,,
Start wavelength (nm):,900,,
End wavelength (nm):,1700,,
Pattern Pixel Width (nm):,   7.03,,,,
Exposure (ms):,  0.635,,,,
Digital Resolution:,228,,
Num Repeats:,6,,
PGA Gain:,64,,
Total Measurement Time in sec:,  2.720,,
Wavelength (nm),Absorbance (AU),Reference Signal (unitless),Sample Signal (unitless)
901.51,1.331305,108485,5059
905.376,1.363475,121306,5253
909.237,1.341255,131909,6012
913.095,1.298308,143299,7210
916.948,1.335272,156982,7254
922.079,1.323815,179937,8537
925.923,1.342748,200504,9107
929.762,1.309340,222660,10922
933.597,1.328735,244426,11466
937.427,1.327366,263972,12422
941.254,1.327303,281845,13265
945.076,1.320895,297271,14199
950.165,1.319362,315605,15128
953.978,1.324238,328029,15548
957.786,1.319013,340470,16333
961.59,1.311127,352317,17211
965.389,1.326242,363056,17129
969.185,1.313069,373162,18148
972.976,1.310452,382632,18721
976.763,1.322678,391202,18609
981.806,1.321779,400190,19076
985.583,1.324528,406088,19235
989.355,1.308939,410162,20138
993.124,1.312550,412868,20103
996.888,1.318161,414263,19912
1000.65,1.311135,415476,20296
1004.4,1.316002,415479,20070
1009.41,1.312110,414358,20196
1013.15,1.303882,412923,20511
1016.89,1.315894,411526,19884
1020.63,1.320647,409066,19550
1024.36,1.314560,406777,19715
1028.09,1.326125,404427,19086
1031.82,1.314452,401911,19484
1036.78,1.314413,398410,19316
1040.49,1.313894,396204,19232
1044.2,1.308022,394236,19397
1047.91,1.309624,392042,19218
1051.61,1.322079,389823,18569
1055.31,1.321664,388234,18511
1059,1.322834,387599,18431
1063.92,1.322047,386688,18421
1067.61,1.312271,386598,18836
1071.29,1.313791,387377,18808
1074.96,1.314535,388536,18832
1078.63,1.326439,389855,18385
1082.3,1.326702,391215,18438
1085.96,1.314712,393215,19051
1090.84,1.317003,396270,19098
1094.49,1.325400,398760,18850
1098.14,1.327980,400987,18843
1101.79,1.322043,403477,19221
1105.43,1.328573,406116,19058
1109.06,1.317112,407701,19644
1112.7,1.325527,409859,19369
1117.53,1.325160,412494,19510
1121.15,1.319799,414909,19868
1124.77,1.330065,416559,19481
1128.38,1.326888,418532,19717
1131.99,1.316714,419956,20253
1135.6,1.323251,421946,20045
1139.2,1.338592,423881,19438
1143.99,1.316301,426786,20602
1147.58,1.325623,428617,20251
1151.17,1.326382,431169,20336
1154.75,1.324827,433579,20523
1158.33,1.325882,436264,20600
1161.91,1.326268,439132,20717
1165.48,1.321975,442389,21078
1169.04,1.325810,446101,21068
1173.79,1.328652,451929,21204
1177.34,1.323411,456026,21656
1180.9,1.328291,461306,21662
1184.44,1.327071,467657,22022
1187.99,1.323992,473969,22478
1191.52,1.325276,479856,22690
1195.06,1.324249,487372,23100
1199.76,1.320649,497347,23769
1203.29,1.330431,504311,23565
1206.81,1.326726,511507,24106
1210.33,1.332873,519078,24119
1213.84,1.329881,527163,24664
1217.35,1.325071,534208,25272
1220.85,1.327427,540472,25430
1225.51,1.324549,549929,26047
1229.01,1.328047,556888,26165
1232.5,1.327581,562180,26442
1235.98,1.324981,567975,26875
1239.46,1.327329,574815,27052
1242.94,1.334899,582782,26953
1246.41,1.328095,591476,27787
1251.03,1.333735,604016,28010
1254.5,1.325878,612289,28912
1257.96,1.331196,619125,28879
1261.41,1.327235,624551,29399
1264.86,1.329833,629900,29474
1268.31,1.332504,634345,29500
1271.75,1.330543,638574,29831
1276.33,1.327291,642499,30240
1279.76,1.334338,645905,29911
1283.19,1.336386,648307,29881
1286.61,1.337206,650446,29923
1290.03,1.341170,652132,29728
1293.44,1.335322,653907,30213
1296.85,1.330988,655963,30612
1301.39,1.334922,657349,30400
1304.8,1.335418,657558,30375
1308.19,1.337625,658515,30265
1311.58,1.332538,658804,30635
1314.97,1.333455,659011,30580
1318.36,1.335861,658272,30377
1321.73,1.338363,658022,30191
1326.23,1.340672,657870,30024
1329.6,1.342162,656482,29858
1332.97,1.334506,654926,30317
1336.33,1.337335,653727,30065
1339.69,1.328148,652497,30650
1343.04,1.333741,649913,30138
1346.39,1.331750,647671,30172
1349.73,1.331885,645338,30054
1354.18,1.329161,641175,30048
1357.52,1.338728,638376,29265
1360.85,1.336219,635805,29316
1364.17,1.328156,633413,29753
1367.49,1.333283,631026,29293
1370.81,1.335207,628050,29026
1374.12,1.334916,625034,28906
1378.54,1.331324,620272,28924
1381.84,1.334557,616892,28553
1385.14,1.329015,613613,28766
1388.43,1.327883,611526,28743
1391.72,1.329831,610663,28574
1395.01,1.330540,610634,28526
1398.29,1.330993,611700,28546
1402.66,1.334336,614051,28436
1405.93,1.330347,616268,28802
1409.2,1.332887,617795,28705
1412.46,1.330478,618872,28915
1415.72,1.340247,619795,28314
1418.98,1.340185,620495,28350
1422.23,1.346305,621087,27980
1426.56,1.337155,621375,28589
1429.8,1.339150,621616,28469
1433.04,1.337970,622129,28570
1436.27,1.337868,621526,28549
1439.5,1.338173,621113,28510
1442.72,1.340361,620921,28358
1445.94,1.333490,620270,28780
1450.23,1.340466,618860,28257
1453.44,1.334622,617697,28586
1456.64,1.337750,616264,28315
1459.85,1.337873,614413,28222
1463.04,1.335198,612307,28299
1466.24,1.335504,610032,28174
1469.43,1.338345,607345,27867
1473.67,1.340417,603789,27572
1476.85,1.338296,601175,27587
1480.02,1.340475,597737,27292
1483.19,1.341761,594479,27063
1486.36,1.343105,591232,26832
1489.52,1.343409,587853,26660
1492.68,1.342468,583875,26537
1496.89,1.340206,578062,26410
1500.03,1.342541,574159,26091
1503.18,1.344287,570285,25811
1506.32,1.343777,565444,25622
1509.45,1.337921,560571,25746
1512.58,1.339828,555821,25416
1515.71,1.339044,550344,25211
1519.87,1.343064,543983,24690
1522.99,1.336037,538764,24852
1526.1,1.343709,533692,24187
1529.21,1.363401,527902,22864
1532.32,1.348415,521886,23397
1535.42,1.341044,515888,23524
1538.51,1.343158,509987,23142
1541.6,1.335859,503936,23255
1545.72,1.342579,494694,22478
1548.8,1.334725,488378,22596
1551.88,1.352198,481832,21414
1554.95,1.345398,474989,21443
1558.02,1.331959,467818,21783
1561.08,1.341682,460730,20978
1564.15,1.346589,454170,20447
1568.22,1.339273,444181,20337
1571.27,1.339442,436947,19998
1574.32,1.340895,429598,19596
1577.36,1.345412,422039,19052
1580.4,1.336224,414375,19106
1583.43,1.341498,406354,18510
1586.46,1.333864,398475,18473
1590.49,1.345850,388982,17542
1593.51,1.339145,380708,17436
1596.53,1.336772,372727,17164
1599.54,1.329241,365060,17105
1602.55,1.335371,357543,16518
1605.55,1.328915,349495,16388
1608.55,1.330544,341154,15937
1612.54,1.335145,330877,15294
1615.53,1.322061,322904,15382
1618.51,1.333761,315116,14612
1621.49,1.325868,307217,14507
1624.47,1.324479,299481,14187
1627.44,1.323004,292112,13885
1630.41,1.327367,284245,13376
1634.36,1.329649,274079,12830
1637.32,1.326832,266916,12576
1640.27,1.333374,259612,12049
1643.22,1.328923,251804,11807
1646.16,1.313485,244348,11872
1649.1,1.325451,236703,11188
1652.04,1.336121,228171,10523
1655.95,1.306729,215408,10630
1658.88,1.318361,204937,9846
1661.8,1.316145,193395,9339
1664.72,1.293432,179728,9145
1667.63,1.298389,163642,8232
1670.54,1.278846,146312,7699
1673.44,1.282792,128451,6698
1677.31,1.272480,105080,5611
1680.21,1.292067,88906,4538
1683.1,1.212023,75033,4605
1685.99,1.209403,63520,3922
1688.87,1.220751,53714,3231
1691.75,1.254807,45653,2539
1694.62,1.343634,39137,1774
1697.49,1.450151,33776,1198
1701.31,1.286106,28175,1458

File: Column 1_078177_20241121_164915.csv
Method:,Column 1,,
Host Date-Time:,21/11/24 @ 16:49:15,,
Header Version:,1,,
System Temp (C):,33.62,,
Detector Temp (C):,30,,
Humidity (%):,3.33,,
Lamp PD:,3804,,
Shift Vector Coefficients:,-10.5391,0.0761263,-0.000134223,,
Pixel to Wavelength Coefficients:,1775.68,-0.916766,-0.000235065,,
Serial Number:,5510004,,
Scan Config Name:,Column 1,,
Scan Config Type:,Slew,,
Section 1,,
Start wavelength (nm):,900,,
End wavelength (nm):,1700,,
Pattern Pixel Width (nm):,   7.03,,,,
Exposure (ms):,  0.635,,,,
Digital Resolution:,228,,
Num Repeats:,6,,
PGA Gain:,64,,
Total Measurement Time in sec:,  2.719,,
Wavelength (nm),Absorbance (AU),Reference Signal (unitless),Sample Signal (unitless)
901.51,1.314714,108485,5256
905.376,1.321654,121306,5784
909.237,1.306427,131909,6514
913.095,1.322522,143299,6819
916.948,1.327088,156982,7392
922.079,1.307932,179937,8855
925.923,1.319174,200504,9615
929.762,1.304398,222660,11047
933.597,1.308098,244426,12024
937.427,1.308283,263972,12980
941.254,1.315323,281845,13636
945.076,1.312804,297271,14466
950.165,1.330912,315605,14731
953.978,1.311358,328029,16016
957.786,1.310195,340470,16668
961.59,1.309817,352317,17263
965.389,1.309529,363056,17801
969.185,1.310088,373162,18273
972.976,1.314180,382632,18561
976.763,1.310913,391202,19120
981.806,1.301888,400190,19970
985.583,1.306224,406088,20063
989.355,1.308228,410162,20171
993.124,1.312788,412868,20092
996.888,1.307433,414263,20410
1000.65,1.307386,415476,20472
1004.4,1.310198,415479,20340
1009.41,1.313295,414358,20141
1013.15,1.315665,412923,19962
1016.89,1.311266,411526,20097
1020.63,1.311133,409066,19983
1024.36,1.306225,406777,20097
1028.09,1.318591,404427,19420
1031.82,1.308057,401911,19773
1036.78,1.319297,398410,19100
1040.49,1.317636,396204,19067
1044.2,1.315292,394236,19075
1047.91,1.312777,392042,19079
1051.61,1.311383,389823,19032
1055.31,1.307379,388234,19130
1059,1.309972,387599,18985
1063.92,1.314359,386688,18750
1067.61,1.317233,386598,18622
1071.29,1.320986,387377,18499
1074.96,1.309286,388536,19061
1078.63,1.307082,389855,19223
1082.3,1.314531,391215,18962
1085.96,1.316929,393215,18954
1090.84,1.309161,396270,19446
1094.49,1.315222,398760,19297
1098.14,1.311251,400987,19583
1101.79,1.312722,403477,19638
1105.43,1.321162,406116,19386
1109.06,1.311598,407701,19895
1112.7,1.317750,409859,19719
1117.53,1.323516,412494,19584
1121.15,1.314044,414909,20133
1124.77,1.316675,416559,20091
1128.38,1.310102,418532,20494
1131.99,1.316286,419956,20273
1135.6,1.315116,421946,20424
1139.2,1.318125,423881,20376
1143.99,1.319007,426786,20474
1147.58,1.324659,428617,20296
1151.17,1.313526,431169,20947
1154.75,1.316777,433579,20907
1158.33,1.324619,436264,20660
1161.91,1.324135,439132,20819
1165.48,1.310969,442389,21619
1169.04,1.323097,446101,21200
1173.79,1.311110,451929,22078
1177.34,1.316685,456026,21994
1180.9,1.314401,461306,22366
1184.44,1.323555,467657,22201
1187.99,1.323297,473969,22514
1191.52,1.320196,479856,22957
1195.06,1.317921,487372,23439
1199.76,1.319098,497347,23854
1203.29,1.327382,504311,23731
1206.81,1.317493,511507,24624
1210.33,1.325960,519078,24506
1213.84,1.329969,527163,24659
1217.35,1.323664,534208,25354
1220.85,1.318502,540472,25958
1225.51,1.322403,549929,26176
1229.01,1.315983,556888,26902
1232.5,1.319123,562180,26962
1235.98,1.319824,567975,27196
1239.46,1.328728,574815,26965
1242.94,1.323418,582782,27675
1246.41,1.325415,591476,27959
1251.03,1.326585,604016,28475
1254.5,1.328319,612289,28750
1257.96,1.333518,619125,28725
1261.41,1.328137,624551,29338
1264.86,1.329656,629900,29486
1268.31,1.326756,634345,29893
1271.75,1.328858,638574,29947
1276.33,1.326731,642499,30279
1279.76,1.330694,645905,30163
1283.19,1.326883,648307,30542
1286.61,1.328228,650446,30548
1290.03,1.328061,652132,30639
1293.44,1.329979,653907,30587
1296.85,1.331968,655963,30543
1301.39,1.326630,657349,30986
1304.8,1.336879,657558,30273
1308.19,1.335135,658515,30439
1311.58,1.329023,658804,30884
1314.97,1.335177,659011,30459
1318.36,1.331366,658272,30693
1321.73,1.331413,658022,30678
1326.23,1.331540,657870,30662
1329.6,1.327363,656482,30893
1332.97,1.332363,654926,30467
1336.33,1.332809,653727,30380
1339.69,1.332692,652497,30331
1343.04,1.331714,649913,30279
1346.39,1.324669,647671,30668
1349.73,1.334668,645338,29862
1354.18,1.329233,641175,30043
1357.52,1.331371,638376,29765
1360.85,1.324109,635805,30145
1364.17,1.327879,633413,29772
1367.49,1.330608,631026,29474
1370.81,1.325428,628050,29687
1374.12,1.320276,625034,29897
1378.54,1.325996,620272,29281
1381.84,1.330380,616892,28829
1385.14,1.329529,613613,28732
1388.43,1.326796,611526,28815
1391.72,1.325535,610663,28858
1395.01,1.321008,610634,29159
1398.29,1.318280,611700,29394
1402.66,1.329551,614051,28751
1405.93,1.326101,616268,29085
1409.2,1.325105,617795,29224
1412.46,1.335736,618872,28567
1415.72,1.334714,619795,28677
1418.98,1.333693,620495,28777
1422.23,1.335513,621087,28684
1426.56,1.334384,621375,28772
1429.8,1.332790,621616,28889
1433.04,1.331363,622129,29008
1436.27,1.336441,621526,28643
1439.5,1.334336,621113,28763
1442.72,1.335609,620921,28670
1445.94,1.337294,620270,28529
1450.23,1.338320,618860,28397
1453.44,1.331821,617697,28771
1456.64,1.333948,616264,28564
1459.85,1.336275,614413,28326
1463.04,1.337630,612307,28141
1466.24,1.334257,610032,28255
1469.43,1.329980,607345,28409
1473.67,1.335733,603789,27871
1476.85,1.338895,601175,27549
1480.02,1.337351,597737,27489
1483.19,1.336560,594479,27389
1486.36,1.338228,591232,27135
1489.52,1.339953,587853,26873
1492.68,1.336745,583875,26889
1496.89,1.339664,578062,26443
1500.03,1.343224,574159,26050
1503.18,1.334570,570285,26395
1506.32,1.332880,565444,26273
1509.45,1.338833,560571,25692
1512.58,1.337442,555821,25556
1515.71,1.343268,550344,24967
1519.87,1.336050,543983,25092
1522.99,1.344686,538764,24362
1526.1,1.336426,533692,24596
1529.21,1.330507,527902,24663
1532.32,1.343432,521886,23667
1535.42,1.334594,515888,23876
1538.51,1.334518,509987,23607
1541.6,1.342256,503936,22915
1545.72,1.346616,494694,22270
1548.8,1.341114,488378,22266
1551.88,1.338700,481832,22090
1554.95,1.339384,474989,21742
1558.02,1.332897,467818,21736
1561.08,1.335271,460730,21290
1564.15,1.335392,454170,20981
1568.22,1.339572,444181,20323
1571.27,1.325551,436947,20648
1574.32,1.335827,429598,19826
1577.36,1.335964,422039,19471
1580.4,1.333030,414375,19247
1583.43,1.323933,406354,19274
1586.46,1.328745,398475,18692
1590.49,1.344639,388982,17591
1593.51,1.329441,380708,17830
1596.53,1.322535,372727,17736
1599.54,1.322489,365060,17373
1602.55,1.322063,357543,17032
1605.55,1.330428,349495,16331
1608.55,1.331717,341154,15894
1612.54,1.329167,330877,15506
1615.53,1.334055,322904,14963
1618.51,1.325868,315116,14880
1621.49,1.329626,307217,14382
1624.47,1.315481,299481,14484
1627.44,1.330576,292112,13645
1630.41,1.321305,284245,13564
1634.36,1.314776,274079,13277
1637.32,1.312632,266916,12994
1640.27,1.321253,259612,12390
1643.22,1.316665,251804,12145
1646.16,1.313485,244348,11872
1649.1,1.322203,236703,11272
1652.04,1.321512,228171,10883
1655.95,1.315561,215408,10416
1658.88,1.304598,204937,10163
1661.8,1.306078,193395,9558
1664.72,1.299313,179728,9022
1667.63,1.283761,163642,8514
1670.54,1.249195,146312,8243
1673.44,1.258827,128451,7078
1677.31,1.243224,105080,6002
1680.21,1.251963,88906,4977
1683.1,1.273627,75033,3996
1685.99,1.215424,63520,3868
1688.87,1.256017,53714,2979
1691.75,1.238524,45653,2636
1694.62,1.309513,39137,1919
1697.49,1.183627,33776,2213
1701.31,1.140447,28175,2039

File: Column 1_078178_20241121_164918.csv
Method:,Column 1,,
Host Date-Time:,21/11/24 @ 16:49:18,,
Header Version:,1,,
System Temp (C):,33.62,,
Detector Temp (C):,30,,
Humidity (%):,3.28,,
Lamp PD:,3804,,
Shift Vector Coefficients:,-10.5391,0.0761263,-0.000134223,,
Pixel to Wavelength Coefficients:,1775.68,-0.916766,-0.000235065,,
Serial Number:,5510004,,
Scan Config Name:,Column 1,,
Scan Config Type:,Slew,,
Section 1,,
Start wavelength (nm):,900,,
End wavelength (nm):,1700,,
Pattern Pixel Width (nm):,   7.03,,,,
Exposure (ms):,  0.635,,,,
Digital Resolution:,228,,
Num Repeats:,6,,
PGA Gain:,64,,
Total Measurement Time in sec:,  2.728,,
Wavelength (nm),Absorbance (AU),Reference Signal (unitless),Sample Signal (unitless)
901.51,1.337792,108485,4984
905.376,1.311194,121306,5925
909.237,1.306894,131909,6507
913.095,1.337819,143299,6583
916.948,1.309416,156982,7699
922.079,1.317101,179937,8670
925.923,1.332614,200504,9322
929.762,1.319437,222660,10671
933.597,1.306620,244426,12065
937.427,1.331335,263972,12309
941.254,1.313448,281845,13695
945.076,1.322396,297271,14150
950.165,1.315646,315605,15258
953.978,1.311575,328029,16008
957.786,1.312311,340470,16587
961.59,1.311632,352317,17191
965.389,1.309871,363056,17787
969.185,1.309328,373162,18305
972.976,1.318034,382632,18397
976.763,1.306282,391202,19325
981.806,1.329427,400190,18743
985.583,1.300910,406088,20310
989.355,1.308508,410162,20158
993.124,1.310073,412868,20218
996.888,1.319647,414263,19844
1000.65,1.302827,415476,20688
1004.4,1.316391,415479,20052
1009.41,1.304966,414358,20531
1013.15,1.324389,412923,19565
1016.89,1.306837,411526,20303
1020.63,1.310481,409066,20013
1024.36,1.316414,406777,19631
1028.09,1.305441,404427,20017
1031.82,1.312339,401911,19579
1036.78,1.316057,398410,19243
1040.49,1.312024,396204,19315
1044.2,1.313021,394236,19175
1047.91,1.318482,392042,18830
1051.61,1.305918,389823,19273
1055.31,1.314082,388234,18837
1059,1.324936,387599,18342
1063.92,1.307785,386688,19036
1067.61,1.323742,386598,18345
1071.29,1.308467,387377,19040
1074.96,1.317241,388536,18715
1078.63,1.318412,389855,18728
1082.3,1.323463,391215,18576
1085.96,1.311148,393215,19208
1090.84,1.318210,396270,19045
1094.49,1.315379,398760,19290
1098.14,1.316629,400987,19342
1101.79,1.322653,403477,19194
1105.43,1.316682,406116,19587
1109.06,1.310486,407701,19946
1112.7,1.331442,409859,19107
1117.53,1.317001,412494,19880
1121.15,1.319340,414909,19889
1124.77,1.325541,416559,19685
1128.38,1.330760,418532,19542
1131.99,1.323196,419956,19953
1135.6,1.316394,421946,20364
1139.2,1.325021,423881,20055
1143.99,1.316807,426786,20578
1147.58,1.318645,428617,20579
1151.17,1.323678,431169,20463
1154.75,1.324172,433579,20554
1158.33,1.309925,436264,21371
1161.91,1.319508,439132,21042
1165.48,1.308285,442389,21753
1169.04,1.319060,446101,21398
1173.79,1.315082,451929,21877
1177.34,1.317239,456026,21966
1180.9,1.318713,461306,22145
1184.44,1.314342,467657,22677
1187.99,1.324901,473969,22431
1191.52,1.323462,479856,22785
1195.06,1.321643,487372,23239
1199.76,1.328335,497347,23352
1203.29,1.323194,504311,23961
1206.81,1.330763,511507,23883
1210.33,1.318301,519078,24942
1213.84,1.327844,527163,24780
1217.35,1.327552,534208,25128
1220.85,1.326318,540472,25495
1225.51,1.325016,549929,26019
1229.01,1.324345,556888,26389
1232.5,1.325533,562180,26567
1235.98,1.324222,567975,26922
1239.46,1.332302,574815,26744
1242.94,1.330778,582782,27210
1246.41,1.321472,591476,28214
1251.03,1.331200,604016,28174
1254.5,1.320816,612289,29251
1257.96,1.333564,619125,28722
1261.41,1.323998,624551,29619
1264.86,1.327555,629900,29629
1268.31,1.327439,634345,29846
1271.75,1.331316,638574,29778
1276.33,1.328528,642499,30154
1279.76,1.331126,645905,30133
1283.19,1.331012,648307,30253
1286.61,1.328940,650446,30498
1290.03,1.332463,652132,30330
1293.44,1.329880,653907,30594
1296.85,1.334392,655963,30373
1301.39,1.330290,657349,30726
1304.8,1.332099,657558,30608
1308.19,1.334921,658515,30454
1311.58,1.331929,658804,30678
1314.97,1.333143,659011,30602
1318.36,1.331578,658272,30678
1321.73,1.326893,658022,30999
1326.23,1.337486,657870,30245
1329.6,1.333921,656482,30430
1332.97,1.336257,654926,30195
1336.33,1.329902,653727,30584
1339.69,1.338936,652497,29898
1343.04,1.338610,649913,29802
1346.39,1.334958,647671,29950
1349.73,1.333768,645338,29924
1354.18,1.328497,641175,30094
1357.52,1.333067,638376,29649
1360.85,1.329618,635805,29765
1364.17,1.330205,633413,29613
1367.49,1.328521,631026,29616
1370.81,1.329337,628050,29421
1374.12,1.332399,625034,29074
1378.54,1.326041,620272,29278
1381.84,1.335745,616892,28475
1385.14,1.328261,613613,28816
1388.43,1.327415,611526,28774
1391.72,1.332958,610663,28369
1395.01,1.331134,610634,28487
1398.29,1.329565,611700,28640
1402.66,1.333634,614051,28482
1405.93,1.329127,616268,28883
1409.2,1.331075,617795,28825
1412.46,1.334507,618872,28648
1415.72,1.332328,619795,28835
1418.98,1.334539,620495,28721
1422.23,1.336483,621087,28620
1426.56,1.334535,621375,28762
1429.8,1.331139,621616,28999
1433.04,1.336741,622129,28651
1436.27,1.332246,621526,28921
1439.5,1.332423,621113,28890
1442.72,1.333870,620921,28785
1445.94,1.335562,620270,28643
1450.23,1.337953,618860,28421
1453.44,1.338621,617697,28324
1456.64,1.333765,616264,28576
1459.85,1.337135,614413,28270
1463.04,1.338835,612307,28063
1466.24,1.338117,610032,28005
1469.43,1.340971,607345,27699
1473.67,1.336606,603789,27815
1476.85,1.339289,601175,27524
1480.02,1.336562,597737,27539
1483.19,1.337116,594479,27354
1486.36,1.335007,591232,27337
1489.52,1.336011,587853,27118
1492.68,1.336390,583875,26911
1496.89,1.336326,578062,26647
1500.03,1.345682,574159,25903
1503.18,1.340018,570285,26066
1506.32,1.335583,565444,26110
1509.45,1.339425,560571,25657
1512.58,1.340392,555821,25383
1515.71,1.344016,550344,24924
1519.87,1.334271,543983,25195
1522.99,1.337052,538764,24794
1526.1,1.339456,533692,24425
1529.21,1.342523,527902,23990
1532.32,1.330595,521886,24377
1535.42,1.341026,515888,23525
1538.51,1.335513,509987,23553
1541.6,1.339836,503936,23043
1545.72,1.343062,494694,22453
1548.8,1.332979,488378,22687
1551.88,1.338562,481832,22097
1554.95,1.337172,474989,21853
1558.02,1.343066,467818,21233
1561.08,1.335945,460730,21257
1564.15,1.338967,454170,20809
1568.22,1.332850,444181,20640
1571.27,1.337298,436947,20097
1574.32,1.335083,429598,19860
1577.36,1.333141,422039,19598
1580.4,1.329167,414375,19419
1583.43,1.337900,406354,18664
1586.46,1.338401,398475,18281
1590.49,1.345900,388982,17540
1593.51,1.337033,380708,17521
1596.53,1.324720,372727,17647
1599.54,1.328049,365060,17152
1602.55,1.326703,357543,16851
1605.55,1.327513,349495,16441
1608.55,1.327530,341154,16048
1612.54,1.329363,330877,15499
1615.53,1.336266,322904,14887
1618.51,1.327945,315116,14809
1621.49,1.320276,307217,14695
1624.47,1.326996,299481,14105
1627.44,1.315745,292112,14119
1630.41,1.331641,284245,13245
1634.36,1.317532,274079,13193
1637.32,1.317066,266916,12862
1640.27,1.313885,259612,12602
1643.22,1.329070,251804,11803
1646.16,1.303611,244348,12145
1649.1,1.327553,236703,11134
1652.04,1.314074,228171,11071
1655.95,1.311659,215408,10510
1658.88,1.296638,204937,10351
1661.8,1.301423,193395,9661
1664.72,1.302550,179728,8955
1667.63,1.286730,163642,8456
1670.54,1.274300,146312,7780
1673.44,1.264198,128451,6991
1677.31,1.266637,105080,5687
1680.21,1.249353,88906,5007
1683.1,1.232590,75033,4392
1685.99,1.256368,63520,3520
1688.87,1.243232,53714,3068
1691.75,1.292860,45653,2326
1694.62,1.259745,39137,2152
1697.49,1.203914,33776,2112
1701.31,1.310930,28175,1377