Folder: textile_sorting_NIRSCAN_/ML/samples/unknown (part 46)

File: Column 1_078291_20241121_165451.csv
Method:,Column 1,,
Host Date-Time:,21/11/24 @ 16:54:51,,
Header Version:,1,,
System Temp (C):,34.45,,
Detector Temp (C):,32.53,,
Humidity (%):,2.2,,
Lamp PD:,3803,,
Shift Vector Coefficients:,-10.5391,0.0761263,-0.000134223,,
Pixel to Wavelength Coefficients:,1775.68,-0.916766,-0.000235065,,
Serial Number:,5510004,,
Scan Config Name:,Column 1,,
Scan Config Type:,Slew,,
Section 1,,
Start wavelength (nm):,900,,
End wavelength (nm):,1700,,
Pattern Pixel Width (nm):,   7.03,,,,
Exposure (ms):,  0.635,,,,
Digital Resolution:,228,,
Num Repeats:,6,,
PGA Gain:,64,,
Total Measurement Time in sec:,  2.735,,
Wavelength (nm),Absorbance (AU),Reference Signal (unitless),Sample Signal (unitless)
901.51,1.311340,108485,5297
905.376,1.318437,121306,5827
909.237,1.297779,131909,6645
913.095,1.297345,143299,7226
916.948,1.314009,156982,7618
922.079,1.321937,179937,8574
925.923,1.332148,200504,9332
929.762,1.320823,222660,10637
933.597,1.305577,244426,12094
937.427,1.315333,263972,12771
941.254,1.323717,281845,13375
945.076,1.302363,297271,14818
950.165,1.305685,315605,15612
953.978,1.316184,328029,15839
957.786,1.302423,340470,16969
961.59,1.315617,352317,17034
965.389,1.303472,363056,18051
969.185,1.298549,373162,18765
972.976,1.308924,382632,18787
976.763,1.300832,391202,19569
981.806,1.301171,400190,20003
985.583,1.305381,406088,20102
989.355,1.306659,410162,20244
993.124,1.303697,412868,20517
996.888,1.309352,414263,20320
1000.65,1.312357,415476,20239
1004.4,1.309643,415479,20366
1009.41,1.304691,414358,20544
1013.15,1.314839,412923,20000
1016.89,1.311439,411526,20089
1020.63,1.309116,409066,20076
1024.36,1.302460,406777,20272
1028.09,1.307507,404427,19922
1031.82,1.303969,401911,19960
1036.78,1.308296,398410,19590
1040.49,1.306017,396204,19584
1044.2,1.312025,394236,19219
1047.91,1.308812,392042,19254
1051.61,1.314061,389823,18915
1055.31,1.310249,388234,19004
1059,1.302893,387599,19297
1063.92,1.306600,386688,19088
1067.61,1.315581,386598,18693
1071.29,1.307146,387377,19098
1074.96,1.310015,388536,19029
1078.63,1.306788,389855,19236
1082.3,1.312908,391215,19033
1085.96,1.305733,393215,19449
1090.84,1.307734,396270,19510
1094.49,1.312462,398760,19420
1098.14,1.312739,400987,19516
1101.79,1.309483,403477,19785
1105.43,1.316372,406116,19601
1109.06,1.321400,407701,19451
1112.7,1.316738,409859,19765
1117.53,1.314583,412494,19991
1121.15,1.316185,414909,20034
1124.77,1.318733,416559,19996
1128.38,1.314190,418532,20302
1131.99,1.323196,419956,19953
1135.6,1.315052,421946,20427
1139.2,1.321141,423881,20235
1143.99,1.319029,426786,20473
1147.58,1.322163,428617,20413
1151.17,1.318048,431169,20730
1154.75,1.315511,433579,20968
1158.33,1.320581,436264,20853
1161.91,1.321515,439132,20945
1165.48,1.319796,442389,21184
1169.04,1.314477,446101,21625
1173.79,1.315341,451929,21864
1177.34,1.319220,456026,21866
1180.9,1.314537,461306,22359
1184.44,1.313290,467657,22732
1187.99,1.315895,473969,22901
1191.52,1.319534,479856,22992
1195.06,1.327457,487372,22930
1199.76,1.323380,497347,23620
1203.29,1.323266,504311,23957
1206.81,1.323943,511507,24261
1210.33,1.317102,519078,25011
1213.84,1.317094,527163,25401
1217.35,1.322620,534208,25415
1220.85,1.319289,540472,25911
1225.51,1.322519,549929,26169
1229.01,1.320331,556888,26634
1232.5,1.320204,562180,26895
1235.98,1.326827,567975,26761
1239.46,1.324656,574815,27219
1242.94,1.320650,582782,27852
1246.41,1.320519,591476,28276
1251.03,1.326676,604016,28469
1254.5,1.324888,612289,28978
1257.96,1.334199,619125,28680
1261.41,1.328389,624551,29321
1264.86,1.326983,629900,29668
1268.31,1.324163,634345,30072
1271.75,1.321710,638574,30444
1276.33,1.326186,642499,30317
1279.76,1.324376,645905,30605
1283.19,1.328108,648307,30456
1286.61,1.326342,650446,30681
1290.03,1.330107,652132,30495
1293.44,1.325698,653907,30890
1296.85,1.331612,655963,30568
1301.39,1.325972,657349,31033
1304.8,1.329651,657558,30781
1308.19,1.331201,658515,30716
1311.58,1.333134,658804,30593
1314.97,1.336319,659011,30379
1318.36,1.334120,658272,30499
1321.73,1.330014,658022,30777
1326.23,1.332121,657870,30621
1329.6,1.329505,656482,30741
1332.97,1.330471,654926,30600
1336.33,1.320964,653727,31220
1339.69,1.329240,652497,30573
1343.04,1.327219,649913,30594
1346.39,1.331837,647671,30166
1349.73,1.330529,645338,30148
1354.18,1.331872,641175,29861
1357.52,1.329129,638376,29919
1360.85,1.332487,635805,29569
1364.17,1.321120,633413,30239
1367.49,1.327861,631026,29661
1370.81,1.335327,628050,29018
1374.12,1.329600,625034,29262
1378.54,1.330379,620272,28987
1381.84,1.329071,616892,28916
1385.14,1.333156,613613,28493
1388.43,1.326977,611526,28803
1391.72,1.323284,610663,29008
1395.01,1.330784,610634,28510
1398.29,1.328082,611700,28738
1402.66,1.324535,614051,29085
1405.93,1.329609,616268,28851
1409.2,1.329916,617795,28902
1412.46,1.327663,618872,29103
1415.72,1.328878,619795,29065
1418.98,1.333572,620495,28785
1422.23,1.332270,621087,28899
1426.56,1.331106,621375,28990
1429.8,1.334597,621616,28769
1433.04,1.338092,622129,28562
1436.27,1.337063,621526,28602
1439.5,1.333160,621113,28841
1442.72,1.337263,620921,28561
1445.94,1.335032,620270,28678
1450.23,1.332909,618860,28753
1453.44,1.338590,617697,28326
1456.64,1.331144,616264,28749
1459.85,1.332581,614413,28568
1463.04,1.334416,612307,28350
1466.24,1.330127,610032,28525
1469.43,1.331956,607345,28280
1473.67,1.333975,603789,27984
1476.85,1.332355,601175,27967
1480.02,1.340809,597737,27271
1483.19,1.339169,594479,27225
1486.36,1.337636,591232,27172
1489.52,1.337423,587853,27030
1492.68,1.334635,583875,27020
1496.89,1.334083,578062,26785
1500.03,1.340648,574159,26205
1503.18,1.346480,570285,25681
1506.32,1.336249,565444,26070
1509.45,1.337516,560571,25770
1512.58,1.332155,555821,25869
1515.71,1.333175,550344,25554
1519.87,1.337871,543983,24987
1522.99,1.341117,538764,24563
1526.1,1.332979,533692,24792
1529.21,1.336197,527902,24342
1532.32,1.335108,521886,24125
1535.42,1.331242,515888,24061
1538.51,1.337324,509987,23455
1541.6,1.336438,503936,23224
1545.72,1.336440,494694,22798
1548.8,1.325784,488378,23066
1551.88,1.338032,481832,22124
1554.95,1.336894,474989,21867
1558.02,1.335422,467818,21610
1561.08,1.334965,460730,21305
1564.15,1.331970,454170,21147
1568.22,1.335298,444181,20524
1571.27,1.332612,436947,20315
1574.32,1.324839,429598,20334
1577.36,1.330424,422039,19721
1580.4,1.335701,414375,19129
1583.43,1.334700,406354,18802
1586.46,1.330328,398475,18624
1590.49,1.341490,388982,17719
1593.51,1.332447,380708,17707
1596.53,1.330916,372727,17397
1599.54,1.326129,365060,17228
1602.55,1.334058,357543,16568
1605.55,1.332347,349495,16259
1608.55,1.325397,341154,16127
1612.54,1.320652,330877,15813
1615.53,1.333040,322904,14998
1618.51,1.339234,315116,14429
1621.49,1.327968,307217,14437
1624.47,1.335453,299481,13833
1627.44,1.322503,292112,13901
1630.41,1.324003,284245,13480
1634.36,1.314710,274079,13279
1637.32,1.338806,266916,12234
1640.27,1.324031,259612,12311
1643.22,1.312820,251804,12253
1646.16,1.323326,244348,11606
1649.1,1.310458,236703,11581
1652.04,1.323231,228171,10840
1655.95,1.313025,215408,10477
1658.88,1.303702,204937,10184
1661.8,1.288404,193395,9955
1664.72,1.288474,179728,9250
1667.63,1.269116,163642,8806
1670.54,1.252420,146312,8182
1673.44,1.254431,128451,7150
1677.31,1.179473,105080,6951
1680.21,1.194201,88906,5685
1683.1,1.163445,75033,5150
1685.99,1.194384,63520,4060
1688.87,1.255580,53714,2982
1691.75,1.167968,45653,3101
1694.62,1.147451,39137,2787
1697.49,1.175077,33776,2257
1701.31,1.252308,28175,1576

File: Column 1_078292_20241121_165454.csv
Method:,Column 1,,
Host Date-Time:,21/11/24 @ 16:54:54,,
Header Version:,1,,
System Temp (C):,34.43,,
Detector Temp (C):,32.48,,
Humidity (%):,2.2,,
Lamp PD:,3802,,
Shift Vector Coefficients:,-10.5391,0.0761263,-0.000134223,,
Pixel to Wavelength Coefficients:,1775.68,-0.916766,-0.000235065,,
Serial Number:,5510004,,
Scan Config Name:,Column 1,,
Scan Config Type:,Slew,,
Section 1,,
Start wavelength (nm):,900,,
End wavelength (nm):,1700,,
Pattern Pixel Width (nm):,   7.03,,,,
Exposure (ms):,  0.635,,,,
Digital Resolution:,228,,
Num Repeats:,6,,
PGA Gain:,64,,
Total Measurement Time in sec:,  2.723,,
Wavelength (nm),Absorbance (AU),Reference Signal (unitless),Sample Signal (unitless)
901.51,1.325930,108485,5122
905.376,1.309292,121306,5951
909.237,1.306427,131909,6514
913.095,1.325654,143299,6770
916.948,1.309190,156982,7703
922.079,1.328418,179937,8447
925.923,1.346435,200504,9030
929.762,1.333963,222660,10320
933.597,1.312017,244426,11916
937.427,1.327331,263972,12423
941.254,1.316535,281845,13598
945.076,1.328734,297271,13945
950.165,1.326249,315605,14890
953.978,1.308224,328029,16132
957.786,1.315913,340470,16450
961.59,1.314471,352317,17079
965.389,1.321626,363056,17312
969.185,1.311945,373162,18195
972.976,1.310197,382632,18732
976.763,1.308625,391202,19221
981.806,1.310675,400190,19570
985.583,1.320237,406088,19426
989.355,1.311969,410162,19998
993.124,1.306117,412868,20403
996.888,1.315032,414263,20056
1000.65,1.309853,415476,20356
1004.4,1.314252,415479,20151
1009.41,1.308427,414358,20368
1013.15,1.310367,412923,20207
1016.89,1.326528,411526,19403
1020.63,1.305690,409066,20235
1024.36,1.308261,406777,20003
1028.09,1.305897,404427,19996
1031.82,1.310679,401911,19654
1036.78,1.315246,398410,19279
1040.49,1.311597,396204,19334
1044.2,1.315679,394236,19058
1047.91,1.314191,392042,19017
1051.61,1.311064,389823,19046
1055.31,1.317600,388234,18685
1059,1.310544,387599,18960
1063.92,1.317544,386688,18613
1067.61,1.310040,386598,18933
1071.29,1.310227,387377,18963
1074.96,1.314927,388536,18815
1078.63,1.311464,389855,19030
1082.3,1.317542,391215,18831
1085.96,1.309748,393215,19270
1090.84,1.320841,396270,18930
1094.49,1.327062,398760,18778
1098.14,1.316090,400987,19366
1101.79,1.313230,403477,19615
1105.43,1.310671,406116,19860
1109.06,1.314687,407701,19754
1112.7,1.322578,409859,19501
1117.53,1.319125,412494,19783
1121.15,1.319646,414909,19875
1124.77,1.319472,416559,19962
1128.38,1.318857,418532,20085
1131.99,1.321631,419956,20025
1135.6,1.313673,421946,20492
1139.2,1.320626,423881,20259
1143.99,1.322885,426786,20292
1147.58,1.324039,428617,20325
1151.17,1.327087,431169,20303
1154.75,1.316029,433579,20943
1158.33,1.315549,436264,21096
1161.91,1.320210,439132,21008
1165.48,1.325824,442389,20892
1169.04,1.320463,446101,21329
1173.79,1.315957,451929,21833
1177.34,1.318962,456026,21879
1180.9,1.318361,461306,22163
1184.44,1.313882,467657,22701
1187.99,1.315270,473969,22934
1191.52,1.326561,479856,22623
1195.06,1.323272,487372,23152
1199.76,1.325481,497347,23506
1203.29,1.322578,504311,23995
1206.81,1.322156,511507,24361
1210.33,1.329823,519078,24289
1213.84,1.321597,527163,25139
1217.35,1.323219,534208,25380
1220.85,1.324907,540472,25578
1225.51,1.326086,549929,25955
1229.01,1.321605,556888,26556
1232.5,1.330498,562180,26265
1235.98,1.324399,567975,26911
1239.46,1.325327,574815,27177
1242.94,1.323952,582782,27641
1246.41,1.327065,591476,27853
1251.03,1.329139,604016,28308
1254.5,1.326630,612289,28862
1257.96,1.327572,619125,29121
1261.41,1.329086,624551,29274
1264.86,1.328024,629900,29597
1268.31,1.330667,634345,29625
1271.75,1.331739,638574,29749
1276.33,1.328974,642499,30123
1279.76,1.327238,645905,30404
1283.19,1.331199,648307,30240
1286.61,1.326441,650446,30674
1290.03,1.328189,652132,30630
1293.44,1.332957,653907,30378
1296.85,1.332266,655963,30522
1301.39,1.328428,657349,30858
1304.8,1.331234,657558,30669
1308.19,1.336521,658515,30342
1311.58,1.328250,658804,30939
1314.97,1.336934,659011,30336
1318.36,1.332727,658272,30597
1321.73,1.333884,658022,30504
1326.23,1.335538,657870,30381
1329.6,1.331601,656482,30593
1332.97,1.330343,654926,30609
1336.33,1.328853,653727,30658
1339.69,1.336185,652497,30088
1343.04,1.333554,649913,30151
1346.39,1.331722,647671,30174
1349.73,1.327457,645338,30362
1354.18,1.332207,641175,29838
1357.52,1.333667,638376,29608
1360.85,1.328889,635805,29815
1364.17,1.332690,633413,29444
1367.49,1.330019,631026,29514
1370.81,1.334579,628050,29068
1374.12,1.331802,625034,29114
1378.54,1.328764,620272,29095
1381.84,1.322867,616892,29332
1385.14,1.327478,613613,28868
1388.43,1.330170,611526,28592
1391.72,1.328692,610663,28649
1395.01,1.329673,610634,28583
1398.29,1.331191,611700,28533
1402.66,1.327111,614051,28913
1405.93,1.328286,616268,28939
1409.2,1.324956,617795,29234
1412.46,1.327648,618872,29104
1415.72,1.330945,619795,28927
1418.98,1.336934,620495,28563
1422.23,1.326552,621087,29282
1426.56,1.330223,621375,29049
1429.8,1.336246,621616,28660
1433.04,1.334790,622129,28780
1436.27,1.334595,621526,28765
1439.5,1.332769,621113,28867
1442.72,1.332364,620921,28885
1445.94,1.336807,620270,28561
1450.23,1.337586,618860,28445
1453.44,1.331473,617697,28794
1456.64,1.338564,616264,28262
1459.85,1.336367,614413,28320
1463.04,1.337661,612307,28139
1466.24,1.336615,610032,28102
1469.43,1.333602,607345,28173
1473.67,1.334690,603789,27938
1476.85,1.336427,601175,27706
1480.02,1.337920,597737,27453
1483.19,1.340159,594479,27163
1486.36,1.344450,591232,26749
1489.52,1.344175,587853,26613
1492.68,1.341961,583875,26568
1496.89,1.335756,578062,26682
1500.03,1.341162,574159,26174
1503.18,1.343228,570285,25874
1506.32,1.337249,565444,26010
1509.45,1.337853,560571,25750
1512.58,1.334293,555821,25742
1515.71,1.339561,550344,25181
1519.87,1.339962,543983,24867
1522.99,1.333215,538764,25014
1526.1,1.340132,533692,24387
1529.21,1.332060,527902,24575
1532.32,1.344259,521886,23622
1535.42,1.337624,515888,23710
1538.51,1.336454,509987,23502
1541.6,1.338839,503936,23096
1545.72,1.338349,494694,22698
1548.8,1.331107,488378,22785
1551.88,1.335468,481832,22255
1554.95,1.340905,474989,21666
1558.02,1.330427,467818,21860
1561.08,1.333175,460730,21393
1564.15,1.343457,454170,20595
1568.22,1.340728,444181,20269
1571.27,1.337189,436947,20102
1574.32,1.347460,429598,19302
1577.36,1.329500,422039,19763
1580.4,1.334002,414375,19204
1583.43,1.332121,406354,18914
1586.46,1.330351,398475,18623
1590.49,1.335696,388982,17957
1593.51,1.328662,380708,17862
1596.53,1.333646,372727,17288
1599.54,1.325022,365060,17272
1602.55,1.322522,357543,17014
1605.55,1.326457,349495,16481
1608.55,1.328939,341154,15996
1612.54,1.337138,330877,15224
1615.53,1.328288,322904,15163
1618.51,1.325401,315116,14896
1621.49,1.318124,307217,14768
1624.47,1.324754,299481,14178
1627.44,1.323442,292112,13871
1630.41,1.324938,284245,13451
1634.36,1.313111,274079,13328
1637.32,1.308938,266916,13105
1640.27,1.316270,259612,12533
1643.22,1.311900,251804,12279
1646.16,1.308972,244348,11996
1649.1,1.316120,236703,11431
1652.04,1.311804,228171,11129
1655.95,1.310298,215408,10543
1658.88,1.301617,204937,10233
1661.8,1.288448,193395,9954
1664.72,1.276435,179728,9510
1667.63,1.271440,163642,8759
1670.54,1.257761,146312,8082
1673.44,1.246964,128451,7274
1677.31,1.218883,105080,6348
1680.21,1.203622,88906,5563
1683.1,1.221172,75033,4509
1685.99,1.172991,63520,4265
1688.87,1.209342,53714,3317
1691.75,1.220927,45653,2745
1694.62,1.246430,39137,2219
1697.49,1.220257,33776,2034
1701.31,1.235285,28175,1639

File: Column 1_078293_20241121_165457.csv
Method:,Column 1,,
Host Date-Time:,21/11/24 @ 16:54:57,,
Header Version:,1,,
System Temp (C):,34.42,,
Detector Temp (C):,32.51,,
Humidity (%):,2.25,,
Lamp PD:,3802,,
Shift Vector Coefficients:,-10.5391,0.0761263,-0.000134223,,
Pixel to Wavelength Coefficients:,1775.68,-0.916766,-0.000235065,,
Serial Number:,5510004,,
Scan Config Name:,Column 1,,
Scan Config Type:,Slew,,
Section 1,,
Start wavelength (nm):,900,,
End wavelength (nm):,1700,,
Pattern Pixel Width (nm):,   7.03,,,,
Exposure (ms):,  0.635,,,,
Digital Resolution:,228,,
Num Repeats:,6,,
PGA Gain:,64,,
Total Measurement Time in sec:,  2.729,,
Wavelength (nm),Absorbance (AU),Reference Signal (unitless),Sample Signal (unitless)
901.51,1.295481,108485,5494
905.376,1.317767,121306,5836
909.237,1.313755,131909,6405
913.095,1.303519,143299,7124
916.948,1.324219,156982,7441
922.079,1.301554,179937,8986
925.923,1.317371,200504,9655
929.762,1.316759,222660,10737
933.597,1.329152,244426,11455
937.427,1.309288,263972,12950
941.254,1.320707,281845,13468
945.076,1.314067,297271,14424
950.165,1.328120,315605,14826
953.978,1.316431,328029,15830
957.786,1.302269,340470,16975
961.59,1.307985,352317,17336
965.389,1.318128,363056,17452
969.185,1.307954,373162,18363
972.976,1.306388,382632,18897
976.763,1.306979,391202,19294
981.806,1.304549,400190,19848
985.583,1.310160,406088,19882
989.355,1.309846,410162,20096
993.124,1.305777,412868,20419
996.888,1.313195,414263,20141
1000.65,1.308235,415476,20432
1004.4,1.305167,415479,20577
1009.41,1.315456,414358,20041
1013.15,1.313668,412923,20054
1016.89,1.309541,411526,20177
1020.63,1.311633,409066,19960
1024.36,1.313591,406777,19759
1028.09,1.304509,404427,20060
1031.82,1.305190,401911,19904
1036.78,1.306747,398410,19660
1040.49,1.311979,396204,19317
1044.2,1.304543,394236,19553
1047.91,1.310801,392042,19166
1051.61,1.308404,389823,19163
1055.31,1.309723,388234,19027
1059,1.304765,387599,19214
1063.92,1.308424,386688,19008
1067.61,1.315790,386598,18684
1071.29,1.315063,387377,18753
1074.96,1.314212,388536,18846
1078.63,1.319829,389855,18667
1082.3,1.319831,391215,18732
1085.96,1.316059,393215,18992
1090.84,1.309496,396270,19431
1094.49,1.324641,398760,18883
1098.14,1.309591,400987,19658
1101.79,1.310714,403477,19729
1105.43,1.321386,406116,19376
1109.06,1.322294,407701,19411
1112.7,1.316870,409859,19759
1117.53,1.317613,412494,19852
1121.15,1.315925,414909,20046
1124.77,1.314971,416559,20170
1128.38,1.321307,418532,19972
1131.99,1.324591,419956,19889
1135.6,1.313503,421946,20500
1139.2,1.319192,423881,20326
1143.99,1.316638,426786,20586
1147.58,1.314633,428617,20770
1151.17,1.320148,431169,20630
1154.75,1.327800,433579,20383
1158.33,1.332553,436264,20286
1161.91,1.324782,439132,20788
1165.48,1.308625,442389,21736
1169.04,1.308850,446101,21907
1173.79,1.322430,451929,21510
1177.34,1.319121,456026,21871
1180.9,1.321093,461306,22024
1184.44,1.318266,467657,22473
1187.99,1.323625,473969,22497
1191.52,1.323386,479856,22789
1195.06,1.322878,487372,23173
1199.76,1.326683,497347,23441
1203.29,1.316967,504311,24307
1206.81,1.323549,511507,24283
1210.33,1.329323,519078,24317
1213.84,1.325467,527163,24916
1217.35,1.328504,534208,25073
1220.85,1.327410,540472,25431
1225.51,1.322022,549929,26199
1229.01,1.323014,556888,26470
1232.5,1.332603,562180,26138
1235.98,1.323722,567975,26953
1239.46,1.323286,574815,27305
1242.94,1.321555,582782,27794
1246.41,1.317717,591476,28459
1251.03,1.318740,604016,28994
1254.5,1.327443,612289,28808
1257.96,1.325000,619125,29294
1261.41,1.327058,624551,29411
1264.86,1.335408,629900,29098
1268.31,1.327396,634345,29849
1271.75,1.332104,638574,29724
1276.33,1.328902,642499,30128
1279.76,1.328425,645905,30321
1283.19,1.335297,648307,29956
1286.61,1.331754,650446,30301
1290.03,1.329979,652132,30504
1293.44,1.334346,653907,30281
1296.85,1.326991,655963,30895
1301.39,1.331281,657349,30656
1304.8,1.332156,657558,30604
1308.19,1.331201,658515,30716
1311.58,1.333361,658804,30577
1314.97,1.329694,659011,30846
1318.36,1.337996,658272,30228
1321.73,1.333087,658022,30560
1326.23,1.325380,657870,31100
1329.6,1.335379,656482,30328
1332.97,1.334578,654926,30312
1336.33,1.336426,653727,30128
1339.69,1.329397,652497,30562
1343.04,1.338013,649913,29843
1346.39,1.327453,647671,30472
1349.73,1.335717,645338,29790
1354.18,1.330826,641175,29933
1357.52,1.333154,638376,29643
1360.85,1.328118,635805,29868
1364.17,1.327252,633413,29815
1367.49,1.331552,631026,29410
1370.81,1.328570,628050,29473
1374.12,1.329644,625034,29259
1378.54,1.324427,620272,29387
1381.84,1.325854,616892,29131
1385.14,1.328517,613613,28799
1388.43,1.329988,611526,28604
1391.72,1.329587,610663,28590
1395.01,1.326373,610634,28801
1398.29,1.329808,611700,28624
1402.66,1.323253,614051,29171
1405.93,1.331102,616268,28752
1409.2,1.329916,617795,28902
1412.46,1.333190,618872,28735
1415.72,1.332916,619795,28796
1418.98,1.328219,620495,29142
1422.23,1.333579,621087,28812
1426.56,1.334716,621375,28750
1429.8,1.326417,621616,29316
1433.04,1.332187,622129,28953
1436.27,1.336289,621526,28653
1439.5,1.333145,621113,28842
1442.72,1.332620,620921,28868
1445.94,1.332691,620270,28833
1450.23,1.327625,618860,29105
1453.44,1.333712,617697,28646
1456.64,1.338011,616264,28298
1459.85,1.335509,614413,28376
1463.04,1.335521,612307,28278
1466.24,1.335258,610032,28190
1469.43,1.333865,607345,28156
1473.67,1.337169,603789,27779
1476.85,1.331037,601175,28052
1480.02,1.337146,597737,27502
1483.19,1.334378,594479,27527
1486.36,1.339478,591232,27057
1489.52,1.335419,587853,27155
1492.68,1.335745,583875,26951
1496.89,1.341045,578062,26359
1500.03,1.337379,574159,26403
1503.18,1.338288,570285,26170
1506.32,1.338453,565444,25938
1509.45,1.333006,560571,26039
1512.58,1.340495,555821,25377
1515.71,1.335271,550344,25431
1519.87,1.333565,543983,25236
1522.99,1.347852,538764,24185
1526.1,1.338408,533692,24484
1529.21,1.335644,527902,24373
1532.32,1.339051,521886,23907
1535.42,1.333740,515888,23923
1538.51,1.340334,509987,23293
1541.6,1.343128,503936,22869
1545.72,1.346324,494694,22285
1548.8,1.335899,488378,22535
1551.88,1.336836,481832,22185
1554.95,1.337014,474989,21861
1558.02,1.332218,467818,21770
1561.08,1.336006,460730,21254
1564.15,1.331990,454170,21146
1568.22,1.340663,444181,20272
1571.27,1.337990,436947,20065
1574.32,1.342983,429598,19502
1577.36,1.328359,422039,19815
1580.4,1.337544,414375,19048
1583.43,1.326192,406354,19174
1586.46,1.336221,398475,18373
1590.49,1.328334,388982,18264
1593.51,1.329100,380708,17844
1596.53,1.326323,372727,17582
1599.54,1.329749,365060,17085
1602.55,1.317775,357543,17201
1605.55,1.319141,349495,16761
1608.55,1.324402,341154,16164
1612.54,1.324182,330877,15685
1615.53,1.337201,322904,14855
1618.51,1.318230,315116,15144
1621.49,1.330412,307217,14356
1624.47,1.315781,299481,14474
1627.44,1.313047,292112,14207
1630.41,1.315106,284245,13759
1634.36,1.324969,274079,12969
1637.32,1.318961,266916,12806
1640.27,1.309667,259612,12725
1643.22,1.314774,251804,12198
1646.16,1.303647,244348,12144
1649.1,1.313922,236703,11489
1652.04,1.304683,228171,11313
1655.95,1.293570,215408,10957
1658.88,1.300727,204937,10254
1661.8,1.293803,193395,9832
1664.72,1.276253,179728,9514
1667.63,1.265824,163642,8873
1670.54,1.262299,146312,7998
1673.44,1.241093,128451,7373
1677.31,1.234840,105080,6119
1680.21,1.196498,88906,5655
1683.1,1.192025,75033,4822
1685.99,1.230736,63520,3734
1688.87,1.162826,53714,3692
1691.75,1.193343,45653,2925
1694.62,1.189810,39137,2528
1697.49,1.157725,33776,2349
1701.31,1.238210,28175,1628