Folder: textile_sorting_NIRSCAN_/ML/samples/unknown (part 15)

File: Column 1_078100_20241121_164528.csv
Method:,Column 1,,
Host Date-Time:,21/11/24 @ 16:45:28,,
Header Version:,1,,
System Temp (C):,32.31,,
Detector Temp (C):,27.46,,
Humidity (%):,4.2,,
Lamp PD:,3807,,
Shift Vector Coefficients:,-10.5391,0.0761263,-0.000134223,,
Pixel to Wavelength Coefficients:,1775.68,-0.916766,-0.000235065,,
Serial Number:,5510004,,
Scan Config Name:,Column 1,,
Scan Config Type:,Slew,,
Section 1,,
Start wavelength (nm):,900,,
End wavelength (nm):,1700,,
Pattern Pixel Width (nm):,   7.03,,,,
Exposure (ms):,  0.635,,,,
Digital Resolution:,228,,
Num Repeats:,6,,
PGA Gain:,64,,
Total Measurement Time in sec:,  2.707,,
Wavelength (nm),Absorbance (AU),Reference Signal (unitless),Sample Signal (unitless)
901.51,1.293824,108485,5515
905.376,1.317172,121306,5844
909.237,1.304033,131909,6550
913.095,1.329327,143299,6713
916.948,1.307783,156982,7728
922.079,1.306610,179937,8882
925.923,1.294503,200504,10177
929.762,1.305027,222660,11031
933.597,1.309836,244426,11976
937.427,1.317037,263972,12721
941.254,1.314051,281845,13676
945.076,1.312384,297271,14480
950.165,1.319219,315605,15133
953.978,1.317503,328029,15791
957.786,1.316759,340470,16418
961.59,1.310648,352317,17230
965.389,1.313549,363056,17637
969.185,1.308451,373162,18342
972.976,1.309919,382632,18744
976.763,1.305832,391202,19345
981.806,1.306963,400190,19738
985.583,1.306918,406088,20031
989.355,1.312230,410162,19986
993.124,1.299568,412868,20713
996.888,1.314426,414263,20084
1000.65,1.303584,415476,20652
1004.4,1.310198,415479,20340
1009.41,1.318501,414358,19901
1013.15,1.308972,412923,20272
1016.89,1.311980,411526,20064
1020.63,1.297652,409066,20613
1024.36,1.305556,406777,20128
1028.09,1.314318,404427,19612
1031.82,1.312362,401911,19578
1036.78,1.313537,398410,19355
1040.49,1.312564,396204,19291
1044.2,1.308290,394236,19385
1047.91,1.318851,392042,18814
1051.61,1.318887,389823,18706
1055.31,1.315028,388234,18796
1059,1.316518,387599,18701
1063.92,1.307625,386688,19043
1067.61,1.318097,386598,18585
1071.29,1.313837,387377,18806
1074.96,1.312143,388536,18936
1078.63,1.310052,389855,19092
1082.3,1.314440,391215,18966
1085.96,1.314302,393215,19069
1090.84,1.311445,396270,19344
1094.49,1.318067,398760,19171
1098.14,1.319535,400987,19213
1101.79,1.315472,403477,19514
1105.43,1.317748,406116,19539
1109.06,1.315325,407701,19725
1112.7,1.324363,409859,19421
1117.53,1.320291,412494,19730
1121.15,1.325187,414909,19623
1124.77,1.320126,416559,19932
1128.38,1.319701,418532,20046
1131.99,1.313914,419956,20384
1135.6,1.316181,421946,20374
1139.2,1.324048,423881,20100
1143.99,1.325612,426786,20165
1147.58,1.320273,428617,20502
1151.17,1.320338,431169,20621
1154.75,1.319256,433579,20788
1158.33,1.315385,436264,21104
1161.91,1.324950,439132,20780
1165.48,1.326948,442389,20838
1169.04,1.318411,446101,21430
1173.79,1.317112,451929,21775
1177.34,1.317634,456026,21946
1180.9,1.314207,461306,22376
1184.44,1.316993,467657,22539
1187.99,1.319820,473969,22695
1191.52,1.321086,479856,22910
1195.06,1.329183,487372,22839
1199.76,1.326443,497347,23454
1203.29,1.322849,504311,23980
1206.81,1.321480,511507,24399
1210.33,1.325588,519078,24527
1213.84,1.326881,527163,24835
1217.35,1.323099,534208,25387
1220.85,1.323821,540472,25642
1225.51,1.324782,549929,26033
1229.01,1.328163,556888,26158
1232.5,1.320575,562180,26872
1235.98,1.325757,567975,26827
1239.46,1.330196,574815,26874
1242.94,1.327771,582782,27399
1246.41,1.324996,591476,27986
1251.03,1.324865,604016,28588
1254.5,1.326495,612289,28871
1257.96,1.328468,619125,29061
1261.41,1.323031,624551,29685
1264.86,1.324138,629900,29863
1268.31,1.320697,634345,30313
1271.75,1.329656,638574,29892
1276.33,1.331273,642499,29964
1279.76,1.327738,645905,30369
1283.19,1.325733,648307,30623
1286.61,1.331081,650446,30348
1290.03,1.328160,652132,30632
1293.44,1.338525,653907,29991
1296.85,1.331314,655963,30589
1301.39,1.336669,657349,30278
1304.8,1.327245,657558,30952
1308.19,1.336521,658515,30342
1311.58,1.332680,658804,30625
1314.97,1.338541,659011,30224
1318.36,1.329685,658272,30812
1321.73,1.326151,658022,31052
1326.23,1.328688,657870,30864
1329.6,1.332695,656482,30516
1332.97,1.334965,654926,30285
1336.33,1.332852,653727,30377
1339.69,1.328403,652497,30632
1343.04,1.334419,649913,30091
1346.39,1.332442,647671,30124
1349.73,1.327371,645338,30368
1354.18,1.331494,641175,29887
1357.52,1.329246,638376,29911
1360.85,1.329720,635805,29758
1364.17,1.327383,633413,29806
1367.49,1.330122,631026,29507
1370.81,1.330830,628050,29320
1374.12,1.332145,625034,29091
1378.54,1.329615,620272,29038
1381.84,1.333175,616892,28644
1385.14,1.329272,613613,28749
1388.43,1.334936,611526,28280
1391.72,1.332514,610663,28398
1395.01,1.328884,610634,28635
1398.29,1.328384,611700,28718
1402.66,1.333588,614051,28485
1405.93,1.325981,616268,29093
1409.2,1.332207,617795,28750
1412.46,1.334294,618872,28662
1415.72,1.335032,619795,28656
1418.98,1.337193,620495,28546
1422.23,1.331444,621087,28954
1426.56,1.331540,621375,28961
1429.8,1.330810,621616,29021
1433.04,1.330450,622129,29069
1436.27,1.333404,621526,28844
1439.5,1.333673,621113,28807
1442.72,1.337020,620921,28577
1445.94,1.332736,620270,28830
1450.23,1.334817,618860,28627
1453.44,1.340850,617697,28179
1456.64,1.342531,616264,28005
1459.85,1.335739,614413,28361
1463.04,1.337784,612307,28131
1466.24,1.335859,610032,28151
1469.43,1.338096,607345,27883
1473.67,1.339316,603789,27642
1476.85,1.337180,601175,27658
1480.02,1.334187,597737,27690
1483.19,1.335309,594479,27468
1486.36,1.340764,591232,26977
1489.52,1.328926,587853,27564
1492.68,1.335069,583875,26993
1496.89,1.335903,578062,26673
1500.03,1.362292,574159,24931
1503.18,1.341470,570285,25979
1506.32,1.338369,565444,25943
1509.45,1.340934,560571,25568
1512.58,1.338173,555821,25513
1515.71,1.336382,550344,25366
1519.87,1.336518,543983,25065
1522.99,1.340463,538764,24600
1526.1,1.345418,533692,24092
1529.21,1.342288,527902,24003
1532.32,1.339960,521886,23857
1535.42,1.341469,515888,23501
1538.51,1.338343,509987,23400
1541.6,1.339328,503936,23070
1545.72,1.338406,494694,22695
1548.8,1.331813,488378,22748
1551.88,1.335351,481832,22261
1554.95,1.340985,474989,21662
1558.02,1.342207,467818,21275
1561.08,1.342823,460730,20923
1564.15,1.337696,454170,20870
1568.22,1.330856,444181,20735
1571.27,1.338055,436947,20062
1574.32,1.335302,429598,19850
1577.36,1.332366,422039,19633
1580.4,1.335883,414375,19121
1583.43,1.334077,406354,18829
1586.46,1.331870,398475,18558
1590.49,1.341049,388982,17737
1593.51,1.334488,380708,17624
1596.53,1.333948,372727,17276
1599.54,1.339544,365060,16704
1602.55,1.326935,357543,16842
1605.55,1.334060,349495,16195
1608.55,1.339130,341154,15625
1612.54,1.329027,330877,15511
1615.53,1.325861,322904,15248
1618.51,1.317113,315116,15183
1621.49,1.331806,307217,14310
1624.47,1.330862,299481,13980
1627.44,1.319608,292112,13994
1630.41,1.312996,284245,13826
1634.36,1.335579,274079,12656
1637.32,1.321512,266916,12731
1640.27,1.328036,259612,12198
1643.22,1.318960,251804,12081
1646.16,1.323813,244348,11593
1649.1,1.305721,236703,11708
1652.04,1.314152,228171,11069
1655.95,1.296992,215408,10871
1658.88,1.313448,204937,9958
1661.8,1.294821,193395,9809
1664.72,1.304982,179728,8905
1667.63,1.312654,163642,7966
1670.54,1.305901,146312,7234
1673.44,1.292297,128451,6553
1677.31,1.309544,105080,5152
1680.21,1.322180,88906,4234
1683.1,1.281081,75033,3928
1685.99,1.293036,63520,3235
1688.87,1.250368,53714,3018
1691.75,1.302106,45653,2277
1694.62,1.354040,39137,1732
1697.49,1.250083,33776,1899
1701.31,1.391818,28175,1143

File: Column 1_078101_20241121_164531.csv
Method:,Column 1,,
Host Date-Time:,21/11/24 @ 16:45:31,,
Header Version:,1,,
System Temp (C):,32.39,,
Detector Temp (C):,27.49,,
Humidity (%):,4.15,,
Lamp PD:,3807,,
Shift Vector Coefficients:,-10.5391,0.0761263,-0.000134223,,
Pixel to Wavelength Coefficients:,1775.68,-0.916766,-0.000235065,,
Serial Number:,5510004,,
Scan Config Name:,Column 1,,
Scan Config Type:,Slew,,
Section 1,,
Start wavelength (nm):,900,,
End wavelength (nm):,1700,,
Pattern Pixel Width (nm):,   7.03,,,,
Exposure (ms):,  0.635,,,,
Digital Resolution:,228,,
Num Repeats:,6,,
PGA Gain:,64,,
Total Measurement Time in sec:,  2.674,,
Wavelength (nm),Absorbance (AU),Reference Signal (unitless),Sample Signal (unitless)
901.51,1.300890,108485,5426
905.376,1.313693,121306,5891
909.237,1.293940,131909,6704
913.095,1.284962,143299,7435
916.948,1.314237,156982,7614
922.079,1.300058,179937,9017
925.923,1.317956,200504,9642
929.762,1.322664,222660,10592
933.597,1.301218,244426,12216
937.427,1.313094,263972,12837
941.254,1.317239,281845,13576
945.076,1.299704,297271,14909
950.165,1.299745,315605,15827
953.978,1.305861,328029,16220
957.786,1.310456,340470,16658
961.59,1.312062,352317,17174
965.389,1.315227,363056,17569
969.185,1.324219,373162,17688
972.976,1.322281,382632,18218
976.763,1.304197,391202,19418
981.806,1.304047,400190,19871
985.583,1.308220,406088,19971
989.355,1.306380,410162,20257
993.124,1.306564,412868,20382
996.888,1.314448,414263,20083
1000.65,1.323573,415476,19723
1004.4,1.310946,415479,20305
1009.41,1.311358,414358,20231
1013.15,1.312738,412923,20097
1016.89,1.313976,411526,19972
1020.63,1.307928,409066,20131
1024.36,1.308500,406777,19992
1028.09,1.307703,404427,19913
1031.82,1.311630,401911,19611
1036.78,1.316916,398410,19205
1040.49,1.315387,396204,19166
1044.2,1.306636,394236,19459
1047.91,1.319822,392042,18772
1051.61,1.305535,389823,19290
1055.31,1.313552,388234,18860
1059,1.305511,387599,19181
1063.92,1.318058,386688,18591
1067.61,1.312917,386598,18808
1071.29,1.310914,387377,18933
1074.96,1.319288,388536,18627
1078.63,1.318481,389855,18725
1082.3,1.313456,391215,19009
1085.96,1.321791,393215,18743
1090.84,1.320038,396270,18965
1094.49,1.309765,398760,19541
1098.14,1.317348,400987,19310
1101.79,1.316163,403477,19483
1105.43,1.326141,406116,19165
1109.06,1.319995,407701,19514
1112.7,1.318918,409859,19666
1117.53,1.318314,412494,19820
1121.15,1.315449,414909,20068
1124.77,1.320671,416559,19907
1128.38,1.312375,418532,20387
1131.99,1.326363,419956,19808
1135.6,1.307841,421946,20769
1139.2,1.325195,423881,20047
1143.99,1.315185,426786,20655
1147.58,1.325902,428617,20238
1151.17,1.315021,431169,20875
1154.75,1.325844,433579,20475
1158.33,1.323066,436264,20734
1161.91,1.325263,439132,20765
1165.48,1.320207,442389,21164
1169.04,1.322095,446101,21249
1173.79,1.321160,451929,21573
1177.34,1.318129,456026,21921
1180.9,1.316698,461306,22248
1184.44,1.319602,467657,22404
1187.99,1.319628,473969,22705
1191.52,1.316372,479856,23160
1195.06,1.326681,487372,22971
1199.76,1.321087,497347,23745
1203.29,1.325848,504311,23815
1206.81,1.326600,511507,24113
1210.33,1.325075,519078,24556
1213.84,1.325519,527163,24913
1217.35,1.329093,534208,25039
1220.85,1.322536,540472,25718
1225.51,1.332627,549929,25567
1229.01,1.324361,556888,26388
1232.5,1.323104,562180,26716
1235.98,1.323400,567975,26973
1239.46,1.328615,574815,26972
1242.94,1.319249,582782,27942
1246.41,1.325478,591476,27955
1251.03,1.325731,604016,28531
1254.5,1.325368,612289,28946
1257.96,1.323579,619125,29390
1261.41,1.326763,624551,29431
1264.86,1.326808,629900,29680
1268.31,1.327512,634345,29841
1271.75,1.332777,638574,29678
1276.33,1.329104,642499,30114
1279.76,1.332281,645905,30053
1283.19,1.335471,648307,29944
1286.61,1.329424,650446,30464
1290.03,1.331433,652132,30402
1293.44,1.332314,653907,30423
1296.85,1.336571,655963,30221
1301.39,1.333340,657349,30511
1304.8,1.331943,657558,30619
1308.19,1.329226,658515,30856
1311.58,1.328896,658804,30893
1314.97,1.332519,659011,30646
1318.36,1.335589,658272,30396
1321.73,1.332363,658022,30611
1326.23,1.333570,657870,30519
1329.6,1.331956,656482,30568
1332.97,1.327486,654926,30811
1336.33,1.325017,653727,30930
1339.69,1.325084,652497,30867
1343.04,1.337867,649913,29853
1346.39,1.331765,647671,30171
1349.73,1.328603,645338,30282
1354.18,1.334074,641175,29710
1357.52,1.328839,638376,29939
1360.85,1.331197,635805,29657
1364.17,1.326161,633413,29890
1367.49,1.328154,631026,29641
1370.81,1.328879,628050,29452
1374.12,1.332608,625034,29060
1378.54,1.328615,620272,29105
1381.84,1.331420,616892,28760
1385.14,1.331924,613613,28574
1388.43,1.323957,611526,29004
1391.72,1.325099,610663,28887
1395.01,1.327476,610634,28728
1398.29,1.325641,611700,28900
1402.66,1.330111,614051,28714
1405.93,1.326833,616268,29036
1409.2,1.332463,617795,28733
1412.46,1.328365,618872,29056
1415.72,1.331155,619795,28913
1418.98,1.335568,620495,28653
1422.23,1.331369,621087,28959
1426.56,1.333253,621375,28847
1429.8,1.334658,621616,28765
1433.04,1.328245,622129,29217
1436.27,1.337732,621526,28558
1439.5,1.334261,621113,28768
1442.72,1.335321,620921,28689
1445.94,1.336807,620270,28561
1450.23,1.331477,618860,28848
1453.44,1.330675,617697,28847
1456.64,1.334237,616264,28545
1459.85,1.338550,614413,28178
1463.04,1.337398,612307,28156
1466.24,1.333367,610032,28313
1469.43,1.337629,607345,27913
1473.67,1.336450,603789,27825
1476.85,1.338470,601175,27576
1480.02,1.337731,597737,27465
1483.19,1.335041,594479,27485
1486.36,1.342862,591232,26847
1489.52,1.338339,587853,26973
1492.68,1.342026,583875,26564
1496.89,1.336538,578062,26634
1500.03,1.334902,574159,26554
1503.18,1.337658,570285,26208
1506.32,1.335533,565444,26113
1509.45,1.339171,560571,25672
1512.58,1.341883,555821,25296
1515.71,1.336006,550344,25388
1519.87,1.342221,543983,24738
1522.99,1.341524,538764,24540
1526.1,1.333944,533692,24737
1529.21,1.334825,527902,24419
1532.32,1.339541,521886,23880
1535.42,1.344231,515888,23352
1538.51,1.339551,509987,23335
1541.6,1.341290,503936,22966
1545.72,1.333781,494694,22938
1548.8,1.336516,488378,22503
1551.88,1.339015,481832,22074
1554.95,1.334340,474989,21996
1558.02,1.332698,467818,21746
1561.08,1.344841,460730,20826
1564.15,1.340514,454170,20735
1568.22,1.342703,444181,20177
1571.27,1.334433,436947,20230
1574.32,1.337847,429598,19734
1577.36,1.340133,422039,19285
1580.4,1.335860,414375,19122
1583.43,1.339649,406354,18589
1586.46,1.332995,398475,18510
1590.49,1.327146,388982,18314
1593.51,1.334463,380708,17625
1596.53,1.333923,372727,17277
1599.54,1.332248,365060,16987
1602.55,1.332645,357543,16622
1605.55,1.337750,349495,16058
1608.55,1.322311,341154,16242
1612.54,1.328104,330877,15544
1615.53,1.329866,322904,15108
1618.51,1.333078,315116,14635
1621.49,1.335402,307217,14192
1624.47,1.317796,299481,14407
1627.44,1.322066,292112,13915
1630.41,1.319707,284245,13614
1634.36,1.316513,274079,13224
1637.32,1.329221,266916,12507
1640.27,1.320728,259612,12405
1643.22,1.318349,251804,12098
1646.16,1.327349,244348,11499
1649.1,1.328060,236703,11121
1652.04,1.324234,228171,10815
1655.95,1.301288,215408,10764
1658.88,1.323240,204937,9736
1661.8,1.314474,193395,9375
1664.72,1.325606,179728,8492
1667.63,1.300664,163642,8189
1670.54,1.312922,146312,7118
1673.44,1.309052,128451,6305
1677.31,1.284964,105080,5452
1680.21,1.319318,88906,4262
1683.1,1.241077,75033,4307
1685.99,1.264588,63520,3454
1688.87,1.259383,53714,2956
1691.75,1.393708,45653,1844
1694.62,1.247606,39137,2213
1697.49,1.262612,33776,1845
1701.31,1.324708,28175,1334

File: Column 1_078102_20241121_164534.csv
Method:,Column 1,,
Host Date-Time:,21/11/24 @ 16:45:34,,
Header Version:,1,,
System Temp (C):,32.38,,
Detector Temp (C):,27.54,,
Humidity (%):,4.1,,
Lamp PD:,3807,,
Shift Vector Coefficients:,-10.5391,0.0761263,-0.000134223,,
Pixel to Wavelength Coefficients:,1775.68,-0.916766,-0.000235065,,
Serial Number:,5510004,,
Scan Config Name:,Column 1,,
Scan Config Type:,Slew,,
Section 1,,
Start wavelength (nm):,900,,
End wavelength (nm):,1700,,
Pattern Pixel Width (nm):,   7.03,,,,
Exposure (ms):,  0.635,,,,
Digital Resolution:,228,,
Num Repeats:,6,,
PGA Gain:,64,,
Total Measurement Time in sec:,  2.720,,
Wavelength (nm),Absorbance (AU),Reference Signal (unitless),Sample Signal (unitless)
901.51,1.284091,108485,5640
905.376,1.321804,121306,5782
909.237,1.331046,131909,6155
913.095,1.314696,143299,6943
916.948,1.312529,156982,7644
922.079,1.303006,179937,8956
925.923,1.318046,200504,9640
929.762,1.316355,222660,10747
933.597,1.309002,244426,11999
937.427,1.311743,263972,12877
941.254,1.319677,281845,13500
945.076,1.318333,297271,14283
950.165,1.320483,315605,15089
953.978,1.307256,328029,16168
957.786,1.309258,340470,16704
961.59,1.315082,352317,17055
965.389,1.303376,363056,18055
969.185,1.312973,373162,18152
972.976,1.313969,382632,18570
976.763,1.312757,391202,19039
981.806,1.299914,400190,20061
985.583,1.313163,406088,19745
989.355,1.307239,410162,20217
993.124,1.311213,412868,20165
996.888,1.307731,414263,20396
1000.65,1.308278,415476,20430
1004.4,1.314597,415479,20135
1009.41,1.316433,414358,19996
1013.15,1.315448,412923,19972
1016.89,1.312261,411526,20051
1020.63,1.316798,409066,19724
1024.36,1.300749,406777,20352
1028.09,1.308839,404427,19861
1031.82,1.305561,401911,19887
1036.78,1.312305,398410,19410
1040.49,1.303739,396204,19687
1044.2,1.317620,394236,18973
1047.91,1.314945,392042,18984
1051.61,1.308789,389823,19146
1055.31,1.313967,388234,18842
1059,1.315567,387599,18742
1063.92,1.313758,386688,18776
1067.61,1.313125,386598,18799
1071.29,1.310181,387377,18965
1074.96,1.317009,388536,18725
1078.63,1.308417,389855,19164
1082.3,1.321294,391215,18669
1085.96,1.319872,393215,18826
1090.84,1.318119,396270,19049
1094.49,1.321341,398760,19027
1098.14,1.319874,400987,19198
1101.79,1.316542,403477,19466
1105.43,1.320356,406116,19422
1109.06,1.317156,407701,19642
1112.7,1.319648,409859,19633
1117.53,1.314800,412494,19981
1121.15,1.324657,414909,19647
1124.77,1.315962,416559,20124
1128.38,1.327240,418532,19701
1131.99,1.319727,419956,20113
1135.6,1.317996,421946,20289
1139.2,1.319470,423881,20313
1143.99,1.322843,426786,20294
1147.58,1.322439,428617,20400
1151.17,1.321878,431169,20548
1154.75,1.327694,433579,20388
1158.33,1.319977,436264,20882
1161.91,1.328264,439132,20622
1165.48,1.323068,442389,21025
1169.04,1.318999,446101,21401
1173.79,1.323724,451929,21446
1177.34,1.318367,456026,21909
1180.9,1.316796,461306,22243
1184.44,1.322461,467657,22257
1187.99,1.324050,473969,22475
1191.52,1.321503,479856,22888
1195.06,1.319629,487372,23347
1199.76,1.318334,497347,23896
1203.29,1.318919,504311,24198
1206.81,1.323871,511507,24265
1210.33,1.321061,519078,24784
1213.84,1.328967,527163,24716
1217.35,1.320184,534208,25558
1220.85,1.325450,540472,25546
1225.51,1.325718,549929,25977
1229.01,1.323868,556888,26418
1232.5,1.325402,562180,26575
1235.98,1.323207,567975,26985
1239.46,1.324082,574815,27255
1242.94,1.325432,582782,27547
1246.41,1.331926,591476,27543
1251.03,1.322184,604016,28765
1254.5,1.323975,612289,29039
1257.96,1.327826,619125,29104
1261.41,1.325069,624551,29546
1264.86,1.334454,629900,29162
1268.31,1.327585,634345,29836
1271.75,1.328756,638574,29954
1276.33,1.329551,642499,30083
1279.76,1.330752,645905,30159
1283.19,1.328208,648307,30449
1286.61,1.325197,650446,30762
1290.03,1.335437,652132,30123
1293.44,1.330988,653907,30516
1296.85,1.329543,655963,30714
1301.39,1.337717,657349,30205
1304.8,1.327484,657558,30935
1308.19,1.329959,658515,30804
1311.58,1.332808,658804,30616
1314.97,1.336434,659011,30371
1318.36,1.332358,658272,30623
1321.73,1.337515,658022,30250
1326.23,1.327592,657870,30942
1329.6,1.339219,656482,30061
1332.97,1.333948,654926,30356
1336.33,1.333095,653727,30360
1339.69,1.330635,652497,30475
1343.04,1.330739,649913,30347
1346.39,1.330801,647671,30238
1349.73,1.329967,645338,30187
1354.18,1.335230,641175,29631
1357.52,1.337025,638376,29380
1360.85,1.329414,635805,29779
1364.17,1.331894,633413,29498
1367.49,1.327174,631026,29708
1370.81,1.331364,628050,29284
1374.12,1.333596,625034,28994
1378.54,1.331624,620272,28904
1381.84,1.332645,616892,28679
1385.14,1.329121,613613,28759
1388.43,1.334460,611526,28311
1391.72,1.324408,610663,28933
1395.01,1.326554,610634,28789
1398.29,1.332762,611700,28430
1402.66,1.332385,614051,28564
1405.93,1.333586,616268,28588
1409.2,1.333371,617795,28673
1412.46,1.324274,618872,29331
1415.72,1.334820,619795,28670
1418.98,1.329906,620495,29029
1422.23,1.338887,621087,28462
1426.56,1.342258,621375,28255
1429.8,1.334582,621616,28770
1433.04,1.333043,622129,28896
1436.27,1.337853,621526,28550
1439.5,1.335516,621113,28685
1442.72,1.339550,620921,28411
1445.94,1.336108,620270,28607
1450.23,1.339070,618860,28348
1453.44,1.332954,617697,28696
1456.64,1.336066,616264,28425
1459.85,1.335907,614413,28350
1463.04,1.335797,612307,28260
1466.24,1.342747,610032,27708
1469.43,1.339016,607345,27824
1473.67,1.341726,603789,27489
1476.85,1.337824,601175,27617
1480.02,1.340936,597737,27263
1483.19,1.341552,594479,27076
1486.36,1.333500,591232,27432
1489.52,1.344191,587853,26612
1492.68,1.340053,583875,26685
1496.89,1.332190,578062,26902
1500.03,1.337017,574159,26425
1503.18,1.334751,570285,26384
1506.32,1.340450,565444,25819
1509.45,1.338985,560571,25683
1512.58,1.343569,555821,25198
1515.71,1.335202,550344,25435
1519.87,1.343909,543983,24642
1522.99,1.344365,538764,24380
1526.1,1.342364,533692,24262
1529.21,1.339043,527902,24183
1532.32,1.335414,521886,24108
1535.42,1.337184,515888,23734
1538.51,1.343759,509987,23110
1541.6,1.332585,503936,23431
1545.72,1.342173,494694,22499
1548.8,1.338566,488378,22397
1551.88,1.336523,481832,22201
1554.95,1.336755,474989,21874
1558.02,1.341432,467818,21313
1561.08,1.339617,460730,21078
1564.15,1.346398,454170,20456
1568.22,1.345857,444181,20031
1571.27,1.339942,436947,19975
1574.32,1.331555,429598,20022
1577.36,1.339660,422039,19306
1580.4,1.329390,414375,19409
1583.43,1.333363,406354,18860
1586.46,1.336481,398475,18362
1590.49,1.346395,388982,17520
1593.51,1.334118,380708,17639
1596.53,1.337127,372727,17150
1599.54,1.335867,365060,16846
1602.55,1.334032,357543,16569
1605.55,1.335887,349495,16127
1608.55,1.317630,341154,16418
1612.54,1.327713,330877,15558
1615.53,1.328718,322904,15148
1618.51,1.325547,315116,14891
1621.49,1.320571,307217,14685
1624.47,1.324295,299481,14193
1627.44,1.327247,292112,13750
1630.41,1.331215,284245,13258
1634.36,1.323465,274079,13014
1637.32,1.314776,266916,12930
1640.27,1.338778,259612,11900
1643.22,1.317883,251804,12111
1646.16,1.307815,244348,12028
1649.1,1.315285,236703,11453
1652.04,1.304146,228171,11327
1655.95,1.298513,215408,10833
1658.88,1.310753,204937,10020
1661.8,1.308905,193395,9496
1664.72,1.324839,179728,8507
1667.63,1.302471,163642,8155
1670.54,1.299111,146312,7348
1673.44,1.293824,128451,6530
1677.31,1.289609,105080,5394
1680.21,1.270322,88906,4771
1683.1,1.319553,75033,3595
1685.99,1.269138,63520,3418
1688.87,1.263368,53714,2929
1691.75,1.271546,45653,2443
1694.62,1.251351,39137,2194
1697.49,1.341370,33776,1539
1701.31,1.214588,28175,1719