Folder: textile_sorting_NIRSCAN_/ML/samples/unknown (part 77)

File: Column 1_078534_20241121_170724.csv
Method:,Column 1,,
Host Date-Time:,21/11/24 @ 17:7:24,,
Header Version:,1,,
System Temp (C):,35.71,,
Detector Temp (C):,34.15,,
Humidity (%):,1.77,,
Lamp PD:,3800,,
Shift Vector Coefficients:,-10.5391,0.0761263,-0.000134223,,
Pixel to Wavelength Coefficients:,1775.68,-0.916766,-0.000235065,,
Serial Number:,5510004,,
Scan Config Name:,Column 1,,
Scan Config Type:,Slew,,
Section 1,,
Start wavelength (nm):,900,,
End wavelength (nm):,1700,,
Pattern Pixel Width (nm):,   7.03,,,,
Exposure (ms):,  0.635,,,,
Digital Resolution:,228,,
Num Repeats:,6,,
PGA Gain:,64,,
Total Measurement Time in sec:,  2.726,,
Wavelength (nm),Absorbance (AU),Reference Signal (unitless),Sample Signal (unitless)
901.51,1.323562,108485,5150
905.376,1.330682,121306,5665
909.237,1.313823,131909,6404
913.095,1.315635,143299,6928
916.948,1.304759,156982,7782
922.079,1.305340,179937,8908
925.923,1.319219,200504,9614
929.762,1.322705,222660,10591
933.597,1.321151,244426,11668
937.427,1.321394,263972,12594
941.254,1.308435,281845,13854
945.076,1.321997,297271,14163
950.165,1.323893,315605,14971
953.978,1.307578,328029,16156
957.786,1.309466,340470,16696
961.59,1.302483,352317,17557
965.389,1.304484,363056,18009
969.185,1.300009,373162,18702
972.976,1.302157,382632,19082
976.763,1.307677,391202,19263
981.806,1.300997,400190,20011
985.583,1.305014,406088,20119
989.355,1.314714,410162,19872
993.124,1.302915,412868,20554
996.888,1.302440,414263,20646
1000.65,1.299544,415476,20845
1004.4,1.301594,415479,20747
1009.41,1.305452,414358,20508
1013.15,1.297138,412923,20832
1016.89,1.313324,411526,20002
1020.63,1.306937,409066,20177
1024.36,1.308631,406777,19986
1028.09,1.300458,404427,20248
1031.82,1.303122,401911,19999
1036.78,1.309495,398410,19536
1040.49,1.298826,396204,19911
1044.2,1.309592,394236,19327
1047.91,1.304815,392042,19432
1051.61,1.309834,389823,19100
1055.31,1.306993,388234,19147
1059,1.307782,387599,19081
1063.92,1.302682,386688,19261
1067.61,1.308437,386598,19003
1071.29,1.310295,387377,18960
1074.96,1.307399,388536,19144
1078.63,1.317531,389855,18766
1082.3,1.312247,391215,19062
1085.96,1.311510,393215,19192
1090.84,1.309966,396270,19410
1094.49,1.313223,398760,19386
1098.14,1.312561,400987,19524
1101.79,1.315717,403477,19503
1105.43,1.316593,406116,19591
1109.06,1.310660,407701,19938
1112.7,1.312648,409859,19952
1117.53,1.303134,412494,20525
1121.15,1.316402,414909,20024
1124.77,1.318082,416559,20026
1128.38,1.306977,418532,20642
1131.99,1.319425,419956,20127
1135.6,1.305069,421946,20902
1139.2,1.309619,423881,20779
1143.99,1.323421,426786,20267
1147.58,1.316057,428617,20702
1151.17,1.315250,431169,20864
1154.75,1.308587,433579,21305
1158.33,1.310921,436264,21322
1161.91,1.312344,439132,21392
1165.48,1.312821,442389,21527
1169.04,1.315442,446101,21577
1173.79,1.310855,451929,22091
1177.34,1.310821,456026,22293
1180.9,1.309958,461306,22596
1184.44,1.308729,467657,22972
1187.99,1.324128,473969,22471
1191.52,1.310764,479856,23461
1195.06,1.316941,487372,23492
1199.76,1.316937,497347,23973
1203.29,1.311146,504311,24635
1206.81,1.319154,511507,24530
1210.33,1.320221,519078,24832
1213.84,1.318584,527163,25314
1217.35,1.316748,534208,25761
1220.85,1.321036,540472,25807
1225.51,1.318324,549929,26423
1229.01,1.319387,556888,26692
1232.5,1.321271,562180,26829
1235.98,1.315344,567975,27478
1239.46,1.318257,574815,27623
1242.94,1.323466,582782,27672
1246.41,1.323416,591476,28088
1251.03,1.320361,604016,28886
1254.5,1.319985,612289,29307
1257.96,1.316761,619125,29855
1261.41,1.325775,624551,29498
1264.86,1.320013,629900,30148
1268.31,1.323745,634345,30101
1271.75,1.321467,638574,30461
1276.33,1.320847,642499,30692
1279.76,1.319747,645905,30933
1283.19,1.323385,648307,30789
1286.61,1.321653,650446,31014
1290.03,1.322134,652132,31060
1293.44,1.326542,653907,30830
1296.85,1.324496,655963,31073
1301.39,1.325399,657349,31074
1304.8,1.327035,657558,30967
1308.19,1.331357,658515,30705
1311.58,1.328334,658804,30933
1314.97,1.323918,659011,31259
1318.36,1.326484,658272,31040
1321.73,1.326837,658022,31003
1326.23,1.329477,657870,30808
1329.6,1.329448,656482,30745
1332.97,1.328502,654926,30739
1336.33,1.325635,653727,30886
1339.69,1.321093,652497,31152
1343.04,1.327361,649913,30584
1346.39,1.324612,647671,30672
1349.73,1.328201,645338,30310
1354.18,1.322848,641175,30488
1357.52,1.327406,638376,30038
1360.85,1.325552,635805,30045
1364.17,1.327325,633413,29810
1367.49,1.327803,631026,29665
1370.81,1.325121,628050,29708
1374.12,1.324832,625034,29585
1378.54,1.320338,620272,29665
1381.84,1.326525,616892,29086
1385.14,1.327899,613613,28840
1388.43,1.323388,611526,29042
1391.72,1.323688,610663,28981
1395.01,1.322605,610634,29052
1398.29,1.324920,611700,28948
1402.66,1.326451,614051,28957
1405.93,1.326175,616268,29080
1409.2,1.331346,617795,28807
1412.46,1.329712,618872,28966
1415.72,1.322205,619795,29515
1418.98,1.329308,620495,29069
1422.23,1.324126,621087,29446
1426.56,1.327005,621375,29265
1429.8,1.329390,621616,29116
1433.04,1.332502,622129,28932
1436.27,1.333600,621526,28831
1439.5,1.328785,621113,29133
1442.72,1.330983,620921,28977
1445.94,1.332616,620270,28838
1450.23,1.327759,618860,29096
1453.44,1.328842,617697,28969
1456.64,1.325337,616264,29136
1459.85,1.323375,614413,29180
1463.04,1.322331,612307,29150
1466.24,1.328076,610032,28660
1469.43,1.326099,607345,28664
1473.67,1.331654,603789,28134
1476.85,1.337494,601175,27638
1480.02,1.327897,597737,28094
1483.19,1.334725,594479,27505
1486.36,1.330346,591232,27632
1489.52,1.337648,587853,27016
1492.68,1.333800,583875,27072
1496.89,1.335935,578062,26671
1500.03,1.337774,574159,26379
1503.18,1.334883,570285,26376
1506.32,1.329882,565444,26455
1509.45,1.335381,560571,25897
1512.58,1.329044,555821,26055
1515.71,1.334264,550344,25490
1519.87,1.336379,543983,25073
1522.99,1.331846,538764,25093
1526.1,1.330900,533692,24911
1529.21,1.335555,527902,24378
1532.32,1.331791,521886,24310
1535.42,1.331567,515888,24043
1538.51,1.327095,509987,24014
1541.6,1.329574,503936,23594
1545.72,1.329167,494694,23183
1548.8,1.331279,488378,22776
1551.88,1.335819,481832,22237
1554.95,1.333669,474989,22030
1558.02,1.325862,467818,22091
1561.08,1.328953,460730,21602
1564.15,1.337550,454170,20877
1568.22,1.324411,444181,21045
1571.27,1.321531,436947,20840
1574.32,1.328227,429598,20176
1577.36,1.336813,422039,19433
1580.4,1.328050,414375,19469
1583.43,1.328782,406354,19060
1586.46,1.330025,398475,18637
1590.49,1.330360,388982,18179
1593.51,1.327327,380708,17917
1596.53,1.318756,372727,17891
1599.54,1.316778,365060,17603
1602.55,1.331862,357543,16652
1605.55,1.322967,349495,16614
1608.55,1.321109,341154,16287
1612.54,1.315981,330877,15984
1615.53,1.333243,322904,14991
1618.51,1.320530,315116,15064
1621.49,1.309015,307217,15081
1624.47,1.320123,299481,14330
1627.44,1.318708,292112,14023
1630.41,1.311241,284245,13882
1634.36,1.304560,274079,13593
1637.32,1.321376,266916,12735
1640.27,1.328499,259612,12185
1643.22,1.312077,251804,12274
1646.16,1.307238,244348,12044
1649.1,1.310983,236703,11567
1652.04,1.307649,228171,11236
1655.95,1.308366,215408,10590
1658.88,1.291632,204937,10471
1661.8,1.293230,193395,9845
1664.72,1.270944,179728,9631
1667.63,1.257198,163642,9051
1670.54,1.250672,146312,8215
1673.44,1.218708,128451,7763
1677.31,1.195316,105080,6702
1680.21,1.191611,88906,5719
1683.1,1.188169,75033,4865
1685.99,1.185072,63520,4148
1688.87,1.108807,53714,4181
1691.75,1.143860,45653,3278
1694.62,1.177113,39137,2603
1697.49,1.207217,33776,2096
1701.31,1.171339,28175,1899

File: Column 1_078537_20241121_170733.csv
Method:,Column 1,,
Host Date-Time:,21/11/24 @ 17:7:33,,
Header Version:,1,,
System Temp (C):,35.89,,
Detector Temp (C):,34.21,,
Humidity (%):,1.77,,
Lamp PD:,3800,,
Shift Vector Coefficients:,-10.5391,0.0761263,-0.000134223,,
Pixel to Wavelength Coefficients:,1775.68,-0.916766,-0.000235065,,
Serial Number:,5510004,,
Scan Config Name:,Column 1,,
Scan Config Type:,Slew,,
Section 1,,
Start wavelength (nm):,900,,
End wavelength (nm):,1700,,
Pattern Pixel Width (nm):,   7.03,,,,
Exposure (ms):,  0.635,,,,
Digital Resolution:,228,,
Num Repeats:,6,,
PGA Gain:,64,,
Total Measurement Time in sec:,  2.680,,
Wavelength (nm),Absorbance (AU),Reference Signal (unitless),Sample Signal (unitless)
901.51,1.281327,108485,5676
905.376,1.312001,121306,5914
909.237,1.322868,131909,6272
913.095,1.348979,143299,6416
916.948,1.312927,156982,7637
922.079,1.330893,179937,8399
925.923,1.336921,200504,9230
929.762,1.316800,222660,10736
933.597,1.315714,244426,11815
937.427,1.329083,263972,12373
941.254,1.308592,281845,13849
945.076,1.317392,297271,14314
950.165,1.303189,315605,15702
953.978,1.313043,328029,15954
957.786,1.314911,340470,16488
961.59,1.316919,352317,16983
965.389,1.302919,363056,18074
969.185,1.303343,373162,18559
972.976,1.313455,382632,18592
976.763,1.305945,391202,19340
981.806,1.306963,400190,19738
985.583,1.307873,406088,19987
989.355,1.310884,410162,20048
993.124,1.307588,412868,20334
996.888,1.303746,414263,20584
1000.65,1.323243,415476,19738
1004.4,1.313714,415479,20176
1009.41,1.312153,414358,20194
1013.15,1.297889,412923,20796
1016.89,1.306880,411526,20301
1020.63,1.306980,409066,20175
1024.36,1.306096,406777,20103
1028.09,1.307006,404427,19945
1031.82,1.310988,401911,19640
1036.78,1.310095,398410,19509
1040.49,1.305021,396204,19629
1044.2,1.302747,394236,19634
1047.91,1.309060,392042,19243
1051.61,1.312388,389823,18988
1055.31,1.308515,388234,19080
1059,1.313302,387599,18840
1063.92,1.305986,386688,19115
1067.61,1.301545,386598,19307
1071.29,1.309540,387377,18993
1074.96,1.309627,388536,19046
1078.63,1.313133,389855,18957
1082.3,1.311792,391215,19082
1085.96,1.305510,393215,19459
1090.84,1.310593,396270,19382
1094.49,1.314031,398760,19350
1098.14,1.308422,400987,19711
1101.79,1.305811,403477,19953
1105.43,1.315221,406116,19653
1109.06,1.305722,407701,20166
1112.7,1.308877,409859,20126
1117.53,1.312849,412494,20071
1121.15,1.307557,414909,20436
1124.77,1.318994,416559,19984
1128.38,1.315733,418532,20230
1131.99,1.310160,419956,20561
1135.6,1.317675,421946,20304
1139.2,1.318744,423881,20347
1143.99,1.320112,426786,20422
1147.58,1.316330,428617,20689
1151.17,1.316918,431169,20784
1154.75,1.318129,433579,20842
1158.33,1.315405,436264,21103
1161.91,1.314338,439132,21294
1165.48,1.320042,442389,21172
1169.04,1.312813,446101,21708
1173.79,1.312963,451929,21984
1177.34,1.314263,456026,22117
1180.9,1.317108,461306,22227
1184.44,1.318827,467657,22444
1187.99,1.311405,473969,23139
1191.52,1.312545,479856,23365
1195.06,1.315612,487372,23564
1199.76,1.318207,497347,23903
1203.29,1.311481,504311,24616
1206.81,1.312635,511507,24901
1210.33,1.320151,519078,24836
1213.84,1.320424,527163,25207
1217.35,1.328227,534208,25089
1220.85,1.316166,540472,26098
1225.51,1.320070,549929,26317
1229.01,1.321687,556888,26551
1232.5,1.323006,562180,26722
1235.98,1.319409,567975,27222
1239.46,1.321746,574815,27402
1242.94,1.322181,582782,27754
1246.41,1.323989,591476,28051
1251.03,1.315398,604016,29218
1254.5,1.322899,612289,29111
1257.96,1.322619,619125,29455
1261.41,1.329903,624551,29219
1264.86,1.323426,629900,29912
1268.31,1.328313,634345,29786
1271.75,1.328945,638574,29941
1276.33,1.324585,642499,30429
1279.76,1.326524,645905,30454
1283.19,1.331414,648307,30225
1286.61,1.326229,650446,30689
1290.03,1.327268,652132,30695
1293.44,1.325024,653907,30938
1296.85,1.324888,655963,31045
1301.39,1.320797,657349,31405
1304.8,1.328735,657558,30846
1308.19,1.326994,658515,31015
1311.58,1.323920,658804,31249
1314.97,1.326202,659011,31095
1318.36,1.323569,658272,31249
1321.73,1.336583,658022,30315
1326.23,1.326512,657870,31019
1329.6,1.329505,656482,30741
1332.97,1.322455,654926,31170
1336.33,1.329335,653727,30624
1339.69,1.327129,652497,30722
1343.04,1.328541,649913,30501
1346.39,1.326272,647671,30555
1349.73,1.327085,645338,30388
1354.18,1.324546,641175,30369
1357.52,1.325329,638376,30182
1360.85,1.318341,635805,30548
1364.17,1.326001,633413,29901
1367.49,1.324086,631026,29920
1370.81,1.327540,628050,29543
1374.12,1.324451,625034,29611
1378.54,1.327095,620272,29207
1381.84,1.328036,616892,28985
1385.14,1.324255,613613,29083
1388.43,1.324631,611526,28959
1391.72,1.324889,610663,28901
1395.01,1.331302,610634,28476
1398.29,1.325911,611700,28882
1402.66,1.317647,614051,29550
1405.93,1.322650,616268,29317
1409.2,1.324971,617795,29233
1412.46,1.326486,618872,29182
1415.72,1.332886,619795,28798
1418.98,1.329099,620495,29083
1422.23,1.332992,621087,28851
1426.56,1.333524,621375,28829
1429.8,1.331259,621616,28991
1433.04,1.326080,622129,29363
1436.27,1.331631,621526,28962
1439.5,1.332904,621113,28858
1442.72,1.326762,620921,29260
1445.94,1.330572,620270,28974
1450.23,1.329015,618860,29012
1453.44,1.329562,617697,28921
1456.64,1.332006,616264,28692
1459.85,1.337673,614413,28235
1463.04,1.332079,612307,28503
1466.24,1.330858,610032,28477
1469.43,1.333032,607345,28210
1473.67,1.331885,603789,28119
1476.85,1.333397,601175,27900
1480.02,1.331903,597737,27836
1483.19,1.334930,594479,27492
1486.36,1.333057,591232,27460
1489.52,1.329257,587853,27543
1492.68,1.331847,583875,27194
1496.89,1.339467,578062,26455
1500.03,1.331124,574159,26786
1503.18,1.330965,570285,26615
1506.32,1.331477,565444,26358
1509.45,1.330164,560571,26210
1512.58,1.333568,555821,25785
1515.71,1.332564,550344,25590
1519.87,1.329505,543983,25473
1522.99,1.332608,538764,25049
1526.1,1.329785,533692,24975
1529.21,1.334044,527902,24463
1532.32,1.338579,521886,23933
1535.42,1.331874,515888,24026
1538.51,1.331439,509987,23775
1541.6,1.337768,503936,23153
1545.72,1.333516,494694,22952
1548.8,1.326292,488378,23039
1551.88,1.330424,481832,22515
1554.95,1.325893,474989,22428
1558.02,1.331282,467818,21817
1561.08,1.329919,460730,21554
1564.15,1.325710,454170,21454
1568.22,1.325217,444181,21006
1571.27,1.328929,436947,20488
1574.32,1.334187,429598,19901
1577.36,1.324171,422039,20007
1580.4,1.326736,414375,19528
1583.43,1.326328,406354,19168
1586.46,1.328281,398475,18712
1590.49,1.320697,388982,18588
1593.51,1.323610,380708,18071
1596.53,1.323688,372727,17689
1599.54,1.334323,365060,16906
1602.55,1.315307,357543,17299
1605.55,1.332374,349495,16258
1608.55,1.325693,341154,16116
1612.54,1.328607,330877,15526
1615.53,1.314365,322904,15657
1618.51,1.332188,315116,14665
1621.49,1.319685,307217,14715
1624.47,1.323500,299481,14219
1627.44,1.319173,292112,14008
1630.41,1.313248,284245,13818
1634.36,1.307285,274079,13508
1637.32,1.317370,266916,12853
1640.27,1.322341,259612,12359
1643.22,1.294158,251804,12791
1646.16,1.312863,244348,11889
1649.1,1.306947,236703,11675
1652.04,1.309004,228171,11201
1655.95,1.309721,215408,10557
1658.88,1.295381,204937,10381
1661.8,1.281351,193395,10118
1664.72,1.283618,179728,9354
1667.63,1.266657,163642,8856
1670.54,1.249722,146312,8233
1673.44,1.197846,128451,8145
1677.31,1.193505,105080,6730
1680.21,1.159280,88906,6161
1683.1,1.194464,75033,4795
1685.99,1.147580,63520,4522
1688.87,1.152941,53714,3777
1691.75,1.131453,45653,3373
1694.62,1.209670,39137,2415
1697.49,1.160321,33776,2335
1701.31,1.266025,28175,1527

File: Column 1_078542_20241121_170748.csv
Method:,Column 1,,
Host Date-Time:,21/11/24 @ 17:7:48,,
Header Version:,1,,
System Temp (C):,36.01,,
Detector Temp (C):,34.29,,
Humidity (%):,1.57,,
Lamp PD:,3800,,
Shift Vector Coefficients:,-10.5391,0.0761263,-0.000134223,,
Pixel to Wavelength Coefficients:,1775.68,-0.916766,-0.000235065,,
Serial Number:,5510004,,
Scan Config Name:,Column 1,,
Scan Config Type:,Slew,,
Section 1,,
Start wavelength (nm):,900,,
End wavelength (nm):,1700,,
Pattern Pixel Width (nm):,   7.03,,,,
Exposure (ms):,  0.635,,,,
Digital Resolution:,228,,
Num Repeats:,6,,
PGA Gain:,64,,
Total Measurement Time in sec:,  2.737,,
Wavelength (nm),Absorbance (AU),Reference Signal (unitless),Sample Signal (unitless)
901.51,1.337095,108485,4992
905.376,1.301195,121306,6063
909.237,1.311591,131909,6437
913.095,1.340201,143299,6547
916.948,1.334196,156982,7272
922.079,1.308423,179937,8845
925.923,1.323486,200504,9520
929.762,1.316517,222660,10743
933.597,1.320407,244426,11688
937.427,1.321670,263972,12586
941.254,1.316663,281845,13594
945.076,1.331045,297271,13871
950.165,1.313857,315605,15321
953.978,1.310789,328029,16037
957.786,1.304758,340470,16878
961.59,1.309415,352317,17279
965.389,1.298520,363056,18258
969.185,1.308261,373162,18350
972.976,1.312708,382632,18624
976.763,1.301032,391202,19560
981.806,1.307359,400190,19720
985.583,1.314816,406088,19670
989.355,1.306273,410162,20262
993.124,1.298500,412868,20764
996.888,1.301831,414263,20675
1000.65,1.298504,415476,20895
1004.4,1.314511,415479,20139
1009.41,1.309153,414358,20334
1013.15,1.308138,412923,20311
1016.89,1.298784,411526,20683
1020.63,1.307561,409066,20148
1024.36,1.310111,406777,19918
1028.09,1.311471,404427,19741
1031.82,1.313517,401911,19526
1036.78,1.294420,398410,20226
1040.49,1.303320,396204,19706
1044.2,1.312908,394236,19180
1047.91,1.311391,392042,19140
1051.61,1.304433,389823,19339
1055.31,1.312058,388234,18925
1059,1.310682,387599,18954
1063.92,1.313873,386688,18771
1067.61,1.311488,386598,18870
1071.29,1.313514,387377,18820
1074.96,1.309354,388536,19058
1078.63,1.308689,389855,19152
1082.3,1.306701,391215,19307
1085.96,1.304685,393215,19496
1090.84,1.306978,396270,19544
1094.49,1.308101,398760,19616
1098.14,1.315799,400987,19379
1101.79,1.312191,403477,19662
1105.43,1.308598,406116,19955
1109.06,1.322786,407701,19389
1112.7,1.315290,409859,19831
1117.53,1.304003,412494,20484
1121.15,1.324789,414909,19641
1124.77,1.326270,416559,19652
1128.38,1.316033,418532,20216
1131.99,1.316264,419956,20274
1135.6,1.321219,421946,20139
1139.2,1.313545,423881,20592
1143.99,1.320048,426786,20425
1147.58,1.322823,428617,20382
1151.17,1.318363,431169,20715
1154.75,1.312230,433579,21127
1158.33,1.317675,436264,20993
1161.91,1.311877,439132,21415
1165.48,1.317649,442389,21289
1169.04,1.315865,446101,21556
1173.79,1.309598,451929,22155
1177.34,1.315739,456026,22042
1180.9,1.316366,461306,22265
1184.44,1.308974,467657,22959
1187.99,1.319284,473969,22723
1191.52,1.315137,479856,23226
1195.06,1.320822,487372,23283
1199.76,1.323214,497347,23629
1203.29,1.321222,504311,24070
1206.81,1.322852,511507,24322
1210.33,1.309306,519078,25464
1213.84,1.311353,527163,25739
1217.35,1.312620,534208,26007
1220.85,1.315883,540472,26115
1225.51,1.320896,549929,26267
1229.01,1.319680,556888,26674
1232.5,1.320931,562180,26850
1235.98,1.312870,567975,27635
1239.46,1.315436,574815,27803
1242.94,1.318007,582782,28022
1246.41,1.325431,591476,27958
1251.03,1.324000,604016,28645
1254.5,1.322229,612289,29156
1257.96,1.325237,619125,29278
1261.41,1.323177,624551,29675
1264.86,1.322136,629900,30001
1268.31,1.320969,634345,30294
1271.75,1.321082,638574,30488
1276.33,1.325757,642499,30347
1279.76,1.326040,645905,30488
1283.19,1.325591,648307,30633
1286.61,1.324646,650446,30801
1290.03,1.322638,652132,31024
1293.44,1.329213,653907,30641
1296.85,1.325336,655963,31013
1301.39,1.330757,657349,30693
1304.8,1.324323,657558,31161
1308.19,1.331569,658515,30690
1311.58,1.326471,658804,31066
1314.97,1.326761,659011,31055
1318.36,1.328306,658272,30910
1321.73,1.324880,658022,31143
1326.23,1.330804,657870,30714
1329.6,1.327025,656482,30917
1332.97,1.329181,654926,30691
1336.33,1.326409,653727,30831
1339.69,1.323679,652497,30967
1343.04,1.324333,649913,30798
1346.39,1.323100,647671,30779
1349.73,1.325388,645338,30507
1354.18,1.325749,641175,30285
1357.52,1.324911,638376,30211
1360.85,1.325913,635805,30020
1364.17,1.326757,633413,29849
1367.49,1.321986,631026,30065
1370.81,1.331230,628050,29293
1374.12,1.327822,625034,29382
1378.54,1.324264,620272,29398
1381.84,1.325779,616892,29136
1385.14,1.325452,613613,29003
1388.43,1.328397,611526,28709
1391.72,1.320211,610663,29214
1395.01,1.323623,610634,28984
1398.29,1.329065,611700,28673
1402.66,1.326916,614051,28926
1405.93,1.327192,616268,29012
1409.2,1.322630,617795,29391
1412.46,1.326873,618872,29156
1415.72,1.328938,619795,29061
1418.98,1.325989,620495,29292
1422.23,1.327012,621087,29251
1426.56,1.327986,621375,29199
1429.8,1.327040,621616,29274
1433.04,1.328066,622129,29229
1436.27,1.331376,621526,28979
1439.5,1.330099,621113,29045
1442.72,1.329995,620921,29043
1445.94,1.335744,620270,28631
1450.23,1.328835,618860,29024
1453.44,1.331368,617697,28801
1456.64,1.332506,616264,28659
1459.85,1.337980,614413,28215
1463.04,1.331485,612307,28542
1466.24,1.325629,610032,28822
1469.43,1.332832,607345,28223
1473.67,1.334457,603789,27953
1476.85,1.328875,601175,28192
1480.02,1.335161,597737,27628
1483.19,1.333385,594479,27590
1486.36,1.335007,591232,27337
1489.52,1.335115,587853,27174
1492.68,1.335826,583875,26946
1496.89,1.334764,578062,26743
1500.03,1.334935,574159,26552
1503.18,1.330819,570285,26624
1506.32,1.333691,565444,26224
1509.45,1.335499,560571,25890
1512.58,1.334850,555821,25709
1515.71,1.332360,550344,25602
1519.87,1.331573,543983,25352
1522.99,1.333945,538764,24972
1526.1,1.333137,533692,24783
1529.21,1.329031,527902,24747
1532.32,1.333115,521886,24236
1535.42,1.331621,515888,24040
1538.51,1.325398,509987,24108
1541.6,1.335560,503936,23271
1545.72,1.339058,494694,22661
1548.8,1.335687,488378,22546
1551.88,1.327253,481832,22680
1554.95,1.336477,474989,21888
1558.02,1.330665,467818,21848
1561.08,1.346910,460730,20727
1564.15,1.333966,454170,21050
1568.22,1.331359,444181,20711
1571.27,1.329162,436947,20477
1574.32,1.329607,429598,20112
1577.36,1.329500,422039,19763
1580.4,1.327248,414375,19505
1583.43,1.336900,406354,18707
1586.46,1.332502,398475,18531
1590.49,1.327550,388982,18297
1593.51,1.336661,380708,17536
1596.53,1.321826,372727,17765
1599.54,1.316038,365060,17633
1602.55,1.327296,357543,16828
1605.55,1.322758,349495,16622
1608.55,1.323596,341154,16194
1612.54,1.313489,330877,16076
1615.53,1.317986,322904,15527
1618.51,1.318804,315116,15124
1621.49,1.316304,307217,14830
1624.47,1.324112,299481,14199
1627.44,1.312619,292112,14221
1630.41,1.323745,284245,13488
1634.36,1.313861,274079,13305
1637.32,1.319436,266916,12792
1640.27,1.315543,259612,12554
1643.22,1.310381,251804,12322
1646.16,1.303468,244348,12149
1649.1,1.310945,236703,11568
1652.04,1.303839,228171,11335
1655.95,1.300321,215408,10788
1658.88,1.284556,204937,10643
1661.8,1.277888,193395,10199
1664.72,1.256356,179728,9960
1667.63,1.262654,163642,8938
1670.54,1.252420,146312,8182
1673.44,1.223603,128451,7676
1677.31,1.192667,105080,6743
1680.21,1.173102,88906,5968
1683.1,1.168705,75033,5088
1685.99,1.165521,63520,4339
1688.87,1.168390,53714,3645
1691.75,1.168809,45653,3095
1694.62,1.265229,39137,2125
1697.49,1.168394,33776,2292
1701.31,1.255350,28175,1565