Folder: textile_sorting_NIRSCAN_/ML/samples/unknown (part 52)

File: Column 1_078345_20241121_165729.csv
Method:,Column 1,,
Host Date-Time:,21/11/24 @ 16:57:29,,
Header Version:,1,,
System Temp (C):,34.78,,
Detector Temp (C):,33.2,,
Humidity (%):,2.3,,
Lamp PD:,3801,,
Shift Vector Coefficients:,-10.5391,0.0761263,-0.000134223,,
Pixel to Wavelength Coefficients:,1775.68,-0.916766,-0.000235065,,
Serial Number:,5510004,,
Scan Config Name:,Column 1,,
Scan Config Type:,Slew,,
Section 1,,
Start wavelength (nm):,900,,
End wavelength (nm):,1700,,
Pattern Pixel Width (nm):,   7.03,,,,
Exposure (ms):,  0.635,,,,
Digital Resolution:,228,,
Num Repeats:,6,,
PGA Gain:,64,,
Total Measurement Time in sec:,  2.726,,
Wavelength (nm),Absorbance (AU),Reference Signal (unitless),Sample Signal (unitless)
901.51,1.324153,108485,5143
905.376,1.332526,121306,5641
909.237,1.305428,131909,6529
913.095,1.322204,143299,6824
916.948,1.324277,156982,7440
922.079,1.317302,179937,8666
925.923,1.327934,200504,9423
929.762,1.332828,222660,10347
933.597,1.331624,244426,11390
937.427,1.329153,263972,12371
941.254,1.328286,281845,13235
945.076,1.321721,297271,14172
950.165,1.316016,315605,15245
953.978,1.320732,328029,15674
957.786,1.314148,340470,16517
961.59,1.314217,352317,17089
965.389,1.319824,363056,17384
969.185,1.317954,373162,17945
972.976,1.306733,382632,18882
976.763,1.314128,391202,18979
981.806,1.317542,400190,19263
985.583,1.310750,406088,19855
989.355,1.307110,410162,20223
993.124,1.305755,412868,20420
996.888,1.315660,414263,20027
1000.65,1.315155,415476,20109
1004.4,1.308004,415479,20443
1009.41,1.310479,414358,20272
1013.15,1.309058,412923,20268
1016.89,1.305321,411526,20374
1020.63,1.314449,409066,19831
1024.36,1.309718,406777,19936
1028.09,1.314185,404427,19618
1031.82,1.316373,401911,19398
1036.78,1.317278,398410,19189
1040.49,1.313285,396204,19259
1044.2,1.313202,394236,19167
1047.91,1.319267,392042,18796
1051.61,1.316109,389823,18826
1055.31,1.311851,388234,18934
1059,1.307054,387599,19113
1063.92,1.314197,386688,18757
1067.61,1.316721,386598,18644
1071.29,1.322279,387377,18444
1074.96,1.321368,388536,18538
1078.63,1.312287,389855,18994
1082.3,1.317058,391215,18852
1085.96,1.319181,393215,18856
1090.84,1.314238,396270,19220
1094.49,1.323240,398760,18944
1098.14,1.317011,400987,19325
1101.79,1.317525,403477,19422
1105.43,1.320804,406116,19402
1109.06,1.324177,407701,19327
1112.7,1.319935,409859,19620
1117.53,1.308521,412494,20272
1121.15,1.325453,414909,19611
1124.77,1.322332,416559,19831
1128.38,1.323640,418532,19865
1131.99,1.318283,419956,20180
1135.6,1.317590,421946,20308
1139.2,1.318872,423881,20341
1143.99,1.323378,426786,20269
1147.58,1.324616,428617,20298
1151.17,1.322978,431169,20496
1154.75,1.328056,433579,20371
1158.33,1.330098,436264,20401
1161.91,1.323364,439132,20856
1165.48,1.332169,442389,20589
1169.04,1.326635,446101,21028
1173.79,1.308014,451929,22236
1177.34,1.319876,456026,21833
1180.9,1.317441,461306,22210
1184.44,1.318614,467657,22455
1187.99,1.315895,473969,22901
1191.52,1.320574,479856,22937
1195.06,1.321363,487372,23254
1199.76,1.328931,497347,23320
1203.29,1.326779,504311,23764
1206.81,1.327195,511507,24080
1210.33,1.328324,519078,24373
1213.84,1.318275,527163,25332
1217.35,1.331860,534208,24880
1220.85,1.329533,540472,25307
1225.51,1.325534,549929,25988
1229.01,1.327748,556888,26183
1232.5,1.333152,562180,26105
1235.98,1.325126,567975,26866
1239.46,1.323493,574815,27292
1242.94,1.328152,582782,27375
1246.41,1.326162,591476,27911
1251.03,1.322426,604016,28749
1254.5,1.324454,612289,29007
1257.96,1.331301,619125,28872
1261.41,1.331451,624551,29115
1264.86,1.331397,629900,29368
1268.31,1.331048,634345,29599
1271.75,1.331418,638574,29771
1276.33,1.326616,642499,30287
1279.76,1.332671,645905,30026
1283.19,1.330281,648307,30304
1286.61,1.329852,650446,30434
1290.03,1.339362,652132,29852
1293.44,1.331501,653907,30480
1296.85,1.333392,655963,30443
1301.39,1.332572,657349,30565
1304.8,1.330810,657558,30699
1308.19,1.338027,658515,30237
1311.58,1.334642,658804,30487
1314.97,1.330539,659011,30786
1318.36,1.330391,658272,30762
1321.73,1.328099,658022,30913
1326.23,1.330634,657870,30726
1329.6,1.333350,656482,30470
1332.97,1.334248,654926,30335
1336.33,1.335907,653727,30164
1339.69,1.338109,652497,29955
1343.04,1.340318,649913,29685
1346.39,1.336381,647671,29852
1349.73,1.331871,645338,30055
1354.18,1.334396,641175,29688
1357.52,1.332671,638376,29676
1360.85,1.337599,635805,29223
1364.17,1.330219,633413,29612
1367.49,1.332572,631026,29341
1370.81,1.330075,628050,29371
1374.12,1.331161,625034,29157
1378.54,1.329182,620272,29067
1381.84,1.327048,616892,29051
1385.14,1.328668,613613,28789
1388.43,1.329427,611526,28641
1391.72,1.328313,610663,28674
1395.01,1.332554,610634,28394
1398.29,1.325385,611700,28917
1402.66,1.329536,614051,28752
1405.93,1.330483,616268,28793
1409.2,1.336838,617795,28445
1412.46,1.332450,618872,28784
1415.72,1.334230,619795,28709
1418.98,1.333723,620495,28775
1422.23,1.334802,621087,28731
1426.56,1.328090,621375,29192
1429.8,1.333949,621616,28812
1433.04,1.330974,622129,29034
1436.27,1.335245,621526,28722
1439.5,1.336987,621113,28588
1442.72,1.334202,620921,28763
1445.94,1.338132,620270,28474
1450.23,1.339637,618860,28311
1453.44,1.343245,617697,28024
1456.64,1.342097,616264,28033
1459.85,1.339646,614413,28107
1463.04,1.338263,612307,28100
1466.24,1.335550,610032,28171
1469.43,1.340141,607345,27752
1473.67,1.337575,603789,27753
1476.85,1.339289,601175,27524
1480.02,1.337936,597737,27452
1483.19,1.340911,594479,27116
1486.36,1.336934,591232,27216
1489.52,1.331075,587853,27428
1492.68,1.336600,583875,26898
1496.89,1.345317,578062,26101
1500.03,1.340698,574159,26202
1503.18,1.338853,570285,26136
1506.32,1.341646,565444,25748
1509.45,1.342687,560571,25465
1512.58,1.345279,555821,25099
1515.71,1.341931,550344,25044
1519.87,1.337281,543983,25021
1522.99,1.348841,538764,24130
1526.1,1.345436,533692,24091
1529.21,1.343629,527902,23929
1532.32,1.339305,521886,23893
1535.42,1.339423,515888,23612
1538.51,1.340557,509987,23281
1541.6,1.342426,503936,22906
1545.72,1.333346,494694,22961
1548.8,1.345229,488378,22056
1551.88,1.341046,481832,21971
1554.95,1.338785,474989,21772
1558.02,1.341514,467818,21309
1561.08,1.332424,460730,21430
1564.15,1.340347,454170,20743
1568.22,1.330563,444181,20749
1571.27,1.345500,436947,19721
1574.32,1.335521,429598,19840
1577.36,1.341622,422039,19219
1580.4,1.335293,414375,19147
1583.43,1.337109,406354,18698
1586.46,1.327956,398475,18726
1590.49,1.335526,388982,17964
1593.51,1.331859,380708,17731
1596.53,1.331516,372727,17373
1599.54,1.326962,365060,17195
1602.55,1.335818,357543,16501
1605.55,1.345582,349495,15771
1608.55,1.330844,341154,15926
1612.54,1.337480,330877,15212
1615.53,1.328661,322904,15150
1618.51,1.319839,315116,15088
1621.49,1.325628,307217,14515
1624.47,1.330334,299481,13997
1627.44,1.325136,292112,13817
1630.41,1.311366,284245,13878
1634.36,1.318983,274079,13149
1637.32,1.319199,266916,12799
1640.27,1.317172,259612,12507
1643.22,1.315308,251804,12183
1646.16,1.308104,244348,12020
1649.1,1.307580,236703,11658
1652.04,1.325481,228171,10784
1655.95,1.305586,215408,10658
1658.88,1.308763,204937,10066
1661.8,1.312026,193395,9428
1664.72,1.287677,179728,9267
1667.63,1.274226,163642,8703
1670.54,1.249405,146312,8239
1673.44,1.251586,128451,7197
1677.31,1.213377,105080,6429
1680.21,1.233095,88906,5198
1683.1,1.208173,75033,4646
1685.99,1.213296,63520,3887
1688.87,1.219677,53714,3239
1691.75,1.293046,45653,2325
1694.62,1.225791,39137,2327
1697.49,1.221754,33776,2027
1701.31,1.250932,28175,1581

File: Column 1_078346_20241121_165732.csv
Method:,Column 1,,
Host Date-Time:,21/11/24 @ 16:57:32,,
Header Version:,1,,
System Temp (C):,34.82,,
Detector Temp (C):,33.26,,
Humidity (%):,2.25,,
Lamp PD:,3801,,
Shift Vector Coefficients:,-10.5391,0.0761263,-0.000134223,,
Pixel to Wavelength Coefficients:,1775.68,-0.916766,-0.000235065,,
Serial Number:,5510004,,
Scan Config Name:,Column 1,,
Scan Config Type:,Slew,,
Section 1,,
Start wavelength (nm):,900,,
End wavelength (nm):,1700,,
Pattern Pixel Width (nm):,   7.03,,,,
Exposure (ms):,  0.635,,,,
Digital Resolution:,228,,
Num Repeats:,6,,
PGA Gain:,64,,
Total Measurement Time in sec:,  2.731,,
Wavelength (nm),Absorbance (AU),Reference Signal (unitless),Sample Signal (unitless)
901.51,1.291155,108485,5549
905.376,1.292753,121306,6182
909.237,1.306493,131909,6513
913.095,1.324565,143299,6787
916.948,1.339363,156982,7186
922.079,1.316301,179937,8686
925.923,1.334107,200504,9290
929.762,1.320782,222660,10638
933.597,1.323091,244426,11616
937.427,1.310262,263972,12921
941.254,1.321740,281845,13436
945.076,1.310797,297271,14533
950.165,1.322879,315605,15006
953.978,1.315226,328029,15874
957.786,1.303576,340470,16924
961.59,1.318970,352317,16903
965.389,1.316762,363056,17507
969.185,1.312877,373162,18156
972.976,1.311521,382632,18675
976.763,1.302545,391202,19492
981.806,1.301301,400190,19997
985.583,1.312965,406088,19754
989.355,1.310906,410162,20047
993.124,1.306288,412868,20395
996.888,1.304359,414263,20555
1000.65,1.314271,415476,20150
1004.4,1.307622,415479,20461
1009.41,1.315391,414358,20044
1013.15,1.296596,412923,20858
1016.89,1.313020,411526,20016
1020.63,1.308511,409066,20104
1024.36,1.312143,406777,19825
1028.09,1.311955,404427,19719
1031.82,1.304405,401911,19940
1036.78,1.311567,398410,19443
1040.49,1.300158,396204,19850
1044.2,1.307149,394236,19436
1047.91,1.308947,392042,19248
1051.61,1.317611,389823,18761
1055.31,1.310180,388234,19007
1059,1.305829,387599,19167
1063.92,1.313619,386688,18782
1067.61,1.305726,386598,19122
1071.29,1.310800,387377,18938
1074.96,1.316060,388536,18766
1078.63,1.312355,389855,18991
1082.3,1.301358,391215,19546
1085.96,1.315100,393215,19034
1090.84,1.314102,396270,19226
1094.49,1.313560,398760,19371
1098.14,1.315284,400987,19402
1101.79,1.318622,403477,19373
1105.43,1.318148,406116,19521
1109.06,1.314357,407701,19769
1112.7,1.310412,409859,20055
1117.53,1.321282,412494,19685
1121.15,1.323839,414909,19684
1124.77,1.327553,416559,19594
1128.38,1.319138,418532,20072
1131.99,1.318046,419956,20191
1135.6,1.317996,421946,20289
1139.2,1.319213,423881,20325
1143.99,1.308136,426786,20993
1147.58,1.317675,428617,20625
1151.17,1.323148,431169,20488
1154.75,1.320134,433579,20746
1158.33,1.313844,436264,21179
1161.91,1.316587,439132,21184
1165.48,1.316000,442389,21370
1169.04,1.323959,446101,21158
1173.79,1.328079,451929,21232
1177.34,1.317991,456026,21928
1180.9,1.320817,461306,22038
1184.44,1.316781,467657,22550
1187.99,1.329319,473969,22204
1191.52,1.323767,479856,22769
1195.06,1.321158,487372,23265
1199.76,1.321581,497347,23718
1203.29,1.314882,504311,24424
1206.81,1.324211,511507,24246
1210.33,1.326687,519078,24465
1213.84,1.320665,527163,25193
1217.35,1.323767,534208,25348
1220.85,1.325756,540472,25528
1225.51,1.328973,549929,25783
1229.01,1.322178,556888,26521
1232.5,1.326269,562180,26522
1235.98,1.323561,567975,26963
1239.46,1.324066,574815,27256
1242.94,1.323717,582782,27656
1246.41,1.329583,591476,27692
1251.03,1.325214,604016,28565
1254.5,1.331061,612289,28569
1257.96,1.330100,619125,28952
1261.41,1.331213,624551,29131
1264.86,1.328024,629900,29597
1268.31,1.334836,634345,29342
1271.75,1.329685,638574,29890
1276.33,1.326975,642499,30262
1279.76,1.325613,645905,30518
1283.19,1.329565,648307,30354
1286.61,1.326908,650446,30641
1290.03,1.325207,652132,30841
1293.44,1.332714,653907,30395
1296.85,1.327878,655963,30832
1301.39,1.328400,657349,30860
1304.8,1.331220,657558,30670
1308.19,1.331286,658515,30710
1311.58,1.328082,658804,30951
1314.97,1.335962,659011,30404
1318.36,1.330687,658272,30741
1321.73,1.326221,658022,31047
1326.23,1.332816,657870,30572
1329.6,1.336742,656482,30233
1332.97,1.338955,654926,30008
1336.33,1.329845,653727,30588
1339.69,1.333451,652497,30278
1343.04,1.335995,649913,29982
1346.39,1.321269,647671,30909
1349.73,1.326286,645338,30444
1354.18,1.331102,641175,29914
1357.52,1.333198,638376,29640
1360.85,1.330465,635805,29707
1364.17,1.329633,633413,29652
1367.49,1.331021,631026,29446
1370.81,1.328437,628050,29482
1374.12,1.326759,625034,29454
1378.54,1.326219,620272,29266
1381.84,1.322927,616892,29328
1385.14,1.323703,613613,29120
1388.43,1.329563,611526,28632
1391.72,1.324588,610663,28921
1395.01,1.326781,610634,28774
1398.29,1.329293,611700,28658
1402.66,1.325058,614051,29050
1405.93,1.329850,616268,28835
1409.2,1.332479,617795,28732
1412.46,1.331666,618872,28836
1415.72,1.333112,619795,28783
1418.98,1.334312,620495,28736
1422.23,1.334424,621087,28756
1426.56,1.332426,621375,28902
1429.8,1.333647,621616,28832
1433.04,1.337590,622129,28595
1436.27,1.333916,621526,28810
1439.5,1.331777,621113,28933
1442.72,1.332830,620921,28854
1445.94,1.334608,620270,28706
1450.23,1.334165,618860,28670
1453.44,1.334425,617697,28599
1456.64,1.343307,616264,27955
1459.85,1.331927,614413,28611
1463.04,1.342534,612307,27825
1466.24,1.339266,610032,27931
1469.43,1.337411,607345,27927
1473.67,1.340338,603789,27577
1476.85,1.339163,601175,27532
1480.02,1.335979,597737,27576
1483.19,1.338101,594479,27292
1486.36,1.331069,591232,27586
1489.52,1.342562,587853,26712
1492.68,1.338818,583875,26761
1496.89,1.337272,578062,26589
1500.03,1.335246,574159,26533
1503.18,1.335377,570285,26346
1506.32,1.337968,565444,25967
1509.45,1.342210,560571,25493
1512.58,1.347551,555821,24968
1515.71,1.347305,550344,24736
1519.87,1.339526,543983,24892
1522.99,1.346615,538764,24254
1526.1,1.332804,533692,24802
1529.21,1.344555,527902,23878
1532.32,1.337618,521886,23986
1535.42,1.337239,515888,23731
1538.51,1.335476,509987,23555
1541.6,1.341933,503936,22932
1545.72,1.334425,494694,22904
1548.8,1.335321,488378,22565
1551.88,1.335019,481832,22278
1554.95,1.341908,474989,21616
1558.02,1.330069,467818,21878
1561.08,1.333683,460730,21368
1564.15,1.332792,454170,21107
1568.22,1.331506,444181,20704
1571.27,1.332377,436947,20326
1574.32,1.331598,429598,20020
1577.36,1.333651,422039,19575
1580.4,1.341139,414375,18891
1583.43,1.334955,406354,18791
1586.46,1.328211,398475,18715
1590.49,1.332035,388982,18109
1593.51,1.329782,380708,17816
1596.53,1.331991,372727,17354
1599.54,1.331379,365060,17021
1602.55,1.323314,357543,16983
1605.55,1.334677,349495,16172
1608.55,1.318584,341154,16382
1612.54,1.322551,330877,15744
1615.53,1.324780,322904,15286
1618.51,1.323568,315116,14959
1621.49,1.326827,307217,14475
1624.47,1.328909,299481,14043
1627.44,1.314578,292112,14157
1630.41,1.317099,284245,13696
1634.36,1.318983,274079,13149
1637.32,1.324834,266916,12634
1640.27,1.312578,259612,12640
1643.22,1.323368,251804,11959
1646.16,1.310169,244348,11963
1649.1,1.308960,236703,11621
1652.04,1.300823,228171,11414
1655.95,1.314270,215408,10447
1658.88,1.312577,204937,9978
1661.8,1.291820,193395,9877
1664.72,1.253661,179728,10022
1667.63,1.252189,163642,9156
1670.54,1.258030,146312,8077
1673.44,1.234198,128451,7491
1677.31,1.222869,105080,6290
1680.21,1.168470,88906,6032
1683.1,1.188705,75033,4859
1685.99,1.226339,63520,3772
1688.87,1.166844,53714,3658
1691.75,1.228427,45653,2698
1694.62,1.131239,39137,2893
1697.49,1.119352,33776,2566
1701.31,1.165885,28175,1923

File: Column 1_078348_20241121_165738.csv
Method:,Column 1,,
Host Date-Time:,21/11/24 @ 16:57:38,,
Header Version:,1,,
System Temp (C):,34.83,,
Detector Temp (C):,33.25,,
Humidity (%):,2.25,,
Lamp PD:,3801,,
Shift Vector Coefficients:,-10.5391,0.0761263,-0.000134223,,
Pixel to Wavelength Coefficients:,1775.68,-0.916766,-0.000235065,,
Serial Number:,5510004,,
Scan Config Name:,Column 1,,
Scan Config Type:,Slew,,
Section 1,,
Start wavelength (nm):,900,,
End wavelength (nm):,1700,,
Pattern Pixel Width (nm):,   7.03,,,,
Exposure (ms):,  0.635,,,,
Digital Resolution:,228,,
Num Repeats:,6,,
PGA Gain:,64,,
Total Measurement Time in sec:,  2.670,,
Wavelength (nm),Absorbance (AU),Reference Signal (unitless),Sample Signal (unitless)
901.51,1.300810,108485,5427
905.376,1.335772,121306,5599
909.237,1.326903,131909,6214
913.095,1.305291,143299,7095
916.948,1.332289,156982,7304
922.079,1.307344,179937,8867
925.923,1.316607,200504,9672
929.762,1.323115,222660,10581
933.597,1.318479,244426,11740
937.427,1.318404,263972,12681
941.254,1.318552,281845,13535
945.076,1.310648,297271,14538
950.165,1.323574,315605,14982
953.978,1.314788,328029,15890
957.786,1.318508,340470,16352
961.59,1.318662,352317,16915
965.389,1.307218,363056,17896
969.185,1.312375,373162,18177
972.976,1.304943,382632,18960
976.763,1.309326,391202,19190
981.806,1.312610,400190,19483
985.583,1.310007,406088,19889
989.355,1.310365,410162,20072
993.124,1.308957,412868,20270
996.888,1.306371,414263,20460
1000.65,1.312937,415476,20212
1004.4,1.301029,415479,20774
1009.41,1.307277,414358,20422
1013.15,1.314948,412923,19995
1016.89,1.310748,411526,20121
1020.63,1.307432,409066,20154
1024.36,1.315640,406777,19666
1028.09,1.314739,404427,19593
1031.82,1.308189,401911,19767
1036.78,1.303314,398410,19816
1040.49,1.318389,396204,19034
1044.2,1.312138,394236,19214
1047.91,1.312777,392042,19079
1051.61,1.314613,389823,18891
1055.31,1.315629,388234,18770
1059,1.311324,387599,18926
1063.92,1.310807,386688,18904
1067.61,1.317210,386598,18623
1071.29,1.318061,387377,18624
1074.96,1.310244,388536,19019
1078.63,1.304581,389855,19334
1082.3,1.313730,391215,18997
1085.96,1.311623,393215,19187
1090.84,1.315800,396270,19151
1094.49,1.317433,398760,19199
1098.14,1.317033,400987,19324
1101.79,1.314783,403477,19545
1105.43,1.320222,406116,19428
1109.06,1.320396,407701,19496
1112.7,1.319935,409859,19620
1117.53,1.326744,412494,19439
1121.15,1.314973,414909,20090
1124.77,1.313487,416559,20239
1128.38,1.310272,418532,20486
1131.99,1.318304,419956,20179
1135.6,1.313016,421946,20523
1139.2,1.316020,423881,20475
1143.99,1.326259,426786,20135
1147.58,1.322290,428617,20407
1151.17,1.315833,431169,20836
1154.75,1.319214,433579,20790
1158.33,1.313475,436264,21197
1161.91,1.311350,439132,21441
1165.48,1.324765,442389,20943
1169.04,1.316389,446101,21530
1173.79,1.319131,451929,21674
1177.34,1.315916,456026,22033
1180.9,1.316913,461306,22237
1184.44,1.318382,467657,22467
1187.99,1.314041,473969,22999
1191.52,1.324664,479856,22722
1195.06,1.321998,487372,23220
1199.76,1.324079,497347,23582
1203.29,1.317861,504311,24257
1206.81,1.322799,511507,24325
1210.33,1.327523,519078,24418
1213.84,1.322081,527163,25111
1217.35,1.319386,534208,25605
1220.85,1.324228,540472,25618
1225.51,1.322420,549929,26175
1229.01,1.321409,556888,26568
1232.5,1.315195,562180,27207
1235.98,1.320767,567975,27137
1239.46,1.319013,574815,27575
1242.94,1.327407,582782,27422
1246.41,1.319507,591476,28342
1251.03,1.325518,604016,28545
1254.5,1.329741,612289,28656
1257.96,1.330085,619125,28953
1261.41,1.324350,624551,29595
1264.86,1.325785,629900,29750
1268.31,1.329818,634345,29683
1271.75,1.328829,638574,29949
1276.33,1.327521,642499,30224
1279.76,1.321251,645905,30826
1283.19,1.328879,648307,30402
1286.61,1.326229,650446,30689
1290.03,1.327622,652132,30670
1293.44,1.326458,653907,30836
1296.85,1.331925,655963,30546
1301.39,1.331323,657349,30653
1304.8,1.330131,657558,30747
1308.19,1.331937,658515,30664
1311.58,1.334186,658804,30519
1314.97,1.328906,659011,30902
1318.36,1.332117,658272,30640
1321.73,1.330961,658022,30710
1326.23,1.331610,657870,30657
1329.6,1.332112,656482,30557
1332.97,1.329762,654926,30650
1336.33,1.326803,653727,30803
1339.69,1.328772,652497,30606
1343.04,1.332704,649913,30210
1346.39,1.332990,647671,30086
1349.73,1.329076,645338,30249
1354.18,1.327229,641175,30182
1357.52,1.325285,638376,30185
1360.85,1.329428,635805,29778
1364.17,1.333207,633413,29409
1367.49,1.326546,631026,29751
1370.81,1.327613,628050,29538
1374.12,1.331548,625034,29131
1378.54,1.334488,620272,28714
1381.84,1.324886,616892,29196
1385.14,1.329922,613613,28706
1388.43,1.335243,611526,28260
1391.72,1.327632,610663,28719
1395.01,1.329020,610634,28626
1398.29,1.334185,611700,28337
1402.66,1.333116,614051,28516
1405.93,1.330362,616268,28801
1409.2,1.332645,617795,28721
1412.46,1.335980,618872,28551
1415.72,1.329401,619795,29030
1418.98,1.329936,620495,29027
1422.23,1.331984,621087,28918
1426.56,1.333163,621375,28853
1429.8,1.330974,621616,29010
1433.04,1.335620,622129,28725
1436.27,1.336714,621526,28625
1439.5,1.340878,621113,28333
1442.72,1.333584,620921,28804
1445.94,1.331984,620270,28880
1450.23,1.330394,618860,28920
1453.44,1.332818,617697,28705
1456.64,1.332506,616264,28659
1459.85,1.333463,614413,28510
1463.04,1.339594,612307,28014
1466.24,1.334196,610032,28259
1469.43,1.336852,607345,27963
1473.67,1.334830,603789,27929
1476.85,1.335472,601175,27767
1480.02,1.335979,597737,27576
1483.19,1.336989,594479,27362
1486.36,1.333168,591232,27453
1489.52,1.333249,587853,27291
1492.68,1.334956,583875,27000
1496.89,1.336391,578062,26643
1500.03,1.333531,574159,26638
1503.18,1.338222,570285,26174
1506.32,1.334752,565444,26160
1509.45,1.338579,560571,25707
1512.58,1.342072,555821,25285
1515.71,1.335202,550344,25435
1519.87,1.340224,543983,24852
1522.99,1.340446,538764,24601
1526.1,1.333540,533692,24760
1529.21,1.348851,527902,23643
1532.32,1.340780,521886,23812
1535.42,1.340860,515888,23534
1538.51,1.337917,509987,23423
1541.6,1.343698,503936,22839
1545.72,1.336421,494694,22799
1548.8,1.328940,488378,22899
1551.88,1.342035,481832,21921
1554.95,1.339144,474989,21754
1558.02,1.333477,467818,21707
1561.08,1.334863,460730,21310
1564.15,1.332442,454170,21124
1568.22,1.334960,444181,20540
1571.27,1.337860,436947,20071
1574.32,1.334340,429598,19894
1577.36,1.335251,422039,19503
1580.4,1.333256,414375,19237
1583.43,1.328873,406354,19056
1586.46,1.330608,398475,18612
1590.49,1.327217,388982,18311
1593.51,1.320187,380708,18214
1596.53,1.327882,372727,17519
1599.54,1.324569,365060,17290
1602.55,1.321553,357543,17052
1605.55,1.335376,349495,16146
1608.55,1.327286,341154,16057
1612.54,1.322193,330877,15757
1615.53,1.320257,322904,15446
1618.51,1.316684,315116,15198
1621.49,1.321608,307217,14650
1624.47,1.326965,299481,14106
1627.44,1.317533,292112,14061
1630.41,1.317893,284245,13671
1634.36,1.315365,274079,13259
1637.32,1.310099,266916,13070
1640.27,1.323785,259612,12318
1643.22,1.315201,251804,12186
1646.16,1.317306,244348,11768
1649.1,1.323206,236703,11246
1652.04,1.296997,228171,11515
1655.95,1.298473,215408,10834
1658.88,1.289027,204937,10534
1661.8,1.280450,193395,10139
1664.72,1.267754,179728,9702
1667.63,1.254901,163642,9099
1670.54,1.245574,146312,8312
1673.44,1.235126,128451,7475
1677.31,1.220460,105080,6325
1680.21,1.206677,88906,5524
1683.1,1.218675,75033,4535
1685.99,1.218353,63520,3842
1688.87,1.180226,53714,3547
1691.75,1.190237,45653,2946
1694.62,1.175116,39137,2615
1697.49,1.240359,33776,1942
1701.31,1.219415,28175,1700