Folder: textile_sorting_NIRSCAN_/ML/samples/unknown (part 31)

File: Column 1_078208_20241121_165046.csv
Method:,Column 1,,
Host Date-Time:,21/11/24 @ 16:50:46,,
Header Version:,1,,
System Temp (C):,33.92,,
Detector Temp (C):,30.83,,
Humidity (%):,2.94,,
Lamp PD:,3804,,
Shift Vector Coefficients:,-10.5391,0.0761263,-0.000134223,,
Pixel to Wavelength Coefficients:,1775.68,-0.916766,-0.000235065,,
Serial Number:,5510004,,
Scan Config Name:,Column 1,,
Scan Config Type:,Slew,,
Section 1,,
Start wavelength (nm):,900,,
End wavelength (nm):,1700,,
Pattern Pixel Width (nm):,   7.03,,,,
Exposure (ms):,  0.635,,,,
Digital Resolution:,228,,
Num Repeats:,6,,
PGA Gain:,64,,
Total Measurement Time in sec:,  2.727,,
Wavelength (nm),Absorbance (AU),Reference Signal (unitless),Sample Signal (unitless)
901.51,1.307341,108485,5346
905.376,1.302845,121306,6040
909.237,1.305561,131909,6527
913.095,1.304496,143299,7108
916.948,1.322646,156982,7468
922.079,1.300540,179937,9007
925.923,1.305130,200504,9931
929.762,1.319193,222660,10677
933.597,1.302037,244426,12193
937.427,1.322015,263972,12576
941.254,1.318905,281845,13524
945.076,1.314428,297271,14412
950.165,1.321290,315605,15061
953.978,1.317255,328029,15800
957.786,1.302807,340470,16954
961.59,1.304914,352317,17459
965.389,1.309749,363056,17792
969.185,1.303413,373162,18556
972.976,1.310475,382632,18720
976.763,1.309575,391202,19179
981.806,1.315787,400190,19341
985.583,1.312130,406088,19792
989.355,1.301477,410162,20487
993.124,1.314065,412868,20033
996.888,1.306540,414263,20452
1000.65,1.311178,415476,20294
1004.4,1.314037,415479,20161
1009.41,1.311165,414358,20240
1013.15,1.306921,412923,20368
1016.89,1.310726,411526,20122
1020.63,1.304083,409066,20310
1024.36,1.303876,406777,20206
1028.09,1.307355,404427,19929
1031.82,1.317943,401911,19328
1036.78,1.308717,398410,19571
1040.49,1.306461,396204,19564
1044.2,1.300805,394236,19722
1047.91,1.305844,392042,19386
1051.61,1.314498,389823,18896
1055.31,1.303334,388234,19309
1059,1.315845,387599,18730
1063.92,1.317498,386688,18615
1067.61,1.313079,386598,18801
1071.29,1.298589,387377,19478
1074.96,1.306017,388536,19205
1078.63,1.303392,389855,19387
1082.3,1.319345,391215,18753
1085.96,1.314348,393215,19067
1090.84,1.309809,396270,19417
1094.49,1.314008,398760,19351
1098.14,1.319264,400987,19225
1101.79,1.315050,403477,19533
1105.43,1.315067,406116,19660
1109.06,1.320018,407701,19513
1112.7,1.324676,409859,19407
1117.53,1.322387,412494,19635
1121.15,1.318947,414909,19907
1124.77,1.312673,416559,20277
1128.38,1.325217,418532,19793
1131.99,1.318261,419956,20181
1135.6,1.321629,421946,20120
1139.2,1.318146,423881,20375
1143.99,1.325117,426786,20188
1147.58,1.319786,428617,20525
1151.17,1.319875,431169,20643
1154.75,1.315491,433579,20969
1158.33,1.307412,436264,21495
1161.91,1.309249,439132,21545
1165.48,1.322037,442389,21075
1169.04,1.318918,446101,21405
1173.79,1.315341,451929,21864
1177.34,1.318050,456026,21925
1180.9,1.319381,461306,22111
1184.44,1.322402,467657,22260
1187.99,1.315157,473969,22940
1191.52,1.311376,479856,23428
1195.06,1.319016,487372,23380
1199.76,1.326369,497347,23458
1203.29,1.322035,504311,24025
1206.81,1.322942,511507,24317
1210.33,1.319714,519078,24861
1213.84,1.323779,527163,25013
1217.35,1.321903,534208,25457
1220.85,1.320447,540472,25842
1225.51,1.322602,549929,26164
1229.01,1.329510,556888,26077
1232.5,1.321546,562180,26812
1235.98,1.319776,567975,27199
1239.46,1.326190,574815,27123
1242.94,1.324786,582782,27588
1246.41,1.327549,591476,27822
1251.03,1.321038,604016,28841
1254.5,1.320326,612289,29284
1257.96,1.326529,619125,29191
1261.41,1.330631,624551,29170
1264.86,1.325712,629900,29755
1268.31,1.327934,634345,29812
1271.75,1.329293,638574,29917
1276.33,1.325328,642499,30377
1279.76,1.323611,645905,30659
1283.19,1.322047,648307,30884
1286.61,1.325352,650446,30751
1290.03,1.328004,652132,30643
1293.44,1.332157,653907,30434
1296.85,1.330081,655963,30676
1301.39,1.330743,657349,30694
1304.8,1.329299,657558,30806
1308.19,1.332773,658515,30605
1311.58,1.332312,658804,30651
1314.97,1.329905,659011,30831
1318.36,1.332074,658272,30643
1321.73,1.329295,658022,30828
1326.23,1.329068,657870,30837
1329.6,1.335107,656482,30347
1332.97,1.337280,654926,30124
1336.33,1.333710,653727,30317
1339.69,1.329311,652497,30568
1343.04,1.326510,649913,30644
1346.39,1.329568,647671,30324
1349.73,1.329162,645338,30243
1354.18,1.329768,641175,30006
1357.52,1.325573,638376,30165
1360.85,1.335657,635805,29354
1364.17,1.331806,633413,29504
1367.49,1.328052,631026,29648
1370.81,1.327554,628050,29542
1374.12,1.326096,625034,29499
1378.54,1.325063,620272,29344
1381.84,1.335898,616892,28465
1385.14,1.331772,613613,28584
1388.43,1.331722,611526,28490
1391.72,1.324814,610663,28906
1395.01,1.332187,610634,28418
1398.29,1.328309,611700,28723
1402.66,1.333817,614051,28470
1405.93,1.328196,616268,28945
1409.2,1.331120,617795,28822
1412.46,1.327887,618872,29088
1415.72,1.329132,619795,29048
1418.98,1.334463,620495,28726
1422.23,1.329230,621087,29102
1426.56,1.330447,621375,29034
1429.8,1.332189,621616,28929
1433.04,1.337712,622129,28587
1436.27,1.331811,621526,28950
1439.5,1.330413,621113,29024
1442.72,1.334640,620921,28734
1445.94,1.332044,620270,28876
1450.23,1.336961,618860,28486
1453.44,1.335215,617697,28547
1456.64,1.338779,616264,28248
1459.85,1.335264,614413,28392
1463.04,1.330710,612307,28593
1466.24,1.336677,610032,28098
1469.43,1.342558,607345,27598
1473.67,1.339976,603789,27600
1476.85,1.335081,601175,27792
1480.02,1.331373,597737,27870
1483.19,1.333464,594479,27585
1486.36,1.338228,591232,27135
1489.52,1.339387,587853,26908
1492.68,1.335987,583875,26936
1496.89,1.338417,578062,26519
1500.03,1.336689,574159,26445
1503.18,1.336087,570285,26303
1506.32,1.329193,565444,26497
1509.45,1.341920,560571,25510
1512.58,1.339572,555821,25431
1515.71,1.339803,550344,25167
1519.87,1.341817,543983,24761
1522.99,1.335095,538764,24906
1526.1,1.340596,533692,24361
1529.21,1.333405,527902,24499
1532.32,1.343726,521886,23651
1535.42,1.338449,515888,23665
1538.51,1.334445,509987,23611
1541.6,1.338143,503936,23133
1545.72,1.340267,494694,22598
1548.8,1.337153,488378,22470
1551.88,1.329595,481832,22558
1554.95,1.330370,474989,22198
1558.02,1.342248,467818,21273
1561.08,1.335842,460730,21262
1564.15,1.343267,454170,20604
1568.22,1.331464,444181,20706
1571.27,1.332762,436947,20308
1574.32,1.334166,429598,19902
1577.36,1.335340,422039,19499
1580.4,1.336542,414375,19092
1583.43,1.331754,406354,18930
1586.46,1.336410,398475,18365
1590.49,1.335236,388982,17976
1593.51,1.325488,380708,17993
1596.53,1.331516,372727,17373
1599.54,1.329800,365060,17083
1602.55,1.333116,357543,16604
1605.55,1.332053,349495,16270
1608.55,1.322017,341154,16253
1612.54,1.322993,330877,15728
1615.53,1.320398,322904,15441
1618.51,1.331242,315116,14697
1621.49,1.329747,307217,14378
1624.47,1.316952,299481,14435
1627.44,1.320446,292112,13967
1630.41,1.319133,284245,13632
1634.36,1.313241,274079,13324
1637.32,1.309037,266916,13102
1640.27,1.316825,259612,12517
1643.22,1.316093,251804,12161
1646.16,1.310750,244348,11947
1649.1,1.293902,236703,12031
1652.04,1.297600,228171,11499
1655.95,1.299557,215408,10807
1658.88,1.304598,204937,10163
1661.8,1.271757,193395,10344
1664.72,1.291584,179728,9184
1667.63,1.278085,163642,8626
1670.54,1.264094,146312,7965
1673.44,1.267441,128451,6939
1677.31,1.267401,105080,5677
1680.21,1.242384,88906,5088
1683.1,1.218484,75033,4537
1685.99,1.189069,63520,4110
1688.87,1.234821,53714,3128
1691.75,1.213088,45653,2795
1694.62,1.127353,39137,2919
1697.49,1.143538,33776,2427
1701.31,1.181989,28175,1853

File: Column 1_078209_20241121_165049.csv
Method:,Column 1,,
Host Date-Time:,21/11/24 @ 16:50:49,,
Header Version:,1,,
System Temp (C):,33.95,,
Detector Temp (C):,30.88,,
Humidity (%):,2.94,,
Lamp PD:,3803,,
Shift Vector Coefficients:,-10.5391,0.0761263,-0.000134223,,
Pixel to Wavelength Coefficients:,1775.68,-0.916766,-0.000235065,,
Serial Number:,5510004,,
Scan Config Name:,Column 1,,
Scan Config Type:,Slew,,
Section 1,,
Start wavelength (nm):,900,,
End wavelength (nm):,1700,,
Pattern Pixel Width (nm):,   7.03,,,,
Exposure (ms):,  0.635,,,,
Digital Resolution:,228,,
Num Repeats:,6,,
PGA Gain:,64,,
Total Measurement Time in sec:,  2.732,,
Wavelength (nm),Absorbance (AU),Reference Signal (unitless),Sample Signal (unitless)
901.51,1.331133,108485,5061
905.376,1.347486,121306,5450
909.237,1.331611,131909,6147
913.095,1.316012,143299,6922
916.948,1.332527,156982,7300
922.079,1.311824,179937,8776
925.923,1.327151,200504,9440
929.762,1.327322,222660,10479
933.597,1.320184,244426,11694
937.427,1.328171,263972,12399
941.254,1.313036,281845,13708
945.076,1.320131,297271,14224
950.165,1.318703,315605,15151
953.978,1.326422,328029,15470
957.786,1.320825,340470,16265
961.59,1.321004,352317,16824
965.389,1.309188,363056,17815
969.185,1.312758,373162,18161
972.976,1.314157,382632,18562
976.763,1.304667,391202,19397
981.806,1.310587,400190,19574
985.583,1.310335,406088,19874
989.355,1.311123,410162,20037
993.124,1.310009,412868,20221
996.888,1.314729,414263,20070
1000.65,1.306601,415476,20509
1004.4,1.309558,415479,20370
1009.41,1.308641,414358,20358
1013.15,1.304539,412923,20480
1016.89,1.314629,411526,19942
1020.63,1.311894,409066,19948
1024.36,1.319723,406777,19482
1028.09,1.309978,404427,19809
1031.82,1.311830,401911,19602
1036.78,1.312305,398410,19410
1040.49,1.316795,396204,19104
1044.2,1.315451,394236,19068
1047.91,1.315998,392042,18938
1051.61,1.318214,389823,18735
1055.31,1.320539,388234,18559
1059,1.320296,387599,18539
1063.92,1.320400,386688,18491
1067.61,1.331577,386598,18017
1071.29,1.315828,387377,18720
1074.96,1.308398,388536,19100
1078.63,1.318644,389855,18718
1082.3,1.313776,391215,18995
1085.96,1.316700,393215,18964
1090.84,1.324319,396270,18779
1094.49,1.315605,398760,19280
1098.14,1.316517,400987,19347
1101.79,1.317033,403477,19444
1105.43,1.308664,406116,19952
1109.06,1.318840,407701,19566
1112.7,1.324206,409859,19428
1117.53,1.321680,412494,19667
1121.15,1.318751,414909,19916
1124.77,1.320017,416559,19937
1128.38,1.319528,418532,20054
1131.99,1.324198,419956,19907
1135.6,1.334466,421946,19534
1139.2,1.322883,423881,20154
1143.99,1.321475,426786,20358
1147.58,1.322418,428617,20401
1151.17,1.315666,431169,20844
1154.75,1.320322,433579,20737
1158.33,1.330247,436264,20394
1161.91,1.319116,439132,21061
1165.48,1.328410,442389,20768
1169.04,1.314437,446101,21627
1173.79,1.323602,451929,21452
1177.34,1.323732,456026,21640
1180.9,1.318302,461306,22166
1184.44,1.332109,467657,21768
1187.99,1.321257,473969,22620
1191.52,1.321693,479856,22878
1195.06,1.328499,487372,22875
1199.76,1.329341,497347,23298
1203.29,1.328959,504311,23645
1206.81,1.320377,511507,24461
1210.33,1.328805,519078,24346
1213.84,1.329705,527163,24674
1217.35,1.328175,534208,25092
1220.85,1.320145,540472,25860
1225.51,1.329293,549929,25764
1229.01,1.327632,556888,26190
1232.5,1.326285,562180,26521
1235.98,1.329203,567975,26615
1239.46,1.330487,574815,26856
1242.94,1.325321,582782,27554
1246.41,1.325384,591476,27961
1251.03,1.327043,604016,28445
1254.5,1.330879,612289,28581
1257.96,1.331512,619125,28858
1261.41,1.328863,624551,29289
1264.86,1.328347,629900,29575
1268.31,1.331989,634345,29535
1271.75,1.326645,638574,30100
1276.33,1.331432,642499,29953
1279.76,1.333743,645905,29952
1283.19,1.334384,648307,30019
1286.61,1.324802,650446,30790
1290.03,1.335553,652132,30115
1293.44,1.329114,653907,30648
1296.85,1.331612,655963,30568
1301.39,1.332117,657349,30597
1304.8,1.338172,657558,30183
1308.19,1.332660,658515,30613
1311.58,1.334627,658804,30488
1314.97,1.340038,659011,30120
1318.36,1.331352,658272,30694
1321.73,1.337716,658022,30236
1326.23,1.332390,657870,30602
1329.6,1.333864,656482,30434
1332.97,1.335524,654926,30246
1336.33,1.331154,653727,30496
1339.69,1.337197,652497,30018
1343.04,1.337998,649913,29844
1346.39,1.333235,647671,30069
1349.73,1.338774,645338,29581
1354.18,1.332921,641175,29789
1357.52,1.328999,638376,29928
1360.85,1.333944,635805,29470
1364.17,1.336022,633413,29219
1367.49,1.330756,631026,29464
1370.81,1.329012,628050,29443
1374.12,1.328444,625034,29340
1378.54,1.332241,620272,28863
1381.84,1.332963,616892,28658
1385.14,1.334530,613613,28403
1388.43,1.335473,611526,28245
1391.72,1.335260,610663,28219
1395.01,1.338297,610634,28021
1398.29,1.324995,611700,28943
1402.66,1.332279,614051,28571
1405.93,1.332478,616268,28661
1409.2,1.336000,617795,28500
1412.46,1.333114,618872,28740
1415.72,1.332961,619795,28793
1418.98,1.338366,620495,28469
1422.23,1.335649,621087,28675
1426.56,1.342028,621375,28270
1429.8,1.338327,621616,28523
1433.04,1.334367,622129,28808
1436.27,1.339469,621526,28444
1439.5,1.340112,621113,28383
1442.72,1.338512,620921,28479
1445.94,1.336488,620270,28582
1450.23,1.341143,618860,28213
1453.44,1.331926,617697,28764
1456.64,1.339965,616264,28171
1459.85,1.335984,614413,28345
1463.04,1.339284,612307,28034
1466.24,1.338008,610032,28012
1469.43,1.333772,607345,28162
1473.67,1.338735,603789,27679
1476.85,1.338076,601175,27601
1480.02,1.336168,597737,27564
1483.19,1.340591,594479,27136
1486.36,1.334277,591232,27383
1489.52,1.343686,587853,26643
1492.68,1.337942,583875,26815
1496.89,1.338810,578062,26495
1500.03,1.343224,574159,26050
1503.18,1.342910,570285,25893
1506.32,1.334918,565444,26150
1509.45,1.340747,560571,25579
1512.58,1.342760,555821,25245
1515.71,1.336862,550344,25338
1519.87,1.338341,543983,24960
1522.99,1.336072,538764,24850
1526.1,1.339758,533692,24408
1529.21,1.333937,527902,24469
1532.32,1.336009,521886,24075
1535.42,1.335687,515888,23816
1538.51,1.337268,509987,23458
1541.6,1.344898,503936,22776
1545.72,1.341441,494694,22537
1548.8,1.330307,488378,22827
1551.88,1.341600,481832,21943
1554.95,1.342874,474989,21568
1558.02,1.339866,467818,21390
1561.08,1.340772,460730,21022
1564.15,1.331764,454170,21157
1568.22,1.337228,444181,20433
1571.27,1.334626,436947,20221
1574.32,1.333468,429598,19934
1577.36,1.336433,422039,19450
1580.4,1.334907,414375,19164
1583.43,1.323955,406354,19273
1586.46,1.336647,398475,18355
1590.49,1.339363,388982,17806
1593.51,1.339145,380708,17436
1596.53,1.336191,372727,17187
1599.54,1.330767,365060,17045
1602.55,1.337374,357543,16442
1605.55,1.340381,349495,15961
1608.55,1.335891,341154,15742
1612.54,1.330036,330877,15475
1615.53,1.340782,322904,14733
1618.51,1.338032,315116,14469
1621.49,1.317712,307217,14782
1624.47,1.321459,299481,14286
1627.44,1.328670,292112,13705
1630.41,1.320409,284245,13592
1634.36,1.327421,274079,12896
1637.32,1.318792,266916,12811
1640.27,1.316686,259612,12521
1643.22,1.326100,251804,11884
1646.16,1.320529,244348,11681
1649.1,1.320511,236703,11316
1652.04,1.316000,228171,11022
1655.95,1.332048,215408,10028
1658.88,1.299163,204937,10291
1661.8,1.283890,193395,10059
1664.72,1.300421,179728,8999
1667.63,1.277431,163642,8639
1670.54,1.264312,146312,7961
1673.44,1.273808,128451,6838
1677.31,1.260119,105080,5773
1680.21,1.252313,88906,4973
1683.1,1.227869,75033,4440
1685.99,1.204448,63520,3967
1688.87,1.215805,53714,3268
1691.75,1.220927,45653,2745
1694.62,1.262377,39137,2139
1697.49,1.245533,33776,1919
1701.31,1.399871,28175,1122

File: Column 1_078210_20241121_165052.csv
Method:,Column 1,,
Host Date-Time:,21/11/24 @ 16:50:52,,
Header Version:,1,,
System Temp (C):,34.01,,
Detector Temp (C):,30.88,,
Humidity (%):,2.94,,
Lamp PD:,3803,,
Shift Vector Coefficients:,-10.5391,0.0761263,-0.000134223,,
Pixel to Wavelength Coefficients:,1775.68,-0.916766,-0.000235065,,
Serial Number:,5510004,,
Scan Config Name:,Column 1,,
Scan Config Type:,Slew,,
Section 1,,
Start wavelength (nm):,900,,
End wavelength (nm):,1700,,
Pattern Pixel Width (nm):,   7.03,,,,
Exposure (ms):,  0.635,,,,
Digital Resolution:,228,,
Num Repeats:,6,,
PGA Gain:,64,,
Total Measurement Time in sec:,  2.725,,
Wavelength (nm),Absorbance (AU),Reference Signal (unitless),Sample Signal (unitless)
901.51,1.314549,108485,5258
905.376,1.335694,121306,5600
909.237,1.339957,131909,6030
913.095,1.318907,143299,6876
916.948,1.339846,156982,7178
922.079,1.303977,179937,8936
925.923,1.319671,200504,9604
929.762,1.316638,222660,10740
933.597,1.316302,244426,11799
937.427,1.340787,263972,12044
941.254,1.319934,281845,13492
945.076,1.315635,297271,14372
950.165,1.317586,315605,15190
953.978,1.308655,328029,16116
957.786,1.324552,340470,16126
961.59,1.313202,352317,17129
965.389,1.312025,363056,17699
969.185,1.301731,373162,18628
972.976,1.311265,382632,18686
976.763,1.310709,391202,19129
981.806,1.307976,400190,19692
985.583,1.311889,406088,19803
989.355,1.309738,410162,20101
993.124,1.312226,412868,20118
996.888,1.310958,414263,20245
1000.65,1.307534,415476,20465
1004.4,1.311695,415479,20270
1009.41,1.313640,414358,20125
1013.15,1.308095,412923,20313
1016.89,1.320858,411526,19658
1020.63,1.305798,409066,20230
1024.36,1.308957,406777,19971
1028.09,1.306310,404427,19977
1031.82,1.304623,401911,19930
1036.78,1.300409,398410,19949
1040.49,1.303100,396204,19716
1044.2,1.305143,394236,19526
1047.91,1.312436,392042,19094
1051.61,1.311109,389823,19044
1055.31,1.321148,388234,18533
1059,1.315011,387599,18766
1063.92,1.312856,386688,18815
1067.61,1.313333,386598,18790
1071.29,1.313214,387377,18833
1074.96,1.311501,388536,18964
1078.63,1.308893,389855,19143
1082.3,1.320922,391215,18685
1085.96,1.311374,393215,19198
1090.84,1.322127,396270,18874
1094.49,1.313134,398760,19390
1098.14,1.322484,400987,19083
1101.79,1.313452,403477,19605
1105.43,1.313897,406116,19713
1109.06,1.320820,407701,19477
1112.7,1.322979,409859,19483
1117.53,1.319060,412494,19786
1121.15,1.319449,414909,19884
1124.77,1.313767,416559,20226
1128.38,1.322047,418532,19938
1131.99,1.323675,419956,19931
1135.6,1.315904,421946,20387
1139.2,1.328042,423881,19916
1143.99,1.315564,426786,20637
1147.58,1.326159,428617,20226
1151.17,1.329232,431169,20203
1154.75,1.321371,433579,20687
1158.33,1.329375,436264,20435
1161.91,1.322262,439132,20909
1165.48,1.315533,442389,21393
1169.04,1.319913,446101,21356
1173.79,1.319412,451929,21660
1177.34,1.320792,456026,21787
1180.9,1.321192,461306,22019
1184.44,1.318711,467657,22450
1187.99,1.318845,473969,22746
1191.52,1.317405,479856,23105
1195.06,1.326001,487372,23007
1199.76,1.322810,497347,23651
1203.29,1.325574,504311,23830
1206.81,1.324552,511507,24227
1210.33,1.325996,519078,24504
1213.84,1.326007,527163,24885
1217.35,1.330066,534208,24983
1220.85,1.323906,540472,25637
1225.51,1.323833,549929,26090
1229.01,1.322178,556888,26521
1232.5,1.323624,562180,26684
1235.98,1.329023,567975,26626
1239.46,1.321429,574815,27422
1242.94,1.326901,582782,27454
1246.41,1.328846,591476,27739
1251.03,1.328664,604016,28339
1254.5,1.326796,612289,28851
1257.96,1.322177,619125,29485
1261.41,1.325319,624551,29529
1264.86,1.331116,629900,29387
1268.31,1.328372,634345,29782
1271.75,1.338181,638574,29311
1276.33,1.327377,642499,30234
1279.76,1.333134,645905,29994
1283.19,1.328322,648307,30441
1286.61,1.324773,650446,30792
1290.03,1.328969,652132,30575
1293.44,1.329894,653907,30593
1296.85,1.331144,655963,30601
1301.39,1.330559,657349,30707
1304.8,1.333278,657558,30525
1308.19,1.329677,658515,30824
1311.58,1.331307,658804,30722
1314.97,1.327811,659011,30980
1318.36,1.327661,658272,30956
1321.73,1.328760,658022,30866
1326.23,1.334909,657870,30425
1329.6,1.330155,656482,30695
1332.97,1.336171,654926,30201
1336.33,1.337422,653727,30059
1339.69,1.324058,652497,30940
1343.04,1.331871,649913,30268
1346.39,1.332889,647671,30093
1349.73,1.330068,645338,30180
1354.18,1.331160,641175,29910
1357.52,1.323820,638376,30287
1360.85,1.328089,635805,29870
1364.17,1.328974,633413,29697
1367.49,1.330756,631026,29464
1370.81,1.329056,628050,29440
1374.12,1.325581,625034,29534
1378.54,1.328227,620272,29131
1381.84,1.329672,616892,28876
1385.14,1.327463,613613,28869
1388.43,1.324961,611526,28937
1391.72,1.328844,610663,28639
1395.01,1.330190,610634,28549
1398.29,1.329839,611700,28622
1402.66,1.325253,614051,29037
1405.93,1.332963,616268,28629
1409.2,1.334797,617795,28579
1412.46,1.336924,618872,28489
1415.72,1.330465,619795,28959
1418.98,1.342797,620495,28180
1422.23,1.336286,621087,28633
1426.56,1.333148,621375,28854
1429.8,1.338007,621616,28544
1433.04,1.341557,622129,28335
1436.27,1.334565,621526,28767
1439.5,1.334004,621113,28785
1442.72,1.333568,620921,28805
1445.94,1.340641,620270,28310
1450.23,1.338886,618860,28360
1453.44,1.339588,617697,28261
1456.64,1.332324,616264,28671
1459.85,1.335892,614413,28351
1463.04,1.332155,612307,28498
1466.24,1.339328,610032,27927
1469.43,1.336153,607345,28008
1473.67,1.336965,603789,27792
1476.85,1.334254,601175,27845
1480.02,1.342692,597737,27153
1483.19,1.330342,594479,27784
1486.36,1.340459,591232,26996
1489.52,1.336700,587853,27075
1492.68,1.341749,583875,26581
1496.89,1.340502,578062,26392
1500.03,1.341743,574159,26139
1503.18,1.337923,570285,26192
1506.32,1.340299,565444,25828
1509.45,1.348525,560571,25125
1512.58,1.341043,555821,25345
1515.71,1.340666,550344,25117
1519.87,1.338567,543983,24947
1522.99,1.343902,538764,24406
1526.1,1.335579,533692,24644
1529.21,1.342143,527902,24011
1532.32,1.339232,521886,23897
1535.42,1.339110,515888,23629
1538.51,1.336491,509987,23500
1541.6,1.339102,503936,23082
1545.72,1.338445,494694,22693
1548.8,1.336631,488378,22497
1551.88,1.330154,481832,22529
1554.95,1.336855,474989,21869
1558.02,1.328405,467818,21962
1561.08,1.333683,460730,21368
1564.15,1.335227,454170,20989
1568.22,1.333208,444181,20623
1571.27,1.333254,436947,20285
1574.32,1.343072,429598,19498
1577.36,1.335987,422039,19470
1580.4,1.333211,414375,19239
1583.43,1.330082,406354,19003
1586.46,1.332291,398475,18540
1590.49,1.334078,388982,18024
1593.51,1.327909,380708,17893
1596.53,1.336115,372727,17190
1599.54,1.330462,365060,17057
1602.55,1.330222,357543,16715
1605.55,1.334301,349495,16186
1608.55,1.334046,341154,15809
1612.54,1.324958,330877,15657
1615.53,1.321214,322904,15412
1618.51,1.321367,315116,15035
1621.49,1.318124,307217,14768
1624.47,1.326166,299481,14132
1627.44,1.328702,292112,13704
1630.41,1.305955,284245,14052
1634.36,1.322865,274079,13032
1637.32,1.313100,266916,12980
1640.27,1.333698,259612,12040
1643.22,1.326648,251804,11869
1646.16,1.314767,244348,11837
1649.1,1.319055,236703,11354
1652.04,1.319879,228171,10924
1655.95,1.299838,215408,10800
1658.88,1.291508,204937,10474
1661.8,1.311427,193395,9441
1664.72,1.287021,179728,9281
1667.63,1.273528,163642,8717
1670.54,1.270798,146312,7843
1673.44,1.234778,128451,7481
1677.31,1.243007,105080,6005
1680.21,1.218795,88906,5372
1683.1,1.217050,75033,4552
1685.99,1.162727,63520,4367
1688.87,1.147797,53714,3822
1691.75,1.213709,45653,2791
1694.62,1.189124,39137,2532
1697.49,1.178360,33776,2240
1701.31,1.246559,28175,1597