Folder: textile_sorting_NIRSCAN_/ML/samples/unknown (part 11)

File: Column 1_078069_20241121_164357.csv
Method:,Column 1,,
Host Date-Time:,21/11/24 @ 16:43:57,,
Header Version:,1,,
System Temp (C):,31.37,,
Detector Temp (C):,26.27,,
Humidity (%):,5.17,,
Lamp PD:,3808,,
Shift Vector Coefficients:,-10.5391,0.0761263,-0.000134223,,
Pixel to Wavelength Coefficients:,1775.68,-0.916766,-0.000235065,,
Serial Number:,5510004,,
Scan Config Name:,Column 1,,
Scan Config Type:,Slew,,
Section 1,,
Start wavelength (nm):,900,,
End wavelength (nm):,1700,,
Pattern Pixel Width (nm):,   7.03,,,,
Exposure (ms):,  0.635,,,,
Digital Resolution:,228,,
Num Repeats:,6,,
PGA Gain:,64,,
Total Measurement Time in sec:,  2.706,,
Wavelength (nm),Absorbance (AU),Reference Signal (unitless),Sample Signal (unitless)
901.51,1.299531,108485,5443
905.376,1.314579,121306,5879
909.237,1.335301,131909,6095
913.095,1.302606,143299,7139
916.948,1.279291,156982,8252
922.079,1.305779,179937,8899
925.923,1.315128,200504,9705
929.762,1.314500,222660,10793
933.597,1.309002,244426,11999
937.427,1.302830,263972,13144
941.254,1.310887,281845,13776
945.076,1.306397,297271,14681
950.165,1.312979,315605,15352
953.978,1.316623,328029,15823
957.786,1.313622,340470,16537
961.59,1.305213,352317,17447
965.389,1.311118,363056,17736
969.185,1.316191,373162,18018
972.976,1.303616,382632,19018
976.763,1.306259,391202,19326
981.806,1.319984,400190,19155
985.583,1.310291,406088,19876
989.355,1.301965,410162,20464
993.124,1.303021,412868,20549
996.888,1.305734,414263,20490
1000.65,1.315026,415476,20115
1004.4,1.311117,415479,20297
1009.41,1.308726,414358,20354
1013.15,1.308223,412923,20307
1016.89,1.307565,411526,20269
1020.63,1.311133,409066,19983
1024.36,1.306376,406777,20090
1028.09,1.308031,404427,19898
1031.82,1.310149,401911,19678
1036.78,1.313133,398410,19373
1040.49,1.312384,396204,19299
1044.2,1.308694,394236,19367
1047.91,1.314739,392042,18993
1051.61,1.310631,389823,19065
1055.31,1.305566,388234,19210
1059,1.312427,387599,18878
1063.92,1.315937,386688,18682
1067.61,1.321334,386598,18447
1071.29,1.306555,387377,19124
1074.96,1.316778,388536,18735
1078.63,1.313225,389855,18953
1082.3,1.318581,391215,18786
1085.96,1.308308,393215,19334
1090.84,1.310078,396270,19405
1094.49,1.308433,398760,19601
1098.14,1.307893,400987,19735
1101.79,1.315428,403477,19516
1105.43,1.309034,406116,19935
1109.06,1.321445,407701,19449
1112.7,1.325057,409859,19390
1117.53,1.318248,412494,19823
1121.15,1.318576,414909,19924
1124.77,1.322047,416559,19844
1128.38,1.323028,418532,19893
1131.99,1.321892,419956,20013
1135.6,1.320293,421946,20182
1139.2,1.315744,423881,20488
1143.99,1.329332,426786,19993
1147.58,1.314947,428617,20755
1151.17,1.316730,431169,20793
1154.75,1.324722,433579,20528
1158.33,1.320144,436264,20874
1161.91,1.311431,439132,21437
1165.48,1.318752,442389,21235
1169.04,1.315301,446101,21584
1173.79,1.317471,451929,21757
1177.34,1.322370,456026,21708
1180.9,1.323644,461306,21895
1184.44,1.316300,467657,22575
1187.99,1.319093,473969,22733
1191.52,1.319440,479856,22997
1195.06,1.316146,487372,23535
1199.76,1.318243,497347,23901
1203.29,1.326724,504311,23767
1206.81,1.325827,511507,24156
1210.33,1.322395,519078,24708
1213.84,1.323710,527163,25017
1217.35,1.323013,534208,25392
1220.85,1.321457,540472,25782
1225.51,1.324082,549929,26075
1229.01,1.325103,556888,26343
1232.5,1.321757,562180,26799
1235.98,1.321745,567975,27076
1239.46,1.328277,574815,26993
1242.94,1.323152,582782,27692
1246.41,1.325540,591476,27951
1251.03,1.325534,604016,28544
1254.5,1.322467,612289,29140
1257.96,1.321456,619125,29534
1261.41,1.328374,624551,29322
1264.86,1.320345,629900,30125
1268.31,1.329686,634345,29692
1271.75,1.327222,638574,30060
1276.33,1.331606,642499,29941
1279.76,1.324518,645905,30595
1283.19,1.324968,648307,30677
1286.61,1.332687,650446,30236
1290.03,1.329367,652132,30547
1293.44,1.338540,653907,29990
1296.85,1.333577,655963,30430
1301.39,1.330149,657349,30736
1304.8,1.336506,657558,30299
1308.19,1.331640,658515,30685
1311.58,1.336812,658804,30335
1314.97,1.331245,659011,30736
1318.36,1.328250,658272,30914
1321.73,1.332945,658022,30570
1326.23,1.332107,657870,30622
1329.6,1.336325,656482,30262
1332.97,1.327317,654926,30823
1336.33,1.335231,653727,30211
1339.69,1.330606,652497,30477
1343.04,1.332762,649913,30206
1346.39,1.332875,647671,30094
1349.73,1.329766,645338,30201
1354.18,1.330348,641175,29966
1357.52,1.327434,638376,30036
1360.85,1.327232,635805,29929
1364.17,1.325725,633413,29920
1367.49,1.325045,631026,29854
1370.81,1.330090,628050,29370
1374.12,1.329971,625034,29237
1378.54,1.336535,620272,28579
1381.84,1.325422,616892,29160
1385.14,1.325751,613613,28983
1388.43,1.329685,611526,28624
1391.72,1.323164,610663,29016
1395.01,1.327460,610634,28729
1398.29,1.320873,611700,29219
1402.66,1.322628,614051,29213
1405.93,1.325787,616268,29106
1409.2,1.328147,617795,29020
1412.46,1.331651,618872,28837
1415.72,1.331245,619795,28907
1418.98,1.331315,620495,28935
1422.23,1.332600,621087,28877
1426.56,1.332937,621375,28868
1429.8,1.335943,621616,28680
1433.04,1.331812,622129,28978
1436.27,1.328568,621526,29167
1439.5,1.335788,621113,28667
1442.72,1.328651,620921,29133
1445.94,1.337066,620270,28544
1450.23,1.338274,618860,28400
1453.44,1.328318,617697,29004
1456.64,1.331991,616264,28693
1459.85,1.336137,614413,28335
1463.04,1.336474,612307,28216
1466.24,1.335520,610032,28173
1469.43,1.335549,607345,28047
1473.67,1.335468,603789,27888
1476.85,1.337353,601175,27647
1480.02,1.334266,597737,27685
1483.19,1.332630,594479,27638
1486.36,1.337524,591232,27179
1489.52,1.335355,587853,27159
1492.68,1.338850,583875,26759
1496.89,1.342085,578062,26296
1500.03,1.339258,574159,26289
1503.18,1.341185,570285,25996
1506.32,1.333939,565444,26209
1509.45,1.332057,560571,26096
1512.58,1.334900,555821,25706
1515.71,1.336057,550344,25385
1519.87,1.333771,543983,25224
1522.99,1.337210,538764,24785
1526.1,1.340310,533692,24377
1529.21,1.342288,527902,24003
1532.32,1.342717,521886,23706
1535.42,1.339276,515888,23620
1538.51,1.340707,509987,23273
1541.6,1.339704,503936,23050
1545.72,1.339729,494694,22626
1548.8,1.332654,488378,22704
1551.88,1.336699,481832,22192
1554.95,1.334814,474989,21972
1558.02,1.336710,467818,21546
1561.08,1.331614,460730,21470
1564.15,1.335041,454170,20998
1568.22,1.336824,444181,20452
1571.27,1.343676,436947,19804
1574.32,1.333337,429598,19940
1577.36,1.328096,422039,19827
1580.4,1.337613,414375,19045
1583.43,1.336877,406354,18708
1586.46,1.333652,398475,18482
1590.49,1.330001,388982,18194
1593.51,1.330489,380708,17787
1596.53,1.325977,372727,17596
1599.54,1.330029,365060,17074
1602.55,1.334819,357543,16539
1605.55,1.325405,349495,16521
1608.55,1.333278,341154,15837
1612.54,1.319336,330877,15861
1615.53,1.335450,322904,14915
1618.51,1.338512,315116,14453
1621.49,1.325239,307217,14528
1624.47,1.324877,299481,14174
1627.44,1.323818,292112,13859
1630.41,1.328179,284245,13351
1634.36,1.323098,274079,13025
1637.32,1.318148,266916,12830
1640.27,1.321604,259612,12380
1643.22,1.323259,251804,11962
1646.16,1.322466,244348,11629
1649.1,1.323437,236703,11240
1652.04,1.308810,228171,11206
1655.95,1.310545,215408,10537
1658.88,1.327048,204937,9651
1661.8,1.336129,193395,8919
1664.72,1.314847,179728,8705
1667.63,1.298653,163642,8227
1670.54,1.335012,146312,6765
1673.44,1.307471,128451,6328
1677.31,1.305767,105080,5197
1680.21,1.327339,88906,4184
1683.1,1.352678,75033,3331
1685.99,1.372513,63520,2694
1688.87,1.320154,53714,2570
1691.75,1.281253,45653,2389
1694.62,1.216741,39137,2376
1697.49,1.316421,33776,1630
1701.31,1.205092,28175,1757

File: Column 1_078070_20241121_164400.csv
Method:,Column 1,,
Host Date-Time:,21/11/24 @ 16:44:0,,
Header Version:,1,,
System Temp (C):,31.42,,
Detector Temp (C):,26.3,,
Humidity (%):,5.17,,
Lamp PD:,3808,,
Shift Vector Coefficients:,-10.5391,0.0761263,-0.000134223,,
Pixel to Wavelength Coefficients:,1775.68,-0.916766,-0.000235065,,
Serial Number:,5510004,,
Scan Config Name:,Column 1,,
Scan Config Type:,Slew,,
Section 1,,
Start wavelength (nm):,900,,
End wavelength (nm):,1700,,
Pattern Pixel Width (nm):,   7.03,,,,
Exposure (ms):,  0.635,,,,
Digital Resolution:,228,,
Num Repeats:,6,,
PGA Gain:,64,,
Total Measurement Time in sec:,  2.708,,
Wavelength (nm),Absorbance (AU),Reference Signal (unitless),Sample Signal (unitless)
901.51,1.353857,108485,4803
905.376,1.301696,121306,6056
909.237,1.314434,131909,6395
913.095,1.322013,143299,6827
916.948,1.349389,156982,7022
922.079,1.310095,179937,8811
925.923,1.312184,200504,9771
929.762,1.309022,222660,10930
933.597,1.314026,244426,11861
937.427,1.322637,263972,12558
941.254,1.317527,281845,13567
945.076,1.317240,297271,14319
950.165,1.309906,315605,15461
953.978,1.307874,328029,16145
957.786,1.316283,340470,16436
961.59,1.314776,352317,17067
965.389,1.319000,363056,17417
969.185,1.305289,373162,18476
972.976,1.299367,382632,19205
976.763,1.307001,391202,19293
981.806,1.309103,400190,19641
985.583,1.305597,406088,20092
989.355,1.313100,410162,19946
993.124,1.309322,412868,20253
996.888,1.310787,414263,20253
1000.65,1.312164,415476,20248
1004.4,1.306583,415479,20510
1009.41,1.315478,414358,20040
1013.15,1.312047,412923,20129
1016.89,1.311698,411526,20077
1020.63,1.315984,409066,19761
1024.36,1.306528,406777,20083
1028.09,1.309539,404427,19829
1031.82,1.305320,401911,19898
1036.78,1.309806,398410,19522
1040.49,1.308821,396204,19458
1044.2,1.307619,394236,19415
1047.91,1.308338,392042,19275
1051.61,1.306189,389823,19261
1055.31,1.312264,388234,18916
1059,1.318776,387599,18604
1063.92,1.305714,386688,19127
1067.61,1.309650,386598,18950
1071.29,1.303703,387377,19250
1074.96,1.316592,388536,18743
1078.63,1.314028,389855,18918
1082.3,1.314646,391215,18957
1085.96,1.315671,393215,19009
1090.84,1.316027,396270,19141
1094.49,1.317207,398760,19209
1098.14,1.329250,400987,18788
1101.79,1.322382,403477,19206
1105.43,1.314780,406116,19673
1109.06,1.319395,407701,19541
1112.7,1.318278,409859,19695
1117.53,1.316237,412494,19915
1121.15,1.321639,414909,19784
1124.77,1.320453,416559,19917
1128.38,1.323203,418532,19885
1131.99,1.324525,419956,19892
1135.6,1.321888,421946,20108
1139.2,1.316487,423881,20453
1143.99,1.321454,426786,20359
1147.58,1.329955,428617,20050
1151.17,1.325870,431169,20360
1154.75,1.327502,433579,20397
1158.33,1.313782,436264,21182
1161.91,1.313401,439132,21340
1165.48,1.324765,442389,20943
1169.04,1.316006,446101,21549
1173.79,1.313913,451929,21936
1177.34,1.318486,456026,21903
1180.9,1.309669,461306,22611
1184.44,1.323672,467657,22195
1187.99,1.323741,473969,22491
1191.52,1.329121,479856,22490
1195.06,1.320803,487372,23284
1199.76,1.316177,497347,24015
1203.29,1.319817,504311,24148
1206.81,1.323925,511507,24262
1210.33,1.322167,519078,24721
1213.84,1.322133,527163,25108
1217.35,1.321460,534208,25483
1220.85,1.328812,540472,25349
1225.51,1.325835,549929,25970
1229.01,1.322522,556888,26500
1232.5,1.323055,562180,26719
1235.98,1.323770,567975,26950
1239.46,1.314672,574815,27852
1242.94,1.325132,582782,27566
1246.41,1.325773,591476,27936
1251.03,1.322260,604016,28760
1254.5,1.324484,612289,29005
1257.96,1.324837,619125,29305
1261.41,1.326129,624551,29474
1264.86,1.323746,629900,29890
1268.31,1.326407,634345,29917
1271.75,1.332192,638574,29718
1276.33,1.325170,642499,30388
1279.76,1.330953,645905,30145
1283.19,1.328022,648307,30462
1286.61,1.332773,650446,30230
1290.03,1.330820,652132,30445
1293.44,1.332043,653907,30442
1296.85,1.331925,655963,30546
1301.39,1.331989,657349,30606
1304.8,1.332667,657558,30568
1308.19,1.332348,658515,30635
1311.58,1.332482,658804,30639
1314.97,1.333782,659011,30557
1318.36,1.333636,658272,30533
1321.73,1.329084,658022,30843
1326.23,1.332206,657870,30615
1329.6,1.332382,656482,30538
1332.97,1.339433,654926,29975
1336.33,1.335030,653727,30225
1339.69,1.340595,652497,29784
1343.04,1.330868,649913,30338
1346.39,1.331866,647671,30164
1349.73,1.333637,645338,29933
1354.18,1.328612,641175,30086
1357.52,1.329725,638376,29878
1360.85,1.330538,635805,29702
1364.17,1.332587,633413,29451
1367.49,1.322637,631026,30020
1370.81,1.327628,628050,29537
1374.12,1.336692,625034,28788
1378.54,1.328824,620272,29091
1381.84,1.329221,616892,28906
1385.14,1.327162,613613,28889
1388.43,1.334122,611526,28333
1391.72,1.326319,610663,28806
1395.01,1.327324,610634,28738
1398.29,1.324815,611700,28955
1402.66,1.325372,614051,29029
1405.93,1.334148,616268,28551
1409.2,1.328701,617795,28983
1412.46,1.327037,618872,29145
1415.72,1.329222,619795,29042
1418.98,1.332246,620495,28873
1422.23,1.334364,621087,28760
1426.56,1.332742,621375,28881
1429.8,1.330032,621616,29073
1433.04,1.333358,622129,28875
1436.27,1.335502,621526,28705
1439.5,1.336774,621113,28602
1442.72,1.329786,620921,29057
1445.94,1.330812,620270,28958
1450.23,1.331582,618860,28841
1453.44,1.336724,617697,28448
1456.64,1.337152,616264,28354
1459.85,1.340094,614413,28078
1463.04,1.339966,612307,27990
1466.24,1.335936,610032,28146
1469.43,1.338891,607345,27832
1473.67,1.341142,603789,27526
1476.85,1.337117,601175,27662
1480.02,1.337035,597737,27509
1483.19,1.334488,594479,27520
1486.36,1.344467,591232,26748
1489.52,1.333361,587853,27284
1492.68,1.338882,583875,26757
1496.89,1.338925,578062,26488
1500.03,1.338763,574159,26319
1503.18,1.337161,570285,26238
1506.32,1.338520,565444,25934
1509.45,1.344276,560571,25372
1512.58,1.339725,555821,25422
1515.71,1.341722,550344,25056
1519.87,1.342361,543983,24730
1522.99,1.341666,538764,24532
1526.1,1.342830,533692,24236
1529.21,1.333121,527902,24515
1532.32,1.334982,521886,24132
1535.42,1.341802,515888,23483
1538.51,1.338399,509987,23397
1541.6,1.339347,503936,23069
1545.72,1.338311,494694,22700
1548.8,1.342344,488378,22203
1551.88,1.330694,481832,22501
1554.95,1.338646,474989,21779
1558.02,1.340781,467818,21345
1561.08,1.328069,460730,21646
1564.15,1.337863,454170,20862
1568.22,1.348053,444181,19930
1571.27,1.328611,436947,20503
1574.32,1.336463,429598,19797
1577.36,1.334472,422039,19538
1580.4,1.334681,414375,19174
1583.43,1.330929,406354,18966
1586.46,1.323388,398475,18924
1590.49,1.342251,388982,17688
1593.51,1.334611,380708,17619
1596.53,1.326174,372727,17588
1599.54,1.334837,365060,16886
1602.55,1.329521,357543,16742
1605.55,1.333015,349495,16234
1608.55,1.345345,341154,15403
1612.54,1.335486,330877,15282
1615.53,1.322993,322904,15349
1618.51,1.323162,315116,14973
1621.49,1.327367,307217,14457
1624.47,1.321398,299481,14288
1627.44,1.318523,292112,14029
1630.41,1.325746,284245,13426
1634.36,1.319413,274079,13136
1637.32,1.326107,266916,12597
1640.27,1.317311,259612,12503
1643.22,1.314738,251804,12199
1646.16,1.329052,244348,11454
1649.1,1.317299,236703,11400
1652.04,1.335049,228171,10549
1655.95,1.307587,215408,10609
1658.88,1.311881,204937,9994
1661.8,1.323272,193395,9187
1664.72,1.310627,179728,8790
1667.63,1.314184,163642,7938
1670.54,1.303686,146312,7271
1673.44,1.322270,128451,6116
1677.31,1.294874,105080,5329
1680.21,1.354207,88906,3933
1683.1,1.287990,75033,3866
1685.99,1.280858,63520,3327
1688.87,1.313946,53714,2607
1691.75,1.364783,45653,1971
1694.62,1.342656,39137,1778
1697.49,1.258862,33776,1861
1701.31,1.215853,28175,1714

File: Column 1_078071_20241121_164403.csv
Method:,Column 1,,
Host Date-Time:,21/11/24 @ 16:44:3,,
Header Version:,1,,
System Temp (C):,31.43,,
Detector Temp (C):,26.39,,
Humidity (%):,5.22,,
Lamp PD:,3808,,
Shift Vector Coefficients:,-10.5391,0.0761263,-0.000134223,,
Pixel to Wavelength Coefficients:,1775.68,-0.916766,-0.000235065,,
Serial Number:,5510004,,
Scan Config Name:,Column 1,,
Scan Config Type:,Slew,,
Section 1,,
Start wavelength (nm):,900,,
End wavelength (nm):,1700,,
Pattern Pixel Width (nm):,   7.03,,,,
Exposure (ms):,  0.635,,,,
Digital Resolution:,228,,
Num Repeats:,6,,
PGA Gain:,64,,
Total Measurement Time in sec:,  2.707,,
Wavelength (nm),Absorbance (AU),Reference Signal (unitless),Sample Signal (unitless)
901.51,1.301210,108485,5422
905.376,1.352132,121306,5392
909.237,1.346342,131909,5942
913.095,1.294589,143299,7272
916.948,1.325212,156982,7424
922.079,1.316251,179937,8687
925.923,1.311829,200504,9779
929.762,1.301264,222660,11127
933.597,1.309364,244426,11989
937.427,1.320981,263972,12606
941.254,1.330194,281845,13177
945.076,1.314519,297271,14409
950.165,1.308056,315605,15527
953.978,1.317283,328029,15799
957.786,1.312494,340470,16580
961.59,1.315107,352317,17054
965.389,1.307169,363056,17898
969.185,1.317422,373162,17967
972.976,1.312685,382632,18625
976.763,1.310663,391202,19131
981.806,1.309855,400190,19607
985.583,1.308373,406088,19964
989.355,1.308379,410162,20164
993.124,1.307332,412868,20346
996.888,1.308157,414263,20376
1000.65,1.306729,415476,20503
1004.4,1.306012,415479,20537
1009.41,1.307660,414358,20404
1013.15,1.306750,412923,20376
1016.89,1.314585,411526,19944
1020.63,1.312526,409066,19919
1024.36,1.319455,406777,19494
1028.09,1.312705,404427,19685
1031.82,1.313739,401911,19516
1036.78,1.304939,398410,19742
1040.49,1.291794,396204,20236
1044.2,1.307686,394236,19412
1047.91,1.313985,392042,19026
1051.61,1.311337,389823,19034
1055.31,1.316509,388234,18732
1059,1.310842,387599,18947
1063.92,1.315937,386688,18682
1067.61,1.308986,386598,18979
1071.29,1.322043,387377,18454
1074.96,1.309194,388536,19065
1078.63,1.317925,389855,18749
1082.3,1.310474,391215,19140
1085.96,1.314257,393215,19071
1090.84,1.317527,396270,19075
1094.49,1.318565,398760,19149
1098.14,1.321279,400987,19136
1101.79,1.311705,403477,19684
1105.43,1.323633,406116,19276
1109.06,1.314247,407701,19774
1112.7,1.318587,409859,19681
1117.53,1.326520,412494,19449
1121.15,1.314454,414909,20114
1124.77,1.324153,416559,19748
1128.38,1.314853,418532,20271
1131.99,1.318799,419956,20156
1135.6,1.324292,421946,19997
1139.2,1.322926,423881,20152
1143.99,1.319050,426786,20472
1147.58,1.326869,428617,20193
1151.17,1.318384,431169,20714
1154.75,1.323644,433579,20579
1158.33,1.316931,436264,21029
1161.91,1.324866,439132,20784
1165.48,1.312176,442389,21559
1169.04,1.323261,446101,21192
1173.79,1.320114,451929,21625
1177.34,1.322790,456026,21687
1180.9,1.312173,461306,22481
1184.44,1.329979,467657,21875
1187.99,1.315858,473969,22903
1191.52,1.318591,479856,23042
1195.06,1.326718,487372,22969
1199.76,1.321032,497347,23748
1203.29,1.323520,504311,23943
1206.81,1.322656,511507,24333
1210.33,1.322817,519078,24684
1213.84,1.322496,527163,25087
1217.35,1.319555,534208,25595
1220.85,1.333879,540472,25055
1225.51,1.329041,549929,25779
1229.01,1.325779,556888,26302
1232.5,1.333368,562180,26092
1235.98,1.325660,567975,26833
1239.46,1.323318,574815,27303
1242.94,1.321664,582782,27787
1246.41,1.325353,591476,27963
1251.03,1.331000,604016,28187
1254.5,1.325773,612289,28919
1257.96,1.326812,619125,29172
1261.41,1.328611,624551,29306
1264.86,1.331516,629900,29360
1268.31,1.328912,634345,29745
1271.75,1.330820,638574,29812
1276.33,1.334064,642499,29772
1279.76,1.331285,645905,30122
1283.19,1.333691,648307,30067
1286.61,1.327674,650446,30587
1290.03,1.334415,652132,30194
1293.44,1.328831,653907,30668
1296.85,1.332195,655963,30527
1301.39,1.336153,657349,30314
1304.8,1.333008,657558,30544
1308.19,1.327050,658515,31011
1311.58,1.332269,658804,30654
1314.97,1.336376,659011,30375
1318.36,1.330179,658272,30777
1321.73,1.329915,658022,30784
1326.23,1.332802,657870,30573
1329.6,1.334421,656482,30395
1332.97,1.334793,654926,30297
1336.33,1.337075,653727,30083
1339.69,1.329909,652497,30526
1343.04,1.330382,649913,30372
1346.39,1.331909,647671,30161
1349.73,1.335863,645338,29780
1354.18,1.330116,641175,29982
1357.52,1.332437,638376,29692
1360.85,1.331197,635805,29657
1364.17,1.330733,633413,29577
1367.49,1.321885,631026,30072
1370.81,1.327951,628050,29515
1374.12,1.328725,625034,29321
1378.54,1.327051,620272,29210
1381.84,1.327302,616892,29034
1385.14,1.334592,613613,28399
1388.43,1.327415,611526,28774
1391.72,1.323449,610663,28997
1395.01,1.332784,610634,28379
1398.29,1.323049,611700,29073
1402.66,1.327307,614051,28900
1405.93,1.327192,616268,29012
1409.2,1.331920,617795,28769
1412.46,1.338298,618872,28399
1415.72,1.327520,619795,29156
1418.98,1.327623,620495,29182
1422.23,1.333157,621087,28840
1426.56,1.334580,621375,28759
1429.8,1.333015,621616,28874
1433.04,1.338518,622129,28534
1436.27,1.334233,621526,28789
1439.5,1.335576,621113,28681
1442.72,1.331343,620921,28953
1445.94,1.337736,620270,28500
1450.23,1.341913,618860,28163
1453.44,1.329968,617697,28894
1456.64,1.334419,616264,28533
1459.85,1.333753,614413,28491
1463.04,1.339083,612307,28047
1466.24,1.339328,610032,27927
1469.43,1.337442,607345,27925
1473.67,1.337935,603789,27730
1476.85,1.337212,601175,27656
1480.02,1.333106,597737,27759
1483.19,1.345613,594479,26824
1486.36,1.338244,591232,27134
1489.52,1.342611,587853,26709
1492.68,1.339955,583875,26691
1496.89,1.332642,578062,26874
1500.03,1.341743,574159,26139
1503.18,1.343497,570285,25858
1506.32,1.335400,565444,26121
1509.45,1.334594,560571,25944
1512.58,1.337918,555821,25528
1515.71,1.337943,550344,25275
1519.87,1.336500,543983,25066
1522.99,1.340887,538764,24576
1526.1,1.332087,533692,24843
1529.21,1.341456,527902,24049
1532.32,1.334784,521886,24143
1535.42,1.340233,515888,23568
1538.51,1.346871,509987,22945
1541.6,1.335225,503936,23289
1545.72,1.339077,494694,22660
1548.8,1.344777,488378,22079
1551.88,1.336836,481832,22185
1554.95,1.338725,474989,21775
1558.02,1.344479,467818,21164
1561.08,1.337459,460730,21183
1564.15,1.330821,454170,21203
1568.22,1.330437,444181,20755
1571.27,1.332462,436947,20322
1574.32,1.336704,429598,19786
1577.36,1.336634,422039,19441
1580.4,1.333076,414375,19245
1583.43,1.325151,406354,19220
1586.46,1.331519,398475,18573
1590.49,1.340976,388982,17740
1593.51,1.333601,380708,17660
1596.53,1.339056,372727,17074
1599.54,1.328125,365060,17149
1602.55,1.329547,357543,16741
1605.55,1.324643,349495,16550
1608.55,1.324832,341154,16148
1612.54,1.331132,330877,15436
1615.53,1.328718,322904,15148
1618.51,1.336594,315116,14517
1621.49,1.319154,307217,14733
1624.47,1.332387,299481,13931
1627.44,1.324947,292112,13823
1630.41,1.329352,284245,13315
1634.36,1.319181,274079,13143
1637.32,1.317674,266916,12844
1640.27,1.311137,259612,12682
1643.22,1.324714,251804,11922
1646.16,1.314951,244348,11832
1649.1,1.321394,236703,11293
1652.04,1.314348,228171,11064
1655.95,1.303310,215408,10714
1658.88,1.309066,204937,10059
1661.8,1.307854,193395,9519
1664.72,1.309689,179728,8809
1667.63,1.329779,163642,7658
1670.54,1.314756,146312,7088
1673.44,1.305076,128451,6363
1677.31,1.326126,105080,4959
1680.21,1.326717,88906,4190
1683.1,1.279646,75033,3941
1685.99,1.328986,63520,2978
1688.87,1.274938,53714,2852
1691.75,1.258414,45653,2518
1694.62,1.256328,39137,2169
1697.49,1.298671,33776,1698
1701.31,1.454668,28175,989