Folder: textile_sorting_NIRSCAN_/ML/samples/unknown (part 19)

File: Column 1_078126_20241121_164645.csv
Method:,Column 1,,
Host Date-Time:,21/11/24 @ 16:46:45,,
Header Version:,1,,
System Temp (C):,32.9,,
Detector Temp (C):,28.4,,
Humidity (%):,3.71,,
Lamp PD:,3806,,
Shift Vector Coefficients:,-10.5391,0.0761263,-0.000134223,,
Pixel to Wavelength Coefficients:,1775.68,-0.916766,-0.000235065,,
Serial Number:,5510004,,
Scan Config Name:,Column 1,,
Scan Config Type:,Slew,,
Section 1,,
Start wavelength (nm):,900,,
End wavelength (nm):,1700,,
Pattern Pixel Width (nm):,   7.03,,,,
Exposure (ms):,  0.635,,,,
Digital Resolution:,228,,
Num Repeats:,6,,
PGA Gain:,64,,
Total Measurement Time in sec:,  2.721,,
Wavelength (nm),Absorbance (AU),Reference Signal (unitless),Sample Signal (unitless)
901.51,1.319868,108485,5194
905.376,1.317098,121306,5845
909.237,1.333310,131909,6123
913.095,1.327454,143299,6742
916.948,1.315952,156982,7584
922.079,1.334788,179937,8324
925.923,1.330894,200504,9359
929.762,1.317083,222660,10729
933.597,1.309509,244426,11985
937.427,1.319742,263972,12642
941.254,1.315132,281845,13642
945.076,1.316240,297271,14352
950.165,1.319018,315605,15140
953.978,1.315691,328029,15857
957.786,1.316468,340470,16429
961.59,1.328162,352317,16549
965.389,1.313081,363056,17656
969.185,1.312829,373162,18158
972.976,1.308993,382632,18784
976.763,1.311641,391202,19088
981.806,1.319237,400190,19188
985.583,1.307568,406088,20001
989.355,1.315918,410162,19817
993.124,1.320552,412868,19736
996.888,1.307072,414263,20427
1000.65,1.307364,415476,20473
1004.4,1.312832,415479,20217
1009.41,1.306491,414358,20459
1013.15,1.311465,412923,20156
1016.89,1.315173,411526,19917
1020.63,1.304768,409066,20278
1024.36,1.319188,406777,19506
1028.09,1.317831,404427,19454
1031.82,1.310767,401911,19650
1036.78,1.320048,398410,19067
1040.49,1.315501,396204,19161
1044.2,1.312387,394236,19203
1047.91,1.308992,392042,19246
1051.61,1.319235,389823,18691
1055.31,1.312058,388234,18925
1059,1.311875,387599,18902
1063.92,1.319415,386688,18533
1067.61,1.317117,386598,18627
1071.29,1.302149,387377,19319
1074.96,1.314927,388536,18815
1078.63,1.314556,389855,18895
1082.3,1.313570,391215,19004
1085.96,1.315762,393215,19005
1090.84,1.319169,396270,19003
1094.49,1.312798,398760,19405
1098.14,1.320916,400987,19152
1101.79,1.317234,403477,19435
1105.43,1.325915,406116,19175
1109.06,1.316361,407701,19678
1112.7,1.315947,409859,19801
1117.53,1.316194,412494,19917
1121.15,1.317966,414909,19952
1124.77,1.326027,416559,19663
1128.38,1.317583,418532,20144
1131.99,1.315751,419956,20298
1135.6,1.313715,421946,20490
1139.2,1.311085,423881,20709
1143.99,1.317504,426786,20545
1147.58,1.320231,428617,20504
1151.17,1.327515,431169,20283
1154.75,1.317900,433579,20853
1158.33,1.318068,436264,20974
1161.91,1.321307,439132,20955
1165.48,1.319530,442389,21197
1169.04,1.325315,446101,21092
1173.79,1.316255,451929,21818
1177.34,1.314401,456026,22110
1180.9,1.317089,461306,22228
1184.44,1.331451,467657,21801
1187.99,1.322777,473969,22541
1191.52,1.318365,479856,23054
1195.06,1.321849,487372,23228
1199.76,1.328466,497347,23345
1203.29,1.317557,504311,24274
1206.81,1.328297,511507,24019
1210.33,1.327398,519078,24425
1213.84,1.326426,527163,24861
1217.35,1.330066,534208,24983
1220.85,1.331355,540472,25201
1225.51,1.338596,549929,25218
1229.01,1.325202,556888,26337
1232.5,1.325991,562180,26539
1235.98,1.323255,567975,26982
1239.46,1.321968,574815,27388
1242.94,1.325795,582782,27524
1246.41,1.328846,591476,27739
1251.03,1.325138,604016,28570
1254.5,1.325443,612289,28941
1257.96,1.325994,619125,29227
1261.41,1.329917,624551,29218
1264.86,1.331338,629900,29372
1268.31,1.329277,634345,29720
1271.75,1.331068,638574,29795
1276.33,1.323815,642499,30483
1279.76,1.323398,645905,30674
1283.19,1.326571,648307,30564
1286.61,1.335367,650446,30050
1290.03,1.329367,652132,30547
1293.44,1.327671,653907,30750
1296.85,1.328794,655963,30767
1301.39,1.331947,657349,30609
1304.8,1.340610,657558,30014
1308.19,1.335992,658515,30379
1311.58,1.330248,658804,30797
1314.97,1.329849,659011,30835
1318.36,1.332017,658272,30647
1321.73,1.335053,658022,30422
1326.23,1.329491,657870,30807
1329.6,1.330693,656482,30657
1332.97,1.340158,654926,29925
1336.33,1.339580,653727,29910
1339.69,1.330521,652497,30483
1343.04,1.333337,649913,30166
1346.39,1.336337,647671,29855
1349.73,1.328531,645338,30287
1354.18,1.328554,641175,30090
1357.52,1.328462,638376,29965
1360.85,1.327464,635805,29913
1364.17,1.329750,633413,29644
1367.49,1.327291,631026,29700
1370.81,1.327598,628050,29539
1374.12,1.335201,625034,28887
1378.54,1.328257,620272,29129
1381.84,1.335075,616892,28519
1385.14,1.329136,613613,28758
1388.43,1.326932,611526,28806
1391.72,1.329253,610663,28612
1395.01,1.328368,610634,28669
1398.29,1.327236,611700,28794
1402.66,1.328556,614051,28817
1405.93,1.333282,616268,28608
1409.2,1.331346,617795,28807
1412.46,1.332374,618872,28789
1415.72,1.331185,619795,28911
1418.98,1.338076,620495,28488
1422.23,1.338506,621087,28487
1426.56,1.334958,621375,28734
1429.8,1.333346,621616,28852
1433.04,1.337651,622129,28591
1436.27,1.333389,621526,28845
1439.5,1.339654,621113,28413
1442.72,1.333011,620921,28842
1445.94,1.334638,620270,28704
1450.23,1.337419,618860,28456
1453.44,1.340727,617697,28187
1456.64,1.339179,616264,28222
1459.85,1.339924,614413,28089
1463.04,1.333636,612307,28401
1466.24,1.335689,610032,28162
1469.43,1.340642,607345,27720
1473.67,1.337044,603789,27787
1476.85,1.337777,601175,27620
1480.02,1.343220,597737,27120
1483.19,1.340063,594479,27169
1486.36,1.340073,591232,27020
1489.52,1.330821,587853,27444
1492.68,1.340460,583875,26660
1496.89,1.339762,578062,26437
1500.03,1.337511,574159,26395
1503.18,1.345399,570285,25745
1506.32,1.340114,565444,25839
1509.45,1.348144,560571,25147
1512.58,1.345469,555821,25088
1515.71,1.338132,550344,25264
1519.87,1.342379,543983,24729
1522.99,1.337718,538764,24756
1526.1,1.340506,533692,24366
1529.21,1.336322,527902,24335
1532.32,1.337672,521886,23983
1535.42,1.343432,515888,23395
1538.51,1.335808,509987,23537
1541.6,1.331585,503936,23485
1545.72,1.341094,494694,22555
1548.8,1.334936,488378,22585
1551.88,1.332473,481832,22409
1554.95,1.336815,474989,21871
1558.02,1.339359,467818,21415
1561.08,1.334720,460730,21317
1564.15,1.341689,454170,20679
1568.22,1.336824,444181,20452
1571.27,1.340616,436947,19944
1574.32,1.335083,429598,19860
1577.36,1.335251,422039,19503
1580.4,1.344879,414375,18729
1583.43,1.336947,406354,18705
1586.46,1.345129,398475,18000
1590.49,1.326246,388982,18352
1593.51,1.338150,380708,17476
1596.53,1.330343,372727,17420
1599.54,1.332324,365060,16984
1602.55,1.331288,357543,16674
1605.55,1.327962,349495,16424
1608.55,1.329918,341154,15960
1612.54,1.313705,330877,16068
1615.53,1.320398,322904,15441
1618.51,1.334862,315116,14575
1621.49,1.326287,307217,14493
1624.47,1.329033,299481,14039
1627.44,1.341600,292112,13303
1630.41,1.323681,284245,13490
1634.36,1.322898,274079,13031
1637.32,1.321512,266916,12731
1640.27,1.322412,259612,12357
1643.22,1.314632,251804,12202
1646.16,1.320826,244348,11673
1649.1,1.320856,236703,11307
1652.04,1.325078,228171,10794
1655.95,1.315269,215408,10423
1658.88,1.306354,204937,10122
1661.8,1.297797,193395,9742
1664.72,1.294002,179728,9133
1667.63,1.300823,163642,8186
1670.54,1.282357,146312,7637
1673.44,1.284612,128451,6670
1677.31,1.270010,105080,5643
1680.21,1.254150,88906,4952
1683.1,1.289228,75033,3855
1685.99,1.329132,63520,2977
1688.87,1.250512,53714,3017
1691.75,1.273149,45653,2434
1694.62,1.255128,39137,2175
1697.49,1.274786,33776,1794
1701.31,1.200910,28175,1774

File: Column 1_078129_20241121_164654.csv
Method:,Column 1,,
Host Date-Time:,21/11/24 @ 16:46:54,,
Header Version:,1,,
System Temp (C):,32.91,,
Detector Temp (C):,28.44,,
Humidity (%):,3.61,,
Lamp PD:,3806,,
Shift Vector Coefficients:,-10.5391,0.0761263,-0.000134223,,
Pixel to Wavelength Coefficients:,1775.68,-0.916766,-0.000235065,,
Serial Number:,5510004,,
Scan Config Name:,Column 1,,
Scan Config Type:,Slew,,
Section 1,,
Start wavelength (nm):,900,,
End wavelength (nm):,1700,,
Pattern Pixel Width (nm):,   7.03,,,,
Exposure (ms):,  0.635,,,,
Digital Resolution:,228,,
Num Repeats:,6,,
PGA Gain:,64,,
Total Measurement Time in sec:,  2.731,,
Wavelength (nm),Absorbance (AU),Reference Signal (unitless),Sample Signal (unitless)
901.51,1.303298,108485,5396
905.376,1.322481,121306,5773
909.237,1.329849,131909,6172
913.095,1.321759,143299,6831
916.948,1.318479,156982,7540
922.079,1.322292,179937,8567
925.923,1.340465,200504,9155
929.762,1.320660,222660,10641
933.597,1.321002,244426,11672
937.427,1.322776,263972,12554
941.254,1.331085,281845,13150
945.076,1.327211,297271,13994
950.165,1.323284,315605,14992
953.978,1.312961,328029,15957
957.786,1.319518,340470,16314
961.59,1.315107,352317,17054
965.389,1.311240,363056,17731
969.185,1.319093,373162,17898
972.976,1.316597,382632,18458
976.763,1.320118,391202,18719
981.806,1.310853,400190,19562
985.583,1.311166,406088,19836
989.355,1.309911,410162,20093
993.124,1.321543,412868,19691
996.888,1.308242,414263,20372
1000.65,1.315804,415476,20079
1004.4,1.314037,415479,20161
1009.41,1.311509,414358,20224
1013.15,1.313863,412923,20045
1016.89,1.311396,411526,20091
1020.63,1.316028,409066,19759
1024.36,1.319745,406777,19481
1028.09,1.313699,404427,19640
1031.82,1.320105,401911,19232
1036.78,1.310897,398410,19473
1040.49,1.311687,396204,19330
1044.2,1.317666,394236,18971
1047.91,1.318598,392042,18825
1051.61,1.316733,389823,18799
1055.31,1.307333,388234,19132
1059,1.314942,387599,18769
1063.92,1.315658,386688,18694
1067.61,1.320699,386598,18474
1071.29,1.318014,387377,18626
1074.96,1.316361,388536,18753
1078.63,1.316399,389855,18815
1082.3,1.308549,391215,19225
1085.96,1.318927,393215,18867
1090.84,1.325755,396270,18717
1094.49,1.323653,398760,18926
1098.14,1.313029,400987,19503
1101.79,1.319205,403477,19347
1105.43,1.328960,406116,19041
1109.06,1.320954,407701,19471
1112.7,1.323626,409859,19454
1117.53,1.327997,412494,19383
1121.15,1.322210,414909,19758
1124.77,1.329909,416559,19488
1128.38,1.329650,418532,19592
1131.99,1.323893,419956,19921
1135.6,1.324357,421946,19994
1139.2,1.327802,423881,19927
1143.99,1.326712,426786,20114
1147.58,1.317528,428617,20632
1151.17,1.322301,431169,20528
1154.75,1.312374,433579,21120
1158.33,1.322208,436264,20775
1161.91,1.331944,439132,20448
1165.48,1.322449,442389,21055
1169.04,1.329536,446101,20888
1173.79,1.325957,451929,21336
1177.34,1.325099,456026,21572
1180.9,1.322377,461306,21959
1184.44,1.321506,467657,22306
1187.99,1.322680,473969,22546
1191.52,1.325104,479856,22699
1195.06,1.317625,487372,23455
1199.76,1.328763,497347,23329
1203.29,1.333891,504311,23378
1206.81,1.323871,511507,24265
1210.33,1.326333,519078,24485
1213.84,1.319391,527163,25267
1217.35,1.329354,534208,25024
1220.85,1.326830,540472,25465
1225.51,1.326303,549929,25942
1229.01,1.326837,556888,26238
1232.5,1.331226,562180,26221
1235.98,1.325336,567975,26853
1239.46,1.328213,574815,26997
1242.94,1.325132,582782,27566
1246.41,1.333363,591476,27452
1251.03,1.326539,604016,28478
1254.5,1.334925,612289,28316
1257.96,1.330655,619125,28915
1261.41,1.329472,624551,29248
1264.86,1.327276,629900,29648
1268.31,1.332430,634345,29505
1271.75,1.330354,638574,29844
1276.33,1.331809,642499,29927
1279.76,1.334265,645905,29916
1283.19,1.331788,648307,30199
1286.61,1.332457,650446,30252
1290.03,1.332449,652132,30331
1293.44,1.335782,653907,30181
1296.85,1.332879,655963,30479
1301.39,1.335780,657349,30340
1304.8,1.336004,657558,30334
1308.19,1.337137,658515,30299
1311.58,1.340536,658804,30076
1314.97,1.338340,659011,30238
1318.36,1.342487,658272,29917
1321.73,1.333357,658022,30541
1326.23,1.333456,657870,30527
1329.6,1.340362,656482,29982
1332.97,1.337727,654926,30093
1336.33,1.331424,653727,30477
1339.69,1.336127,652497,30092
1343.04,1.334953,649913,30054
1346.39,1.333149,647671,30075
1349.73,1.329852,645338,30195
1354.18,1.329928,641175,29995
1357.52,1.336700,638376,29402
1360.85,1.333517,635805,29499
1364.17,1.329648,633413,29651
1367.49,1.336692,631026,29064
1370.81,1.335267,628050,29022
1374.12,1.326096,625034,29499
1378.54,1.335685,620272,28635
1381.84,1.334725,616892,28542
1385.14,1.328412,613613,28806
1388.43,1.334628,611526,28300
1391.72,1.331597,610663,28458
1395.01,1.335855,610634,28179
1398.29,1.337245,611700,28138
1402.66,1.331945,614051,28593
1405.93,1.330981,616268,28760
1409.2,1.338153,617795,28359
1412.46,1.342694,618872,28113
1415.72,1.336459,619795,28562
1418.98,1.330940,620495,28960
1422.23,1.342534,621087,28224
1426.56,1.336441,621375,28636
1429.8,1.338327,621616,28523
1433.04,1.340088,622129,28431
1436.27,1.338355,621526,28517
1439.5,1.336046,621113,28650
1442.72,1.339932,620921,28386
1445.94,1.338957,620270,28420
1450.23,1.339039,618860,28350
1453.44,1.338192,617697,28352
1456.64,1.337306,616264,28344
1459.85,1.336981,614413,28280
1463.04,1.339114,612307,28045
1466.24,1.340730,610032,27837
1469.43,1.341316,607345,27677
1473.67,1.339033,603789,27660
1476.85,1.336835,601175,27680
1480.02,1.342421,597737,27170
1483.19,1.347073,594479,26734
1486.36,1.338869,591232,27095
1489.52,1.338404,587853,26969
1492.68,1.339988,583875,26689
1496.89,1.342531,578062,26269
1500.03,1.342591,574159,26088
1503.18,1.336731,570285,26264
1506.32,1.343505,565444,25638
1509.45,1.341529,560571,25533
1512.58,1.343138,555821,25223
1515.71,1.342607,550344,25005
1519.87,1.336362,543983,25074
1522.99,1.343226,538764,24444
1526.1,1.336214,533692,24608
1529.21,1.351264,527902,23512
1532.32,1.344167,521886,23627
1535.42,1.348399,515888,23129
1538.51,1.345605,509987,23012
1541.6,1.339403,503936,23066
1545.72,1.336726,494694,22783
1548.8,1.342599,488378,22190
1551.88,1.342412,481832,21902
1554.95,1.337351,474989,21844
1558.02,1.338548,467818,21455
1561.08,1.340607,460730,21030
1564.15,1.337363,454170,20886
1568.22,1.338782,444181,20360
1571.27,1.340246,436947,19961
1574.32,1.339302,429598,19668
1577.36,1.337081,422039,19421
1580.4,1.336224,414375,19106
1583.43,1.336877,406354,18708
1586.46,1.338092,398475,18294
1590.49,1.338243,388982,17852
1593.51,1.331957,380708,17727
1596.53,1.334451,372727,17256
1599.54,1.321790,365060,17401
1602.55,1.335423,357543,16516
1605.55,1.327301,349495,16449
1608.55,1.327963,341154,16032
1612.54,1.335401,330877,15285
1615.53,1.339223,322904,14786
1618.51,1.335637,315116,14549
1621.49,1.340388,307217,14030
1624.47,1.332792,299481,13918
1627.44,1.327721,292112,13735
1630.41,1.332560,284245,13217
1634.36,1.335339,274079,12663
1637.32,1.326280,266916,12592
1640.27,1.344324,259612,11749
1643.22,1.323767,251804,11948
1646.16,1.330571,244348,11414
1649.1,1.314981,236703,11461
1652.04,1.316394,228171,11012
1655.95,1.305464,215408,10661
1658.88,1.324759,204937,9702
1661.8,1.314381,193395,9377
1664.72,1.299939,179728,9009
1667.63,1.292937,163642,8336
1670.54,1.306502,146312,7224
1673.44,1.271718,128451,6871
1677.31,1.300039,105080,5266
1680.21,1.326510,88906,4192
1683.1,1.311297,75033,3664
1685.99,1.303911,63520,3155
1688.87,1.366852,53714,2308
1691.75,1.277813,45653,2408
1694.62,1.313149,39137,1903
1697.49,1.371454,33776,1436
1701.31,1.622495,28175,672

File: Column 1_078131_20241121_164700.csv
Method:,Column 1,,
Host Date-Time:,21/11/24 @ 16:47:0,,
Header Version:,1,,
System Temp (C):,32.96,,
Detector Temp (C):,28.62,,
Humidity (%):,3.61,,
Lamp PD:,3806,,
Shift Vector Coefficients:,-10.5391,0.0761263,-0.000134223,,
Pixel to Wavelength Coefficients:,1775.68,-0.916766,-0.000235065,,
Serial Number:,5510004,,
Scan Config Name:,Column 1,,
Scan Config Type:,Slew,,
Section 1,,
Start wavelength (nm):,900,,
End wavelength (nm):,1700,,
Pattern Pixel Width (nm):,   7.03,,,,
Exposure (ms):,  0.635,,,,
Digital Resolution:,228,,
Num Repeats:,6,,
PGA Gain:,64,,
Total Measurement Time in sec:,  2.701,,
Wavelength (nm),Absorbance (AU),Reference Signal (unitless),Sample Signal (unitless)
901.51,1.312818,108485,5279
905.376,1.311267,121306,5924
909.237,1.304697,131909,6540
913.095,1.319413,143299,6868
916.948,1.318824,156982,7534
922.079,1.320016,179937,8612
925.923,1.317731,200504,9647
929.762,1.331236,222660,10385
933.597,1.314136,244426,11858
937.427,1.312452,263972,12856
941.254,1.325441,281845,13322
945.076,1.311126,297271,14522
950.165,1.311313,315605,15411
953.978,1.302023,328029,16364
957.786,1.311709,340470,16610
961.59,1.314344,352317,17084
965.389,1.313746,363056,17629
969.185,1.304632,373162,18504
972.976,1.311149,382632,18691
976.763,1.309530,391202,19181
981.806,1.309523,400190,19622
985.583,1.307873,406088,19987
989.355,1.308680,410162,20150
993.124,1.310288,412868,20208
996.888,1.312699,414263,20164
1000.65,1.308618,415476,20414
1004.4,1.304956,415479,20587
1009.41,1.306767,414358,20446
1013.15,1.313776,412923,20049
1016.89,1.317075,411526,19830
1020.63,1.302099,409066,20403
1024.36,1.311202,406777,19868
1028.09,1.309715,404427,19821
1031.82,1.311918,401911,19598
1036.78,1.320412,398410,19051
1040.49,1.320218,396204,18954
1044.2,1.306368,394236,19471
1047.91,1.318575,392042,18826
1051.61,1.313373,389823,18945
1055.31,1.312172,388234,18920
1059,1.298682,387599,19485
1063.92,1.315496,386688,18701
1067.61,1.310086,386598,18931
1071.29,1.308398,387377,19043
1074.96,1.318683,388536,18653
1078.63,1.313271,389855,18951
1082.3,1.307601,391215,19267
1085.96,1.313415,393215,19108
1090.84,1.314328,396270,19216
1094.49,1.320384,398760,19069
1098.14,1.309216,400987,19675
1101.79,1.315962,403477,19492
1105.43,1.311809,406116,19808
1109.06,1.319884,407701,19519
1112.7,1.317067,409859,19750
1117.53,1.315388,412494,19954
1121.15,1.318969,414909,19906
1124.77,1.317389,416559,20058
1128.38,1.313869,418532,20317
1131.99,1.323413,419956,19943
1135.6,1.321111,421946,20144
1139.2,1.321033,423881,20240
1143.99,1.320282,426786,20414
1147.58,1.309189,428617,21032
1151.17,1.321582,431169,20562
1154.75,1.316922,433579,20900
1158.33,1.323234,436264,20726
1161.91,1.316013,439132,21212
1165.48,1.320227,442389,21163
1169.04,1.307089,446101,21996
1173.79,1.313299,451929,21967
1177.34,1.327765,456026,21440
1180.9,1.320699,461306,22044
1184.44,1.320164,467657,22375
1187.99,1.324843,473969,22434
1191.52,1.322073,479856,22858
1195.06,1.346782,487372,21932
1199.76,1.323490,497347,23614
1203.29,1.323411,504311,23949
1206.81,1.323084,511507,24309
1210.33,1.325588,519078,24527
1213.84,1.320389,527163,25209
1217.35,1.332926,534208,24819
1220.85,1.320918,540472,25814
1225.51,1.327342,549929,25880
1229.01,1.323917,556888,26415
1232.5,1.323104,562180,26716
1235.98,1.325887,567975,26819
1239.46,1.329066,574815,26944
1242.94,1.322995,582782,27702
1246.41,1.329191,591476,27717
1251.03,1.323515,604016,28677
1254.5,1.327293,612289,28818
1257.96,1.328139,619125,29083
1261.41,1.331257,624551,29128
1264.86,1.331057,629900,29391
1268.31,1.328751,634345,29756
1271.75,1.329743,638574,29886
1276.33,1.332158,642499,29903
1279.76,1.330507,645905,30176
1283.19,1.323033,648307,30814
1286.61,1.331095,650446,30347
1290.03,1.330891,652132,30440
1293.44,1.331487,653907,30481
1296.85,1.334907,655963,30337
1301.39,1.332174,657349,30593
1304.8,1.330188,657558,30743
1308.19,1.331215,658515,30715
1311.58,1.334912,658804,30468
1314.97,1.328457,659011,30934
1318.36,1.332429,658272,30618
1321.73,1.333585,658022,30525
1326.23,1.338464,657870,30177
1329.6,1.332155,656482,30554
1332.97,1.335022,654926,30281
1336.33,1.329533,653727,30610
1339.69,1.329596,652497,30548
1343.04,1.330368,649913,30373
1346.39,1.334262,647671,29998
1349.73,1.329651,645338,30209
1354.18,1.332090,641175,29846
1357.52,1.332335,638376,29699
1360.85,1.335139,635805,29389
1364.17,1.330337,633413,29604
1367.49,1.335722,631026,29129
1370.81,1.332165,628050,29230
1374.12,1.336345,625034,28811
1378.54,1.327259,620272,29196
1381.84,1.330063,616892,28850
1385.14,1.334118,613613,28430
1388.43,1.327505,611526,28768
1391.72,1.328313,610663,28674
1395.01,1.328156,610634,28683
1398.29,1.330780,611700,28560
1402.66,1.328631,614051,28812
1405.93,1.334285,616268,28542
1409.2,1.333765,617795,28647
1412.46,1.332012,618872,28813
1415.72,1.332253,619795,28840
1418.98,1.326880,620495,29232
1422.23,1.336893,621087,28593
1426.56,1.334973,621375,28733
1429.8,1.341598,621616,28309
1433.04,1.339097,622129,28496
1436.27,1.337808,621526,28553
1439.5,1.329830,621113,29063
1442.72,1.339061,620921,28443
1445.94,1.328718,620270,29098
1450.23,1.335667,618860,28571
1453.44,1.340326,617697,28213
1456.64,1.337260,616264,28347
1459.85,1.337688,614413,28234
1463.04,1.340044,612307,27985
1466.24,1.335288,610032,28188
1469.43,1.338829,607345,27836
1473.67,1.335686,603789,27874
1476.85,1.335550,601175,27762
1480.02,1.332809,597737,27778
1483.19,1.332331,594479,27657
1486.36,1.339976,591232,27026
1489.52,1.337696,587853,27013
1492.68,1.333447,583875,27094
1496.89,1.334846,578062,26738
1500.03,1.340665,574159,26204
1503.18,1.336169,570285,26298
1506.32,1.337082,565444,26020
1509.45,1.340052,560571,25620
1512.58,1.335644,555821,25662
1515.71,1.339061,550344,25210
1519.87,1.339299,543983,24905
1522.99,1.338948,538764,24686
1526.1,1.344697,533692,24132
1529.21,1.330455,527902,24666
1532.32,1.337745,521886,23979
1535.42,1.339165,515888,23626
1538.51,1.337120,509987,23466
1541.6,1.338688,503936,23104
1545.72,1.332571,494694,23002
1548.8,1.333784,488378,22645
1551.88,1.332745,481832,22395
1554.95,1.335467,474989,21939
1558.02,1.328227,467818,21971
1561.08,1.337685,460730,21172
1564.15,1.334958,454170,21002
1568.22,1.335319,444181,20523
1571.27,1.331630,436947,20361
1574.32,1.342004,429598,19546
1577.36,1.323282,422039,20048
1580.4,1.338823,414375,18992
1583.43,1.339835,406354,18581
1586.46,1.324077,398475,18894
1590.49,1.340707,388982,17751
1593.51,1.324091,380708,18051
1596.53,1.336342,372727,17181
1599.54,1.335532,365060,16859
1602.55,1.331341,357543,16672
1605.55,1.326089,349495,16495
1608.55,1.331608,341154,15898
1612.54,1.328495,330877,15530
1615.53,1.325519,322904,15260
1618.51,1.325955,315116,14877
1621.49,1.330957,307217,14338
1624.47,1.318882,299481,14371
1627.44,1.326710,292112,13767
1630.41,1.319516,284245,13620
1634.36,1.327387,274079,12897
1637.32,1.323735,266916,12666
1640.27,1.324526,259612,12297
1643.22,1.325552,251804,11899
1646.16,1.327235,244348,11502
1649.1,1.329351,236703,11088
1652.04,1.324917,228171,10798
1655.95,1.321903,215408,10265
1658.88,1.308074,204937,10082
1661.8,1.296551,193395,9770
1664.72,1.292625,179728,9162
1667.63,1.291169,163642,8370
1670.54,1.302076,146312,7298
1673.44,1.280593,128451,6732
1677.31,1.253919,105080,5856
1680.21,1.297362,88906,4483
1683.1,1.238063,75033,4337
1685.99,1.228185,63520,3756
1688.87,1.281690,53714,2808
1691.75,1.296045,45653,2309
1694.62,1.368832,39137,1674
1697.49,1.281126,33776,1768
1701.31,1.278723,28175,1483