Folder: textile_sorting_NIRSCAN_/ML/samples/unknown (part 67)

File: Column 1_078462_20241121_170351.csv
Method:,Column 1,,
Host Date-Time:,21/11/24 @ 17:3:51,,
Header Version:,1,,
System Temp (C):,34.68,,
Detector Temp (C):,33.75,,
Humidity (%):,1.86,,
Lamp PD:,3802,,
Shift Vector Coefficients:,-10.5391,0.0761263,-0.000134223,,
Pixel to Wavelength Coefficients:,1775.68,-0.916766,-0.000235065,,
Serial Number:,5510004,,
Scan Config Name:,Column 1,,
Scan Config Type:,Slew,,
Section 1,,
Start wavelength (nm):,900,,
End wavelength (nm):,1700,,
Pattern Pixel Width (nm):,   7.03,,,,
Exposure (ms):,  0.635,,,,
Digital Resolution:,228,,
Num Repeats:,6,,
PGA Gain:,64,,
Total Measurement Time in sec:,  2.709,,
Wavelength (nm),Absorbance (AU),Reference Signal (unitless),Sample Signal (unitless)
901.51,1.309948,108485,5314
905.376,1.320904,121306,5794
909.237,1.341545,131909,6008
913.095,1.326939,143299,6750
916.948,1.331754,156982,7313
922.079,1.332655,179937,8365
925.923,1.345666,200504,9046
929.762,1.329774,222660,10420
933.597,1.337536,244426,11236
937.427,1.312655,263972,12850
941.254,1.314591,281845,13659
945.076,1.311395,297271,14513
950.165,1.311792,315605,15394
953.978,1.324126,328029,15552
957.786,1.314253,340470,16513
961.59,1.311178,352317,17209
965.389,1.315177,363056,17571
969.185,1.307103,373162,18399
972.976,1.311846,382632,18661
976.763,1.321769,391202,18648
981.806,1.311431,400190,19536
985.583,1.313956,406088,19709
989.355,1.307755,410162,20193
993.124,1.309644,412868,20238
996.888,1.312893,414263,20155
1000.65,1.308405,415476,20424
1004.4,1.313800,415479,20172
1009.41,1.318152,414358,19917
1013.15,1.313820,412923,20047
1016.89,1.311180,411526,20101
1020.63,1.310894,409066,19994
1024.36,1.308261,406777,20003
1028.09,1.306419,404427,19972
1031.82,1.303665,401911,19974
1036.78,1.319024,398410,19112
1040.49,1.308642,396204,19466
1044.2,1.312229,394236,19210
1047.91,1.316434,392042,18919
1051.61,1.311041,389823,19047
1055.31,1.308470,388234,19082
1059,1.313578,387599,18828
1063.92,1.315078,386688,18719
1067.61,1.314861,386598,18724
1071.29,1.315526,387377,18733
1074.96,1.315504,388536,18790
1078.63,1.305053,389855,19313
1082.3,1.317335,391215,18840
1085.96,1.318214,393215,18898
1090.84,1.313854,396270,19237
1094.49,1.314570,398760,19326
1098.14,1.318023,400987,19280
1101.79,1.319834,403477,19319
1105.43,1.316815,406116,19581
1109.06,1.310943,407701,19925
1112.7,1.322889,409859,19487
1117.53,1.310217,412494,20193
1121.15,1.315579,414909,20062
1124.77,1.321238,416559,19881
1128.38,1.321851,418532,19947
1131.99,1.321393,419956,20036
1135.6,1.323533,421946,20032
1139.2,1.320369,423881,20271
1143.99,1.307908,426786,21004
1147.58,1.316015,428617,20704
1151.17,1.323212,431169,20485
1154.75,1.324066,433579,20559
1158.33,1.320873,436264,20839
1161.91,1.316772,439132,21175
1165.48,1.311109,442389,21612
1169.04,1.311854,446101,21756
1173.79,1.319051,451929,21678
1177.34,1.305785,456026,22553
1180.9,1.316132,461306,22277
1184.44,1.311307,467657,22836
1187.99,1.322738,473969,22543
1191.52,1.327002,479856,22600
1195.06,1.315243,487372,23584
1199.76,1.316195,497347,24014
1203.29,1.326176,504311,23797
1206.81,1.324229,511507,24245
1210.33,1.321868,519078,24738
1213.84,1.321804,527163,25127
1217.35,1.322740,534208,25408
1220.85,1.319038,540472,25926
1225.51,1.321773,549929,26214
1229.01,1.326721,556888,26245
1232.5,1.323445,562180,26695
1235.98,1.320703,567975,27141
1239.46,1.319343,574815,27554
1242.94,1.321196,582782,27817
1246.41,1.312801,591476,28783
1251.03,1.319070,604016,28972
1254.5,1.320935,612289,29243
1257.96,1.327542,619125,29123
1261.41,1.331660,624551,29101
1264.86,1.326501,629900,29701
1268.31,1.328080,634345,29802
1271.75,1.332996,638574,29663
1276.33,1.318069,642499,30889
1279.76,1.331689,645905,30094
1283.19,1.324557,648307,30706
1286.61,1.331683,650446,30306
1290.03,1.326844,652132,30725
1293.44,1.325768,653907,30885
1296.85,1.333535,655963,30433
1301.39,1.333539,657349,30497
1304.8,1.329877,657558,30765
1308.19,1.328748,658515,30890
1311.58,1.323614,658804,31271
1314.97,1.331387,659011,30726
1318.36,1.329784,658272,30805
1321.73,1.335696,658022,30377
1326.23,1.330761,657870,30717
1329.6,1.333764,656482,30441
1332.97,1.335625,654926,30239
1336.33,1.328131,653727,30709
1339.69,1.327242,652497,30714
1343.04,1.326737,649913,30628
1346.39,1.329368,647671,30338
1349.73,1.331856,645338,30056
1354.18,1.327142,641175,30188
1357.52,1.328883,638376,29936
1360.85,1.331988,635805,29603
1364.17,1.330542,633413,29590
1367.49,1.327232,631026,29704
1370.81,1.328658,628050,29467
1374.12,1.326907,625034,29444
1378.54,1.325122,620272,29340
1381.84,1.326809,616892,29067
1385.14,1.326171,613613,28955
1388.43,1.328034,611526,28733
1391.72,1.322491,610663,29061
1395.01,1.345218,610634,27578
1398.29,1.327689,611700,28764
1402.66,1.331307,614051,28635
1405.93,1.329654,616268,28848
1409.2,1.332569,617795,28726
1412.46,1.327723,618872,29099
1415.72,1.329685,619795,29011
1418.98,1.335568,620495,28653
1422.23,1.341289,621087,28305
1426.56,1.329759,621375,29080
1429.8,1.335837,621616,28687
1433.04,1.332187,622129,28953
1436.27,1.334127,621526,28796
1439.5,1.334548,621113,28749
1442.72,1.336397,620921,28618
1445.94,1.332405,620270,28852
1450.23,1.337632,618860,28442
1453.44,1.340557,617697,28198
1456.64,1.342438,616264,28011
1459.85,1.337319,614413,28258
1463.04,1.332628,612307,28467
1466.24,1.336662,610032,28099
1469.43,1.335456,607345,28053
1473.67,1.342137,603789,27463
1476.85,1.335801,601175,27746
1480.02,1.334517,597737,27669
1483.19,1.343949,594479,26927
1486.36,1.340185,591232,27013
1489.52,1.335163,587853,27171
1492.68,1.331527,583875,27214
1496.89,1.336587,578062,26631
1500.03,1.339440,574159,26278
1503.18,1.335938,570285,26312
1506.32,1.339190,565444,25894
1509.45,1.337466,560571,25773
1512.58,1.338378,555821,25501
1515.71,1.336673,550344,25349
1519.87,1.340801,543983,24819
1522.99,1.332886,538764,25033
1526.1,1.332611,533692,24813
1529.21,1.330648,527902,24655
1532.32,1.344885,521886,23588
1535.42,1.336636,515888,23764
1538.51,1.329598,509987,23876
1541.6,1.337150,503936,23186
1545.72,1.330217,494694,23127
1548.8,1.332042,488378,22736
1551.88,1.334124,481832,22324
1554.95,1.334794,474989,21973
1558.02,1.341412,467818,21314
1561.08,1.333459,460730,21379
1564.15,1.336885,454170,20909
1568.22,1.348292,444181,19919
1571.27,1.331033,436947,20389
1574.32,1.334799,429598,19873
1577.36,1.339256,422039,19324
1580.4,1.329883,414375,19387
1583.43,1.338762,406354,18627
1586.46,1.337665,398475,18312
1590.49,1.333669,388982,18041
1593.51,1.339693,380708,17414
1596.53,1.326842,372727,17561
1599.54,1.336642,365060,16816
1602.55,1.323314,357543,16983
1605.55,1.335995,349495,16123
1608.55,1.314126,341154,16551
1612.54,1.324210,330877,15684
1615.53,1.326773,322904,15216
1618.51,1.318660,315116,15129
1621.49,1.328872,307217,14407
1624.47,1.338920,299481,13723
1627.44,1.331149,292112,13627
1630.41,1.324357,284245,13469
1634.36,1.309541,274079,13438
1637.32,1.311130,266916,13039
1640.27,1.316616,259612,12523
1643.22,1.322823,251804,11974
1646.16,1.316237,244348,11797
1649.1,1.311171,236703,11562
1652.04,1.303035,228171,11356
1655.95,1.327652,215408,10130
1658.88,1.291674,204937,10470
1661.8,1.288666,193395,9949
1664.72,1.284129,179728,9343
1667.63,1.255235,163642,9092
1670.54,1.232451,146312,8567
1673.44,1.224622,128451,7658
1677.31,1.232857,105080,6147
1680.21,1.204482,88906,5552
1683.1,1.164036,75033,5143
1685.99,1.155821,63520,4437
1688.87,1.179248,53714,3555
1691.75,1.185982,45653,2975
1694.62,1.173127,39137,2627
1697.49,1.124117,33776,2538
1701.31,1.125787,28175,2109

File: Column 1_078465_20241121_170400.csv
Method:,Column 1,,
Host Date-Time:,21/11/24 @ 17:4:0,,
Header Version:,1,,
System Temp (C):,34.69,,
Detector Temp (C):,33.75,,
Humidity (%):,1.86,,
Lamp PD:,3802,,
Shift Vector Coefficients:,-10.5391,0.0761263,-0.000134223,,
Pixel to Wavelength Coefficients:,1775.68,-0.916766,-0.000235065,,
Serial Number:,5510004,,
Scan Config Name:,Column 1,,
Scan Config Type:,Slew,,
Section 1,,
Start wavelength (nm):,900,,
End wavelength (nm):,1700,,
Pattern Pixel Width (nm):,   7.03,,,,
Exposure (ms):,  0.635,,,,
Digital Resolution:,228,,
Num Repeats:,6,,
PGA Gain:,64,,
Total Measurement Time in sec:,  2.726,,
Wavelength (nm),Absorbance (AU),Reference Signal (unitless),Sample Signal (unitless)
901.51,1.314714,108485,5256
905.376,1.332141,121306,5646
909.237,1.331258,131909,6152
913.095,1.287188,143299,7397
916.948,1.326149,156982,7408
922.079,1.318758,179937,8637
925.923,1.320350,200504,9589
929.762,1.314460,222660,10794
933.597,1.323240,244426,11612
937.427,1.319811,263972,12640
941.254,1.329601,281845,13195
945.076,1.305156,297271,14723
950.165,1.321867,315605,15041
953.978,1.319708,328029,15711
957.786,1.328149,340470,15993
961.59,1.313887,352317,17102
965.389,1.323336,363056,17244
969.185,1.308214,373162,18352
972.976,1.320663,382632,18286
976.763,1.308106,391202,19244
981.806,1.311875,400190,19516
985.583,1.312504,406088,19775
989.355,1.317234,410162,19757
993.124,1.306522,412868,20384
996.888,1.309930,414263,20293
1000.65,1.303163,415476,20672
1004.4,1.311203,415479,20293
1009.41,1.318435,414358,19904
1013.15,1.302149,412923,20593
1016.89,1.309089,411526,20198
1020.63,1.310308,409066,20021
1024.36,1.306485,406777,20085
1028.09,1.317965,404427,19448
1031.82,1.308013,401911,19775
1036.78,1.306570,398410,19668
1040.49,1.315523,396204,19160
1044.2,1.304632,394236,19549
1047.91,1.310529,392042,19178
1051.61,1.315004,389823,18874
1055.31,1.319417,388234,18607
1059,1.308784,387599,19037
1063.92,1.309477,386688,18962
1067.61,1.305794,386598,19119
1071.29,1.315248,387377,18745
1074.96,1.310061,388536,19027
1078.63,1.314418,389855,18901
1082.3,1.315150,391215,18935
1085.96,1.317181,393215,18943
1090.84,1.316208,396270,19133
1094.49,1.314772,398760,19317
1098.14,1.315866,400987,19376
1101.79,1.321636,403477,19239
1105.43,1.311809,406116,19808
1109.06,1.319684,407701,19528
1112.7,1.316123,409859,19793
1117.53,1.310604,412494,20175
1121.15,1.321814,414909,19776
1124.77,1.314928,416559,20172
1128.38,1.326998,418532,19712
1131.99,1.324678,419956,19885
1135.6,1.315669,421946,20398
1139.2,1.322151,423881,20188
1143.99,1.308550,426786,20973
1147.58,1.319342,428617,20546
1151.17,1.313318,431169,20957
1154.75,1.324447,433579,20541
1158.33,1.322983,436264,20738
1161.91,1.312852,439132,21367
1165.48,1.319161,442389,21215
1169.04,1.315684,446101,21565
1173.79,1.315937,451929,21834
1177.34,1.321171,456026,21768
1180.9,1.317773,461306,22193
1184.44,1.314668,467657,22660
1187.99,1.320682,473969,22650
1191.52,1.318139,479856,23066
1195.06,1.316405,487372,23521
1199.76,1.318098,497347,23909
1203.29,1.322180,504311,24017
1206.81,1.318729,511507,24554
1210.33,1.321184,519078,24777
1213.84,1.316992,527163,25407
1217.35,1.324401,534208,25311
1220.85,1.322283,540472,25733
1225.51,1.320698,549929,26279
1229.01,1.316937,556888,26843
1232.5,1.323429,562180,26696
1235.98,1.322596,567975,27023
1239.46,1.321778,574815,27400
1242.94,1.322870,582782,27710
1246.41,1.327596,591476,27819
1251.03,1.320060,604016,28906
1254.5,1.327232,612289,28822
1257.96,1.327647,619125,29116
1261.41,1.326424,624551,29454
1264.86,1.331146,629900,29385
1268.31,1.327760,634345,29824
1271.75,1.331432,638574,29770
1276.33,1.331403,642499,29955
1279.76,1.336682,645905,29750
1283.19,1.327253,648307,30516
1286.61,1.327603,650446,30592
1290.03,1.333309,652132,30271
1293.44,1.328859,653907,30666
1296.85,1.333107,655963,30463
1301.39,1.331125,657349,30667
1304.8,1.324867,657558,31122
1308.19,1.337195,658515,30295
1311.58,1.329740,658804,30833
1314.97,1.327671,659011,30990
1318.36,1.330236,658272,30773
1321.73,1.329098,658022,30842
1326.23,1.332901,657870,30566
1329.6,1.330226,656482,30690
1332.97,1.330755,654926,30580
1336.33,1.330897,653727,30514
1339.69,1.327299,652497,30710
1343.04,1.331269,649913,30310
1346.39,1.330084,647671,30288
1349.73,1.329062,645338,30250
1354.18,1.329074,641175,30054
1357.52,1.332803,638376,29667
1360.85,1.325870,635805,30023
1364.17,1.322385,633413,30151
1367.49,1.326152,631026,29778
1370.81,1.329957,628050,29379
1374.12,1.331563,625034,29130
1378.54,1.330364,620272,28988
1381.84,1.330319,616892,28833
1385.14,1.327689,613613,28854
1388.43,1.327294,611526,28782
1391.72,1.326877,610663,28769
1395.01,1.328944,610634,28631
1398.29,1.327448,611700,28780
1402.66,1.324819,614051,29066
1405.93,1.331963,616268,28695
1409.2,1.324748,617795,29248
1412.46,1.327977,618872,29082
1415.72,1.331546,619795,28887
1418.98,1.329921,620495,29028
1422.23,1.340875,621087,28332
1426.56,1.331600,621375,28957
1429.8,1.336034,621616,28674
1433.04,1.326554,622129,29331
1436.27,1.334957,621526,28741
1439.5,1.339012,621113,28455
1442.72,1.329457,620921,29079
1445.94,1.339798,620270,28365
1450.23,1.340297,618860,28268
1453.44,1.338330,617697,28343
1456.64,1.329877,616264,28833
1459.85,1.337319,614413,28258
1463.04,1.339222,612307,28038
1466.24,1.337033,610032,28075
1469.43,1.336215,607345,28004
1473.67,1.333154,603789,28037
1476.85,1.328136,601175,28240
1480.02,1.336325,597737,27554
1483.19,1.330874,594479,27750
1486.36,1.343170,591232,26828
1489.52,1.340050,587853,26867
1492.68,1.330603,583875,27272
1496.89,1.341375,578062,26339
1500.03,1.331027,574159,26792
1503.18,1.341737,570285,25963
1506.32,1.335666,565444,26105
1509.45,1.338427,560571,25716
1512.58,1.337612,555821,25546
1515.71,1.340494,550344,25127
1519.87,1.336639,543983,25058
1522.99,1.342126,538764,24506
1526.1,1.340970,533692,24340
1529.21,1.338828,527902,24195
1532.32,1.336100,521886,24070
1535.42,1.338890,515888,23641
1538.51,1.333471,509987,23664
1541.6,1.338388,503936,23120
1545.72,1.340055,494694,22609
1548.8,1.340062,488378,22320
1551.88,1.338012,481832,22125
1554.95,1.334933,474989,21966
1558.02,1.336046,467818,21579
1561.08,1.339782,460730,21070
1564.15,1.337779,454170,20866
1568.22,1.335023,444181,20537
1571.27,1.338639,436947,20035
1574.32,1.339965,429598,19638
1577.36,1.332012,422039,19649
1580.4,1.330129,414375,19376
1583.43,1.332949,406354,18878
1586.46,1.330561,398475,18614
1590.49,1.339119,388982,17816
1593.51,1.331663,380708,17739
1596.53,1.326669,372727,17568
1599.54,1.340846,365060,16654
1602.55,1.332776,357543,16617
1605.55,1.328279,349495,16412
1608.55,1.321349,341154,16278
1612.54,1.322800,330877,15735
1615.53,1.333562,322904,14980
1618.51,1.324702,315116,14920
1621.49,1.322201,307217,14630
1624.47,1.322646,299481,14247
1627.44,1.343530,292112,13244
1630.41,1.324777,284245,13456
1634.36,1.320041,274079,13117
1637.32,1.305045,266916,13223
1640.27,1.325303,259612,12275
1643.22,1.328482,251804,11819
1646.16,1.307924,244348,12025
1649.1,1.302506,236703,11795
1652.04,1.299303,228171,11454
1655.95,1.305220,215408,10667
1658.88,1.281183,204937,10726
1661.8,1.281995,193395,10103
1664.72,1.285899,179728,9305
1667.63,1.278337,163642,8621
1670.54,1.255724,146312,8120
1673.44,1.216587,128451,7801
1677.31,1.208340,105080,6504
1680.21,1.160409,88906,6145
1683.1,1.157582,75033,5220
1685.99,1.174930,63520,4246
1688.87,1.161417,53714,3704
1691.75,1.128502,45653,3396
1694.62,1.206089,39137,2435
1697.49,1.169912,33776,2284
1701.31,1.208317,28175,1744

File: Column 1_078466_20241121_170403.csv
Method:,Column 1,,
Host Date-Time:,21/11/24 @ 17:4:3,,
Header Version:,1,,
System Temp (C):,34.74,,
Detector Temp (C):,33.79,,
Humidity (%):,1.86,,
Lamp PD:,3802,,
Shift Vector Coefficients:,-10.5391,0.0761263,-0.000134223,,
Pixel to Wavelength Coefficients:,1775.68,-0.916766,-0.000235065,,
Serial Number:,5510004,,
Scan Config Name:,Column 1,,
Scan Config Type:,Slew,,
Section 1,,
Start wavelength (nm):,900,,
End wavelength (nm):,1700,,
Pattern Pixel Width (nm):,   7.03,,,,
Exposure (ms):,  0.635,,,,
Digital Resolution:,228,,
Num Repeats:,6,,
PGA Gain:,64,,
Total Measurement Time in sec:,  2.726,,
Wavelength (nm),Absorbance (AU),Reference Signal (unitless),Sample Signal (unitless)
901.51,1.321124,108485,5179
905.376,1.301840,121306,6054
909.237,1.313213,131909,6413
913.095,1.324565,143299,6787
916.948,1.324335,156982,7439
922.079,1.315052,179937,8711
925.923,1.317821,200504,9645
929.762,1.316355,222660,10747
933.597,1.321039,244426,11671
937.427,1.323503,263972,12533
941.254,1.327467,281845,13260
945.076,1.309753,297271,14568
950.165,1.323053,315605,15000
953.978,1.305754,328029,16224
957.786,1.307598,340470,16768
961.59,1.310976,352317,17217
965.389,1.315820,363056,17545
969.185,1.309351,373162,18304
972.976,1.310104,382632,18736
976.763,1.304980,391202,19383
981.806,1.304768,400190,19838
985.583,1.309004,406088,19935
989.355,1.302198,410162,20453
993.124,1.304269,412868,20490
996.888,1.311087,414263,20239
1000.65,1.313173,415476,20201
1004.4,1.313951,415479,20165
1009.41,1.303530,414358,20599
1013.15,1.307646,412923,20334
1016.89,1.315762,411526,19890
1020.63,1.311176,409066,19981
1024.36,1.300621,406777,20358
1028.09,1.306419,404427,19972
1031.82,1.313628,401911,19521
1036.78,1.313604,398410,19352
1040.49,1.304424,396204,19656
1044.2,1.308066,394236,19395
1047.91,1.311232,392042,19147
1051.61,1.308064,389823,19178
1055.31,1.310134,388234,19009
1059,1.310224,387599,18974
1063.92,1.309042,386688,18981
1067.61,1.310752,386598,18902
1071.29,1.310089,387377,18969
1074.96,1.316337,388536,18754
1078.63,1.312698,389855,18976
1082.3,1.308685,391215,19219
1085.96,1.315260,393215,19027
1090.84,1.319443,396270,18991
1094.49,1.316868,398760,19224
1098.14,1.312695,400987,19518
1101.79,1.317145,403477,19439
1105.43,1.312204,406116,19790
1109.06,1.324717,407701,19303
1112.7,1.315421,409859,19825
1117.53,1.309186,412494,20241
1121.15,1.316120,414909,20037
1124.77,1.320278,416559,19925
1128.38,1.315647,418532,20234
1131.99,1.315558,419956,20307
1135.6,1.305734,421946,20870
1139.2,1.316444,423881,20455
1143.99,1.317124,426786,20563
1147.58,1.325258,428617,20268
1151.17,1.317692,431169,20747
1154.75,1.316880,433579,20902
1158.33,1.313967,436264,21173
1161.91,1.324052,439132,20823
1165.48,1.319448,442389,21201
1169.04,1.312593,446101,21719
1173.79,1.317292,451929,21766
1177.34,1.311757,456026,22245
1180.9,1.319616,461306,22099
1184.44,1.315608,467657,22611
1187.99,1.319112,473969,22732
1191.52,1.319138,479856,23013
1195.06,1.316608,487372,23510
1199.76,1.313275,497347,24176
1203.29,1.317164,504311,24296
1206.81,1.329582,511507,23948
1210.33,1.321815,519078,24741
1213.84,1.322929,527163,25062
1217.35,1.320031,534208,25567
1220.85,1.323923,540472,25636
1225.51,1.329850,549929,25731
1229.01,1.321736,556888,26548
1232.5,1.319913,562180,26913
1235.98,1.319425,567975,27221
1239.46,1.316907,574815,27709
1242.94,1.322212,582782,27752
1246.41,1.319905,591476,28316
1251.03,1.320752,604016,28860
1254.5,1.321990,612289,29172
1257.96,1.326812,619125,29172
1261.41,1.321906,624551,29762
1264.86,1.331013,629900,29394
1268.31,1.323802,634345,30097
1271.75,1.328568,638574,29967
1276.33,1.327894,642499,30198
1279.76,1.326952,645905,30424
1283.19,1.325053,648307,30671
1286.61,1.325366,650446,30750
1290.03,1.328969,652132,30575
1293.44,1.327643,653907,30752
1296.85,1.324804,655963,31051
1301.39,1.325371,657349,31076
1304.8,1.325691,657558,31063
1308.19,1.329648,658515,30826
1311.58,1.329023,658804,30884
1314.97,1.333015,659011,30611
1318.36,1.332769,658272,30594
1321.73,1.329986,658022,30779
1326.23,1.331979,657870,30631
1329.6,1.327996,656482,30848
1332.97,1.334735,654926,30301
1336.33,1.331296,653727,30486
1339.69,1.327384,652497,30704
1343.04,1.332187,649913,30246
1346.39,1.329282,647671,30344
1349.73,1.331278,645338,30096
1354.18,1.327416,641175,30169
1357.52,1.328622,638376,29954
1360.85,1.326246,635805,29997
1364.17,1.323308,633413,30087
1367.49,1.327759,631026,29668
1370.81,1.325589,628050,29676
1374.12,1.326686,625034,29459
1378.54,1.328719,620272,29098
1381.84,1.324930,616892,29193
1385.14,1.329317,613613,28746
1388.43,1.323209,611526,29054
1391.72,1.322013,610663,29093
1395.01,1.323922,610634,28964
1398.29,1.325160,611700,28932
1402.66,1.331034,614051,28653
1405.93,1.339151,616268,28224
1409.2,1.329781,617795,28911
1412.46,1.331575,618872,28842
1415.72,1.329940,619795,28994
1418.98,1.332036,620495,28887
1422.23,1.334288,621087,28765
1426.56,1.327540,621375,29229
1429.8,1.330481,621616,29043
1433.04,1.334443,622129,28803
1436.27,1.336304,621526,28652
1439.5,1.330234,621113,29036
1442.72,1.335578,620921,28672
1445.94,1.333596,620270,28773
1450.23,1.325274,618860,29263
1453.44,1.333621,617697,28652
1456.64,1.332915,616264,28632
1459.85,1.341054,614413,28016
1463.04,1.331683,612307,28529
1466.24,1.330965,610032,28470
1469.43,1.333525,607345,28178
1473.67,1.335406,603789,27892
1476.85,1.343061,601175,27286
1480.02,1.331997,597737,27830
1483.19,1.334393,594479,27526
1486.36,1.335866,591232,27283
1489.52,1.337198,587853,27044
1492.68,1.332742,583875,27138
1496.89,1.339746,578062,26438
1500.03,1.336065,574159,26483
1503.18,1.330639,570285,26635
1506.32,1.339929,565444,25850
1509.45,1.341614,560571,25528
1512.58,1.333012,555821,25818
1515.71,1.339320,550344,25195
1519.87,1.335462,543983,25126
1522.99,1.338052,538764,24737
1526.1,1.337186,533692,24553
1529.21,1.332325,527902,24560
1532.32,1.344057,521886,23633
1535.42,1.336143,515888,23791
1538.51,1.334776,509987,23593
1541.6,1.338087,503936,23136
1545.72,1.333043,494694,22977
1548.8,1.330764,488378,22803
1551.88,1.336093,481832,22223
1554.95,1.335863,474989,21919
1558.02,1.332199,467818,21771
1561.08,1.335904,460730,21259
1564.15,1.341941,454170,20667
1568.22,1.334241,444181,20574
1571.27,1.333297,436947,20283
1574.32,1.324306,429598,20359
1577.36,1.332078,422039,19646
1580.4,1.335656,414375,19131
1583.43,1.331043,406354,18961
1586.46,1.330911,398475,18599
1590.49,1.323110,388982,18485
1593.51,1.330514,380708,17786
1596.53,1.332617,372727,17329
1599.54,1.328328,365060,17141
1602.55,1.326239,357543,16869
1605.55,1.320491,349495,16709
1608.55,1.325478,341154,16124
1612.54,1.320021,330877,15836
1615.53,1.314892,322904,15638
1618.51,1.331597,315116,14685
1621.49,1.325090,307217,14533
1624.47,1.317705,299481,14410
1627.44,1.332810,292112,13575
1630.41,1.310772,284245,13897
1634.36,1.316973,274079,13210
1637.32,1.316830,266916,12869
1640.27,1.312028,259612,12656
1643.22,1.300864,251804,12595
1646.16,1.304721,244348,12114
1649.1,1.292604,236703,12067
1652.04,1.304031,228171,11330
1655.95,1.307096,215408,10621
1658.88,1.296386,204937,10357
1661.8,1.283330,193395,10072
1664.72,1.256967,179728,9946
1667.63,1.251762,163642,9165
1670.54,1.231590,146312,8584
1673.44,1.221514,128451,7713
1677.31,1.201450,105080,6608
1680.21,1.187154,88906,5778
1683.1,1.144551,75033,5379
1685.99,1.169240,63520,4302
1688.87,1.166014,53714,3665
1691.75,1.163509,45653,3133
1694.62,1.175282,39137,2614
1697.49,1.117662,33776,2576
1701.31,1.177326,28175,1873