Folder: textile_sorting_NIRSCAN_/ML/samples/unknown (part 116)

File: Column 1_078840_20241121_172443.csv
Method:,Column 1,,
Host Date-Time:,21/11/24 @ 17:24:43,,
Header Version:,1,,
System Temp (C):,37.44,,
Detector Temp (C):,35.76,,
Humidity (%):,0.68,,
Lamp PD:,3797,,
Shift Vector Coefficients:,-10.5391,0.0761263,-0.000134223,,
Pixel to Wavelength Coefficients:,1775.68,-0.916766,-0.000235065,,
Serial Number:,5510004,,
Scan Config Name:,Column 1,,
Scan Config Type:,Slew,,
Section 1,,
Start wavelength (nm):,900,,
End wavelength (nm):,1700,,
Pattern Pixel Width (nm):,   7.03,,,,
Exposure (ms):,  0.635,,,,
Digital Resolution:,228,,
Num Repeats:,6,,
PGA Gain:,64,,
Total Measurement Time in sec:,  2.726,,
Wavelength (nm),Absorbance (AU),Reference Signal (unitless),Sample Signal (unitless)
901.51,1.300730,108485,5428
905.376,1.329075,121306,5686
909.237,1.320796,131909,6302
913.095,1.311455,143299,6995
916.948,1.312643,156982,7642
922.079,1.308079,179937,8852
925.923,1.316337,200504,9678
929.762,1.314178,222660,10801
933.597,1.318590,244426,11737
937.427,1.319467,263972,12650
941.254,1.320546,281845,13473
945.076,1.313315,297271,14449
950.165,1.302636,315605,15722
953.978,1.319432,328029,15721
957.786,1.310873,340470,16642
961.59,1.308737,352317,17306
965.389,1.304339,363056,18015
969.185,1.312017,373162,18192
972.976,1.305057,382632,18955
976.763,1.304062,391202,19424
981.806,1.307602,400190,19709
985.583,1.306138,406088,20067
989.355,1.300884,410162,20515
993.124,1.307055,412868,20359
996.888,1.307072,414263,20427
1000.65,1.309640,415476,20366
1004.4,1.300047,415479,20821
1009.41,1.302582,414358,20644
1013.15,1.308737,412923,20283
1016.89,1.309433,411526,20182
1020.63,1.307518,409066,20150
1024.36,1.306312,406777,20093
1028.09,1.306506,404427,19968
1031.82,1.302211,401911,20041
1036.78,1.314593,398410,19308
1040.49,1.302154,396204,19759
1044.2,1.308515,394236,19375
1047.91,1.300412,392042,19630
1051.61,1.306708,389823,19238
1055.31,1.314128,388234,18835
1059,1.311232,387599,18930
1063.92,1.308013,386688,19026
1067.61,1.311718,386598,18860
1071.29,1.311373,387377,18913
1074.96,1.312832,388536,18906
1078.63,1.312721,389855,18975
1082.3,1.305219,391215,19373
1085.96,1.311963,393215,19172
1090.84,1.315777,396270,19152
1094.49,1.314682,398760,19321
1098.14,1.315150,400987,19408
1101.79,1.301997,403477,20129
1105.43,1.306319,406116,20060
1109.06,1.314841,407701,19747
1112.7,1.310217,409859,20064
1117.53,1.309078,412494,20246
1121.15,1.312344,414909,20212
1124.77,1.310068,416559,20399
1128.38,1.320438,418532,20012
1131.99,1.325203,419956,19861
1135.6,1.326797,421946,19882
1139.2,1.309578,423881,20781
1143.99,1.308798,426786,20961
1147.58,1.315323,428617,20737
1151.17,1.315854,431169,20835
1154.75,1.310057,433579,21233
1158.33,1.315735,436264,21087
1161.91,1.308846,439132,21565
1165.48,1.308385,442389,21748
1169.04,1.317055,446101,21497
1173.79,1.314844,451929,21889
1177.34,1.314362,456026,22112
1180.9,1.316659,461306,22250
1184.44,1.309694,467657,22921
1187.99,1.314778,473969,22960
1191.52,1.319874,479856,22974
1195.06,1.315372,487372,23577
1199.76,1.313958,497347,24138
1203.29,1.310846,504311,24652
1206.81,1.315364,511507,24745
1210.33,1.317901,519078,24965
1213.84,1.318173,527163,25338
1217.35,1.323681,534208,25353
1220.85,1.316566,540472,26074
1225.51,1.320632,549929,26283
1229.01,1.323112,556888,26464
1232.5,1.317772,562180,27046
1235.98,1.316832,567975,27384
1239.46,1.321160,574815,27439
1242.94,1.321539,582782,27795
1246.41,1.321934,591476,28184
1251.03,1.314566,604016,29274
1254.5,1.315166,612289,29634
1257.96,1.324496,619125,29328
1261.41,1.318316,624551,30009
1264.86,1.325682,629900,29757
1268.31,1.322117,634345,30214
1271.75,1.319461,638574,30602
1276.33,1.322009,642499,30610
1279.76,1.320238,645905,30898
1283.19,1.324756,648307,30692
1286.61,1.322719,650446,30938
1290.03,1.332091,652132,30356
1293.44,1.327883,653907,30735
1296.85,1.322767,655963,31197
1301.39,1.327009,657349,30959
1304.8,1.323209,657558,31241
1308.19,1.326784,658515,31030
1311.58,1.332765,658804,30619
1314.97,1.326831,659011,31050
1318.36,1.324850,658272,31157
1321.73,1.330198,658022,30764
1326.23,1.330860,657870,30710
1329.6,1.332980,656482,30496
1332.97,1.329280,654926,30684
1336.33,1.327085,653727,30783
1339.69,1.328531,652497,30623
1343.04,1.328200,649913,30525
1346.39,1.330457,647671,30262
1349.73,1.325815,645338,30477
1354.18,1.325276,641175,30318
1357.52,1.321190,638376,30471
1360.85,1.327261,635805,29927
1364.17,1.325624,633413,29927
1367.49,1.327627,631026,29677
1370.81,1.320034,628050,30058
1374.12,1.324817,625034,29586
1378.54,1.329466,620272,29048
1381.84,1.324247,616892,29239
1385.14,1.322467,613613,29203
1388.43,1.322477,611526,29103
1391.72,1.323553,610663,28990
1395.01,1.323069,610634,29021
1398.29,1.323288,611700,29057
1402.66,1.323670,614051,29143
1405.93,1.329549,616268,28855
1409.2,1.329841,617795,28907
1412.46,1.322368,618872,29460
1415.72,1.325188,619795,29313
1418.98,1.326152,620495,29281
1422.23,1.329737,621087,29068
1426.56,1.325805,621375,29346
1429.8,1.330032,621616,29073
1433.04,1.332877,622129,28907
1436.27,1.329044,621526,29135
1439.5,1.324454,621113,29425
1442.72,1.328920,620921,29115
1445.94,1.327972,620270,29148
1450.23,1.336245,618860,28533
1453.44,1.325333,617697,29204
1456.64,1.324235,616264,29210
1459.85,1.326977,614413,28939
1463.04,1.332505,612307,28475
1466.24,1.331102,610032,28461
1469.43,1.332463,607345,28247
1473.67,1.331391,603789,28151
1476.85,1.326846,601175,28324
1480.02,1.332262,597737,27813
1483.19,1.333432,594479,27587
1486.36,1.332362,591232,27504
1489.52,1.335547,587853,27147
1492.68,1.335955,583875,26938
1496.89,1.332077,578062,26909
1500.03,1.339060,574159,26301
1503.18,1.329581,570285,26700
1506.32,1.327116,565444,26624
1509.45,1.331691,560571,26118
1512.58,1.332390,555821,25855
1515.71,1.331242,550344,25668
1519.87,1.332139,543983,25319
1522.99,1.325967,538764,25435
1526.1,1.334981,533692,24678
1529.21,1.332024,527902,24577
1532.32,1.337147,521886,24012
1535.42,1.329387,515888,24164
1538.51,1.333820,509987,23645
1541.6,1.326182,503936,23779
1545.72,1.333649,494694,22945
1548.8,1.326802,488378,23012
1551.88,1.334844,481832,22287
1554.95,1.325119,474989,22468
1558.02,1.329891,467818,21887
1561.08,1.321597,460730,21971
1564.15,1.329471,454170,21269
1568.22,1.325403,444181,20997
1571.27,1.322721,436947,20783
1574.32,1.332771,429598,19966
1577.36,1.329236,422039,19775
1580.4,1.335883,414375,19121
1583.43,1.325332,406354,19212
1586.46,1.330725,398475,18607
1590.49,1.320650,388982,18590
1593.51,1.322290,380708,18126
1596.53,1.331091,372727,17390
1599.54,1.322840,365060,17359
1602.55,1.312754,357543,17401
1605.55,1.314758,349495,16931
1608.55,1.320896,341154,16295
1612.54,1.311629,330877,16145
1615.53,1.317650,322904,15539
1618.51,1.312023,315116,15362
1621.49,1.326887,307217,14473
1624.47,1.316892,299481,14437
1627.44,1.322878,292112,13889
1630.41,1.301527,284245,14196
1634.36,1.301060,274079,13703
1637.32,1.309866,266916,13077
1640.27,1.317901,259612,12486
1643.22,1.311723,251804,12284
1646.16,1.318896,244348,11725
1649.1,1.304610,236703,11738
1652.04,1.304222,228171,11325
1655.95,1.281801,215408,11258
1658.88,1.286110,204937,10605
1661.8,1.281136,193395,10123
1664.72,1.257055,179728,9944
1667.63,1.246956,163642,9267
1670.54,1.207290,146312,9078
1673.44,1.189555,128451,8302
1677.31,1.154524,105080,7362
1680.21,1.159491,88906,6158
1683.1,1.146169,75033,5359
1685.99,1.129613,63520,4713
1688.87,1.125430,53714,4024
1691.75,1.159233,45653,3164
1694.62,1.165589,39137,2673
1697.49,1.094678,33776,2716
1701.31,1.072922,28175,2382

File: Column 1_078850_20241121_172511.csv
Method:,Column 1,,
Host Date-Time:,21/11/24 @ 17:25:11,,
Header Version:,1,,
System Temp (C):,37.53,,
Detector Temp (C):,35.87,,
Humidity (%):,0.78,,
Lamp PD:,3796,,
Shift Vector Coefficients:,-10.5391,0.0761263,-0.000134223,,
Pixel to Wavelength Coefficients:,1775.68,-0.916766,-0.000235065,,
Serial Number:,5510004,,
Scan Config Name:,Column 1,,
Scan Config Type:,Slew,,
Section 1,,
Start wavelength (nm):,900,,
End wavelength (nm):,1700,,
Pattern Pixel Width (nm):,   7.03,,,,
Exposure (ms):,  0.635,,,,
Digital Resolution:,228,,
Num Repeats:,6,,
PGA Gain:,64,,
Total Measurement Time in sec:,  2.716,,
Wavelength (nm),Absorbance (AU),Reference Signal (unitless),Sample Signal (unitless)
901.51,1.318199,108485,5214
905.376,1.344310,121306,5490
909.237,1.310311,131909,6456
913.095,1.357385,143299,6293
916.948,1.320036,156982,7513
922.079,1.337038,179937,8281
925.923,1.335747,200504,9255
929.762,1.338319,222660,10217
933.597,1.335107,244426,11299
937.427,1.319845,263972,12639
941.254,1.324627,281845,13347
945.076,1.309902,297271,14563
950.165,1.317472,315605,15194
953.978,1.319708,328029,15711
957.786,1.313596,340470,16538
961.59,1.311885,352317,17181
965.389,1.314510,363056,17598
969.185,1.307268,373162,18392
972.976,1.306802,382632,18879
976.763,1.299813,391202,19615
981.806,1.310010,400190,19600
985.583,1.309396,406088,19917
989.355,1.310863,410162,20049
993.124,1.304799,412868,20465
996.888,1.317159,414263,19958
1000.65,1.311350,415476,20286
1004.4,1.301657,415479,20744
1009.41,1.307746,414358,20400
1013.15,1.313820,412923,20047
1016.89,1.304214,411526,20426
1020.63,1.312351,409066,19927
1024.36,1.307806,406777,20024
1028.09,1.311141,404427,19756
1031.82,1.313272,401911,19537
1036.78,1.304785,398410,19749
1040.49,1.302858,396204,19727
1044.2,1.308694,394236,19367
1047.91,1.315128,392042,18976
1051.61,1.313442,389823,18942
1055.31,1.314843,388234,18804
1059,1.312450,387599,18877
1063.92,1.311152,386688,18889
1067.61,1.310522,386598,18912
1071.29,1.316199,387377,18704
1074.96,1.312671,388536,18913
1078.63,1.309143,389855,19132
1082.3,1.308662,391215,19220
1085.96,1.315762,393215,19005
1090.84,1.313177,396270,19267
1094.49,1.307880,398760,19626
1098.14,1.309613,400987,19657
1101.79,1.317413,403477,19427
1105.43,1.313589,406116,19727
1109.06,1.318041,407701,19602
1112.7,1.317728,409859,19720
1117.53,1.307173,412494,20335
1121.15,1.324347,414909,19661
1124.77,1.318256,416559,20018
1128.38,1.324976,418532,19804
1131.99,1.316222,419956,20276
1135.6,1.316927,421946,20339
1139.2,1.316105,423881,20471
1143.99,1.313087,426786,20755
1147.58,1.318244,428617,20598
1151.17,1.317943,431169,20735
1154.75,1.312827,433579,21098
1158.33,1.322146,436264,20778
1161.91,1.322969,439132,20875
1165.48,1.309725,442389,21681
1169.04,1.320402,446101,21332
1173.79,1.319893,451929,21636
1177.34,1.310140,456026,22328
1180.9,1.317519,461306,22206
1184.44,1.317224,467657,22527
1187.99,1.319418,473969,22716
1191.52,1.316917,479856,23131
1195.06,1.326908,487372,22959
1199.76,1.321545,497347,23720
1203.29,1.316771,504311,24318
1206.81,1.312007,511507,24937
1210.33,1.320099,519078,24839
1213.84,1.319615,527163,25254
1217.35,1.321000,534208,25510
1220.85,1.319809,540472,25880
1225.51,1.320533,549929,26289
1229.01,1.324147,556888,26401
1232.5,1.316714,562180,27112
1235.98,1.320639,567975,27145
1239.46,1.319265,574815,27559
1242.94,1.325526,582782,27541
1246.41,1.323989,591476,28051
1251.03,1.321174,604016,28832
1254.5,1.322750,612289,29121
1257.96,1.323416,619125,29401
1261.41,1.325466,624551,29519
1264.86,1.322483,629900,29977
1268.31,1.325117,634345,30006
1271.75,1.322867,638574,30363
1276.33,1.330882,642499,29991
1279.76,1.326339,645905,30467
1283.19,1.324628,648307,30701
1286.61,1.328300,650446,30543
1290.03,1.333280,652132,30273
1293.44,1.322421,653907,31124
1296.85,1.321793,655963,31267
1301.39,1.328555,657349,30849
1304.8,1.329948,657558,30760
1308.19,1.331046,658515,30727
1311.58,1.322366,658804,31361
1314.97,1.329061,659011,30891
1318.36,1.327969,658272,30934
1321.73,1.332178,658022,30624
1326.23,1.328955,657870,30845
1329.6,1.335021,656482,30353
1332.97,1.328319,654926,30752
1336.33,1.326479,653727,30826
1339.69,1.331063,652497,30445
1343.04,1.329368,649913,30443
1346.39,1.330356,647671,30269
1349.73,1.327743,645338,30342
1354.18,1.327545,641175,30160
1357.52,1.325904,638376,30142
1360.85,1.325566,635805,30044
1364.17,1.329135,633413,29686
1367.49,1.325147,631026,29847
1370.81,1.328850,628050,29454
1374.12,1.327069,625034,29433
1378.54,1.328988,620272,29080
1381.84,1.323875,616892,29264
1385.14,1.327598,613613,28860
1388.43,1.328911,611526,28675
1391.72,1.321849,610663,29104
1395.01,1.323323,610634,29004
1398.29,1.325851,611700,28886
1402.66,1.327126,614051,28912
1405.93,1.328827,616268,28903
1409.2,1.330608,617795,28856
1412.46,1.327037,618872,29145
1415.72,1.332810,619795,28803
1418.98,1.327995,620495,29157
1422.23,1.330605,621087,29010
1426.56,1.332171,621375,28919
1429.8,1.331694,621616,28962
1433.04,1.333298,622129,28879
1436.27,1.329880,621526,29079
1439.5,1.333793,621113,28799
1442.72,1.329845,620921,29053
1445.94,1.331593,620270,28906
1450.23,1.328521,618860,29045
1453.44,1.330028,617697,28890
1456.64,1.329862,616264,28834
1459.85,1.332489,614413,28574
1463.04,1.329754,612307,28656
1466.24,1.330752,610032,28484
1469.43,1.338330,607345,27868
1473.67,1.339284,603789,27644
1476.85,1.336396,601175,27708
1480.02,1.331311,597737,27874
1483.19,1.332222,594479,27664
1486.36,1.339719,591232,27042
1489.52,1.330758,587853,27448
1492.68,1.334281,583875,27042
1496.89,1.334651,578062,26750
1500.03,1.338120,574159,26358
1503.18,1.334768,570285,26383
1506.32,1.332500,565444,26296
1509.45,1.330943,560571,26163
1512.58,1.341746,555821,25304
1515.71,1.336126,550344,25381
1519.87,1.338236,543983,24966
1522.99,1.330740,538764,25157
1526.1,1.340417,533692,24371
1529.21,1.328505,527902,24777
1532.32,1.331952,521886,24301
1535.42,1.336599,515888,23766
1538.51,1.333141,509987,23682
1541.6,1.336831,503936,23203
1545.72,1.332194,494694,23022
1548.8,1.337733,488378,22440
1551.88,1.336875,481832,22183
1554.95,1.325816,474989,22432
1558.02,1.340455,467818,21361
1561.08,1.328490,460730,21625
1564.15,1.337197,454170,20894
1568.22,1.327996,444181,20872
1571.27,1.327998,436947,20532
1574.32,1.330537,429598,20069
1577.36,1.328380,422039,19814
1580.4,1.331454,414375,19317
1583.43,1.322650,406354,19331
1586.46,1.331706,398475,18565
1590.49,1.319181,388982,18653
1593.51,1.328954,380708,17850
1596.53,1.321728,372727,17769
1599.54,1.331201,365060,17028
1602.55,1.321324,357543,17061
1605.55,1.331120,349495,16305
1608.55,1.320630,341154,16305
1612.54,1.331413,330877,15426
1615.53,1.327344,322904,15196
1618.51,1.330828,315116,14711
1621.49,1.335585,307217,14186
1624.47,1.320335,299481,14323
1627.44,1.319763,292112,13989
1630.41,1.319899,284245,13608
1634.36,1.320339,274079,13108
1637.32,1.315112,266916,12920
1640.27,1.314610,259612,12581
1643.22,1.316772,251804,12142
1646.16,1.304757,244348,12113
1649.1,1.294119,236703,12025
1652.04,1.308849,228171,11205
1655.95,1.296713,215408,10878
1658.88,1.291218,204937,10481
1661.8,1.290415,193395,9909
1664.72,1.279874,179728,9435
1667.63,1.254376,163642,9110
1670.54,1.228816,146312,8639
1673.44,1.201434,128451,8078
1677.31,1.188947,105080,6801
1680.21,1.161683,88906,6127
1683.1,1.139494,75033,5442
1685.99,1.175033,63520,4245
1688.87,1.158845,53714,3726
1691.75,1.121147,45653,3454
1694.62,1.235988,39137,2273
1697.49,1.136439,33776,2467
1701.31,1.248467,28175,1590

File: Column 1_078855_20241121_172526.csv
Method:,Column 1,,
Host Date-Time:,21/11/24 @ 17:25:26,,
Header Version:,1,,
System Temp (C):,37.13,,
Detector Temp (C):,35.97,,
Humidity (%):,0.48,,
Lamp PD:,3797,,
Shift Vector Coefficients:,-10.5391,0.0761263,-0.000134223,,
Pixel to Wavelength Coefficients:,1775.68,-0.916766,-0.000235065,,
Serial Number:,5510004,,
Scan Config Name:,Column 1,,
Scan Config Type:,Slew,,
Section 1,,
Start wavelength (nm):,900,,
End wavelength (nm):,1700,,
Pattern Pixel Width (nm):,   7.03,,,,
Exposure (ms):,  0.635,,,,
Digital Resolution:,228,,
Num Repeats:,6,,
PGA Gain:,64,,
Total Measurement Time in sec:,  2.727,,
Wavelength (nm),Absorbance (AU),Reference Signal (unitless),Sample Signal (unitless)
901.51,1.294218,108485,5510
905.376,1.315985,121306,5860
909.237,1.321486,131909,6292
913.095,1.308239,143299,7047
916.948,1.286347,156982,8119
922.079,1.312517,179937,8762
925.923,1.320531,200504,9585
929.762,1.304712,222660,11039
933.597,1.329304,244426,11451
937.427,1.322430,263972,12564
941.254,1.312498,281845,13725
945.076,1.323041,297271,14129
950.165,1.316244,315605,15237
953.978,1.309167,328029,16097
957.786,1.314253,340470,16513
961.59,1.316127,352317,17014
965.389,1.302487,363056,18092
969.185,1.308451,373162,18342
972.976,1.314437,382632,18550
976.763,1.307024,391202,19292
981.806,1.302127,400190,19959
985.583,1.307894,406088,19986
989.355,1.304327,410162,20353
993.124,1.307289,412868,20348
996.888,1.297858,414263,20865
1000.65,1.296637,415476,20985
1004.4,1.308983,415479,20397
1009.41,1.299250,414358,20803
1013.15,1.311400,412923,20159
1016.89,1.307244,411526,20284
1020.63,1.303464,409066,20339
1024.36,1.311815,406777,19840
1028.09,1.297040,404427,20408
1031.82,1.305233,401911,19902
1036.78,1.311254,398410,19457
1040.49,1.302770,396204,19731
1044.2,1.308156,394236,19391
1047.91,1.309918,392042,19205
1051.61,1.299299,389823,19569
1055.31,1.310591,388234,18989
1059,1.310728,387599,18952
1063.92,1.308539,386688,19003
1067.61,1.315674,386598,18689
1071.29,1.317525,387377,18647
1074.96,1.316384,388536,18752
1078.63,1.306224,389855,19261
1082.3,1.312931,391215,19032
1085.96,1.306582,393215,19411
1090.84,1.308670,396270,19468
1094.49,1.316281,398760,19250
1098.14,1.319083,400987,19233
1101.79,1.308956,403477,19809
1105.43,1.312270,406116,19787
1109.06,1.320396,407701,19496
1112.7,1.306488,409859,20237
1117.53,1.309014,412494,20249
1121.15,1.314368,414909,20118
1124.77,1.318212,416559,20020
1128.38,1.318662,418532,20094
1131.99,1.314277,419956,20367
1135.6,1.313228,421946,20513
1139.2,1.319513,423881,20311
1143.99,1.325181,426786,20185
1147.58,1.322716,428617,20387
1151.17,1.318342,431169,20716
1154.75,1.306066,433579,21429
1158.33,1.312820,436264,21229
1161.91,1.311512,439132,21433
1165.48,1.312357,442389,21550
1169.04,1.314357,446101,21631
1173.79,1.307311,451929,22272
1177.34,1.319042,456026,21875
1180.9,1.315704,461306,22299
1184.44,1.309808,467657,22915
1187.99,1.310655,473969,23179
1191.52,1.314091,479856,23282
1195.06,1.320691,487372,23290
1199.76,1.321948,497347,23698
1203.29,1.321565,504311,24051
1206.81,1.321177,511507,24416
1210.33,1.318615,519078,24924
1213.84,1.317385,527163,25384
1217.35,1.317845,534208,25696
1220.85,1.321676,540472,25769
1225.51,1.329243,549929,25767
1229.01,1.318428,556888,26751
1232.5,1.334702,562180,26012
1235.98,1.330167,567975,26556
1239.46,1.320338,574815,27491
1242.94,1.321274,582782,27812
1246.41,1.324500,591476,28018
1251.03,1.320888,604016,28851
1254.5,1.320430,612289,29277
1257.96,1.320076,619125,29628
1261.41,1.318693,624551,29983
1264.86,1.322252,629900,29993
1268.31,1.325958,634345,29948
1271.75,1.328800,638574,29951
1276.33,1.326831,642499,30272
1279.76,1.328626,645905,30307
1283.19,1.326627,648307,30560
1286.61,1.327277,650446,30615
1290.03,1.325418,652132,30826
1293.44,1.333200,653907,30361
1296.85,1.329359,655963,30727
1301.39,1.328161,657349,30877
1304.8,1.322126,657558,31319
1308.19,1.325010,658515,31157
1311.58,1.325856,658804,31110
1314.97,1.326496,659011,31074
1318.36,1.323959,658272,31221
1321.73,1.329182,658022,30836
1326.23,1.330903,657870,30707
1329.6,1.328306,656482,30826
1332.97,1.325995,654926,30917
1336.33,1.331339,653727,30483
1339.69,1.329226,652497,30574
1343.04,1.327901,649913,30546
1346.39,1.331722,647671,30174
1349.73,1.327743,645338,30342
1354.18,1.320858,641175,30628
1357.52,1.331736,638376,29740
1360.85,1.325798,635805,30028
1364.17,1.324537,633413,30002
1367.49,1.323810,631026,29939
1370.81,1.319125,628050,30121
1374.12,1.323689,625034,29663
1378.54,1.323040,620272,29481
1381.84,1.323683,616892,29277
1385.14,1.326922,613613,28905
1388.43,1.322895,611526,29075
1391.72,1.323284,610663,29008
1395.01,1.327234,610634,28744
1398.29,1.329368,611700,28653
1402.66,1.320182,614051,29378
1405.93,1.319609,616268,29523
1409.2,1.326087,617795,29158
1412.46,1.326918,618872,29153
1415.72,1.331170,619795,28912
1418.98,1.328144,620495,29147
1422.23,1.328156,621087,29174
1426.56,1.333780,621375,28812
1429.8,1.324599,621616,29439
1433.04,1.329764,622129,29115
1436.27,1.329298,621526,29118
1439.5,1.332108,621113,28911
1442.72,1.332499,620921,28876
1445.94,1.328957,620270,29082
1450.23,1.331627,618860,28838
1453.44,1.326018,617697,29158
1456.64,1.329380,616264,28866
1459.85,1.327668,614413,28893
1463.04,1.324377,612307,29013
1466.24,1.333167,610032,28326
1469.43,1.330867,607345,28351
1473.67,1.333727,603789,28000
1476.85,1.336976,601175,27671
1480.02,1.333325,597737,27745
1483.19,1.328454,594479,27905
1486.36,1.334245,591232,27385
1489.52,1.329904,587853,27502
1492.68,1.330762,583875,27262
1496.89,1.332481,578062,26884
1500.03,1.325983,574159,27105
1503.18,1.335509,570285,26338
1506.32,1.332847,565444,26275
1509.45,1.338579,560571,25707
1512.58,1.330229,555821,25984
1515.71,1.333192,550344,25553
1519.87,1.336483,543983,25067
1522.99,1.327523,538764,25344
1526.1,1.334067,533692,24730
1529.21,1.330930,527902,24639
1532.32,1.327330,521886,24561
1535.42,1.327343,515888,24278
1538.51,1.336048,509987,23524
1541.6,1.333215,503936,23397
1545.72,1.331496,494694,23059
1548.8,1.328333,488378,22931
1551.88,1.328691,481832,22605
1554.95,1.331349,474989,22148
1558.02,1.330327,467818,21865
1561.08,1.329033,460730,21598
1564.15,1.331006,454170,21194
1568.22,1.324576,444181,21037
1571.27,1.328844,436947,20492
1574.32,1.340585,429598,19610
1577.36,1.329961,422039,19742
1580.4,1.330286,414375,19369
1583.43,1.319182,406354,19486
1586.46,1.324192,398475,18889
1590.49,1.331532,388982,18130
1593.51,1.323273,380708,18085
1596.53,1.323909,372727,17680
1599.54,1.321990,365060,17393
1602.55,1.324082,357543,16953
1605.55,1.324722,349495,16547
1608.55,1.314205,341154,16548
1612.54,1.318297,330877,15899
1615.53,1.315226,322904,15626
1618.51,1.321569,315116,15028
1621.49,1.313037,307217,14942
1624.47,1.310354,299481,14656
1627.44,1.315315,292112,14133
1630.41,1.308186,284245,13980
1634.36,1.310998,274079,13393
1637.32,1.307845,266916,13138
1640.27,1.306403,259612,12821
1643.22,1.313956,251804,12221
1646.16,1.328218,244348,11476
1649.1,1.325607,236703,11184
1652.04,1.302309,228171,11375
1655.95,1.297472,215408,10859
1658.88,1.285087,204937,10630
1661.8,1.282597,193395,10089
1664.72,1.253445,179728,10027
1667.63,1.257630,163642,9042
1670.54,1.230428,146312,8607
1673.44,1.202996,128451,8049
1677.31,1.177976,105080,6975
1680.21,1.124805,88906,6670
1683.1,1.123050,75033,5652
1685.99,1.156703,63520,4428
1688.87,1.115190,53714,4120
1691.75,1.114410,45653,3508
1694.62,1.165751,39137,2672
1697.49,1.172200,33776,2272
1701.31,1.160721,28175,1946