Folder: textile_sorting_NIRSCAN_/samples/unknown (part 20)

File: Column 1_078106_20241121_164545.csv
Method:,Column 1,,
Host Date-Time:,21/11/24 @ 16:45:45,,
Header Version:,1,,
System Temp (C):,32.47,,
Detector Temp (C):,27.64,,
Humidity (%):,4.01,,
Lamp PD:,3807,,
Shift Vector Coefficients:,-10.5391,0.0761263,-0.000134223,,
Pixel to Wavelength Coefficients:,1775.68,-0.916766,-0.000235065,,
Serial Number:,5510004,,
Scan Config Name:,Column 1,,
Scan Config Type:,Slew,,
Section 1,,
Start wavelength (nm):,900,,
End wavelength (nm):,1700,,
Pattern Pixel Width (nm):,   7.03,,,,
Exposure (ms):,  0.635,,,,
Digital Resolution:,228,,
Num Repeats:,6,,
PGA Gain:,64,,
Total Measurement Time in sec:,  2.723,,
Wavelength (nm),Absorbance (AU),Reference Signal (unitless),Sample Signal (unitless)
901.51,1.324407,108485,5140
905.376,1.305008,121306,6010
909.237,1.301587,131909,6587
913.095,1.318781,143299,6878
916.948,1.329444,156982,7352
922.079,1.333642,179937,8346
925.923,1.314814,200504,9712
929.762,1.321068,222660,10631
933.597,1.310670,244426,11953
937.427,1.311575,263972,12882
941.254,1.327107,281845,13271
945.076,1.312114,297271,14489
950.165,1.302250,315605,15736
953.978,1.301492,328029,16384
957.786,1.302064,340470,16983
961.59,1.321961,352317,16787
965.389,1.302535,363056,18090
969.185,1.313284,373162,18139
972.976,1.307562,382632,18846
976.763,1.301677,391202,19531
981.806,1.305426,400190,19808
985.583,1.313053,406088,19750
989.355,1.309392,410162,20117
993.124,1.308529,412868,20290
996.888,1.307412,414263,20411
1000.65,1.299815,415476,20832
1004.4,1.309622,415479,20367
1009.41,1.309409,414358,20322
1013.15,1.319467,412923,19788
1016.89,1.311201,411526,20100
1020.63,1.311829,409066,19951
1024.36,1.311202,406777,19868
1028.09,1.315050,404427,19579
1031.82,1.311431,401911,19620
1036.78,1.318298,398410,19144
1040.49,1.309334,396204,19435
1044.2,1.309569,394236,19328
1047.91,1.316434,392042,18919
1051.61,1.311771,389823,19015
1055.31,1.318042,388234,18666
1059,1.313994,387599,18810
1063.92,1.312856,386688,18815
1067.61,1.321428,386598,18443
1071.29,1.316827,387377,18677
1074.96,1.312901,388536,18903
1078.63,1.311487,389855,19029
1082.3,1.307534,391215,19270
1085.96,1.307814,393215,19356
1090.84,1.321323,396270,18909
1094.49,1.320657,398760,19057
1098.14,1.311451,400987,19574
1101.79,1.314006,403477,19580
1105.43,1.326776,406116,19137
1109.06,1.316935,407701,19652
1112.7,1.322266,409859,19515
1117.53,1.321635,412494,19669
1121.15,1.314541,414909,20110
1124.77,1.312287,416559,20295
1128.38,1.322657,418532,19910
1131.99,1.319058,419956,20144
1135.6,1.319863,421946,20202
1139.2,1.319791,423881,20298
1143.99,1.319432,426786,20454
1147.58,1.328053,428617,20138
1151.17,1.310756,431169,21081
1154.75,1.314291,433579,21027
1158.33,1.327086,436264,20543
1161.91,1.323114,439132,20868
1165.48,1.322305,442389,21062
1169.04,1.321135,446101,21296
1173.79,1.314170,451929,21923
1177.34,1.322530,456026,21700
1180.9,1.324021,461306,21876
1184.44,1.318228,467657,22475
1187.99,1.322719,473969,22544
1191.52,1.319402,479856,22999
1195.06,1.321288,487372,23258
1199.76,1.327184,497347,23414
1203.29,1.325228,504311,23849
1206.81,1.327177,511507,24081
1210.33,1.321061,519078,24784
1213.84,1.327949,527163,24774
1217.35,1.320438,534208,25543
1220.85,1.318669,540472,25948
1225.51,1.325250,549929,26005
1229.01,1.325961,556888,26291
1232.5,1.316090,562180,27151
1235.98,1.321440,567975,27095
1239.46,1.322301,574815,27367
1242.94,1.325858,582782,27520
1246.41,1.328893,591476,27736
1251.03,1.325671,604016,28535
1254.5,1.327112,612289,28830
1257.96,1.329980,619125,28960
1261.41,1.326910,624551,29421
1264.86,1.331072,629900,29390
1268.31,1.329189,634345,29726
1271.75,1.327439,638574,30045
1276.33,1.330882,642499,29991
1279.76,1.332252,645905,30055
1283.19,1.329250,648307,30376
1286.61,1.328442,650446,30533
1290.03,1.331633,652132,30388
1293.44,1.332700,653907,30396
1296.85,1.329218,655963,30737
1301.39,1.331408,657349,30647
1304.8,1.334832,657558,30416
1308.19,1.331017,658515,30729
1311.58,1.334044,658804,30529
1314.97,1.332774,659011,30628
1318.36,1.327717,658272,30952
1321.73,1.331074,658022,30702
1326.23,1.331483,657870,30666
1329.6,1.333636,656482,30450
1332.97,1.331551,654926,30524
1336.33,1.333868,653727,30306
1339.69,1.342583,652497,29648
1343.04,1.333539,649913,30152
1346.39,1.332788,647671,30100
1349.73,1.339200,645338,29552
1354.18,1.331262,641175,29903
1357.52,1.334049,638376,29582
1360.85,1.326362,635805,29989
1364.17,1.334034,633413,29353
1367.49,1.325991,631026,29789
1370.81,1.324668,628050,29739
1374.12,1.332145,625034,29091
1378.54,1.325848,620272,29291
1381.84,1.330741,616892,28805
1385.14,1.334454,613613,28408
1388.43,1.329245,611526,28653
1391.72,1.323359,610663,29003
1395.01,1.328550,610634,28657
1398.29,1.329202,611700,28664
1402.66,1.326526,614051,28952
1405.93,1.330981,616268,28760
1409.2,1.335573,617795,28528
1412.46,1.331666,618872,28836
1415.72,1.333897,619795,28731
1418.98,1.330280,620495,29004
1422.23,1.332029,621087,28915
1426.56,1.339669,621375,28424
1429.8,1.331709,621616,28961
1433.04,1.329376,622129,29141
1436.27,1.336213,621526,28658
1439.5,1.331732,621113,28936
1442.72,1.338359,620921,28489
1445.94,1.336427,620270,28586
1450.23,1.334165,618860,28670
1453.44,1.338222,617697,28350
1456.64,1.339548,616264,28198
1459.85,1.334699,614413,28429
1463.04,1.336074,612307,28242
1466.24,1.334319,610032,28251
1469.43,1.336464,607345,27988
1473.67,1.335156,603789,27908
1476.85,1.336960,601175,27672
1480.02,1.341367,597737,27236
1483.19,1.339424,594479,27209
1486.36,1.340796,591232,26975
1489.52,1.338742,587853,26948
1492.68,1.338688,583875,26769
1496.89,1.338417,578062,26519
1500.03,1.336410,574159,26462
1503.18,1.335427,570285,26343
1506.32,1.343031,565444,25666
1509.45,1.344499,560571,25359
1512.58,1.336729,555821,25598
1515.71,1.339079,550344,25209
1519.87,1.365165,543983,23465
1522.99,1.341666,538764,24532
1526.1,1.336444,533692,24595
1529.21,1.338953,527902,24188
1532.32,1.342956,521886,23693
1535.42,1.334121,515888,23902
1538.51,1.339012,509987,23364
1541.6,1.345700,503936,22734
1545.72,1.339038,494694,22662
1548.8,1.338082,488378,22422
1551.88,1.342352,481832,21905
1554.95,1.337093,474989,21857
1558.02,1.341310,467818,21319
1561.08,1.342408,460730,20943
1564.15,1.339343,454170,20791
1568.22,1.337526,444181,20419
1571.27,1.339182,436947,20010
1574.32,1.344411,429598,19438
1577.36,1.330380,422039,19723
1580.4,1.332174,414375,19285
1583.43,1.334470,406354,18812
1586.46,1.328374,398475,18708
1590.49,1.336882,388982,17908
1593.51,1.332791,380708,17693
1596.53,1.323123,372727,17712
1599.54,1.332554,365060,16975
1602.55,1.335239,357543,16523
1605.55,1.319322,349495,16754
1608.55,1.326989,341154,16068
1612.54,1.331104,330877,15437
1615.53,1.326744,322904,15217
1618.51,1.318000,315116,15152
1621.49,1.330200,307217,14363
1624.47,1.316291,299481,14457
1627.44,1.335602,292112,13488
1630.41,1.321786,284245,13549
1634.36,1.349456,274079,12258
1637.32,1.331764,266916,12434
1640.27,1.312475,259612,12643
1643.22,1.314063,251804,12218
1646.16,1.303468,244348,12149
1649.1,1.313959,236703,11488
1652.04,1.341102,228171,10403
1655.95,1.320298,215408,10303
1658.88,1.323329,204937,9734
1661.8,1.296995,193395,9760
1664.72,1.317650,179728,8649
1667.63,1.318196,163642,7865
1670.54,1.294935,146312,7419
1673.44,1.261968,128451,7027
1677.31,1.254067,105080,5854
1680.21,1.277758,88906,4690
1683.1,1.306230,75033,3707
1685.99,1.299256,63520,3189
1688.87,1.334761,53714,2485
1691.75,1.305745,45653,2258
1694.62,1.241371,39137,2245
1697.49,1.236574,33776,1959
1701.31,1.220951,28175,1694

File: Column 1_078108_20241121_164551.csv
Method:,Column 1,,
Host Date-Time:,21/11/24 @ 16:45:51,,
Header Version:,1,,
System Temp (C):,32.49,,
Detector Temp (C):,27.76,,
Humidity (%):,4.1,,
Lamp PD:,3807,,
Shift Vector Coefficients:,-10.5391,0.0761263,-0.000134223,,
Pixel to Wavelength Coefficients:,1775.68,-0.916766,-0.000235065,,
Serial Number:,5510004,,
Scan Config Name:,Column 1,,
Scan Config Type:,Slew,,
Section 1,,
Start wavelength (nm):,900,,
End wavelength (nm):,1700,,
Pattern Pixel Width (nm):,   7.03,,,,
Exposure (ms):,  0.635,,,,
Digital Resolution:,228,,
Num Repeats:,6,,
PGA Gain:,64,,
Total Measurement Time in sec:,  2.707,,
Wavelength (nm),Absorbance (AU),Reference Signal (unitless),Sample Signal (unitless)
901.51,1.304265,108485,5384
905.376,1.323988,121306,5753
909.237,1.329778,131909,6173
913.095,1.328422,143299,6727
916.948,1.310771,156982,7675
922.079,1.320875,179937,8595
925.923,1.320350,200504,9589
929.762,1.321640,222660,10617
933.597,1.318886,244426,11729
937.427,1.312148,263972,12865
941.254,1.313100,281845,13706
945.076,1.315333,297271,14382
950.165,1.326191,315605,14892
953.978,1.305005,328029,16252
957.786,1.307494,340470,16772
961.59,1.309088,352317,17292
965.389,1.325153,363056,17172
969.185,1.307434,373162,18385
972.976,1.306825,382632,18878
976.763,1.311959,391202,19074
981.806,1.306875,400190,19742
985.583,1.303677,406088,20181
989.355,1.308788,410162,20145
993.124,1.320574,412868,19735
996.888,1.315465,414263,20036
1000.65,1.314206,415476,20153
1004.4,1.305273,415479,20572
1009.41,1.315955,414358,20018
1013.15,1.319116,412923,19804
1016.89,1.321521,411526,19628
1020.63,1.317768,409066,19680
1024.36,1.309305,406777,19955
1028.09,1.311185,404427,19754
1031.82,1.311387,401911,19622
1036.78,1.310652,398410,19484
1040.49,1.315410,396204,19165
1044.2,1.319777,394236,18879
1047.91,1.312276,392042,19101
1051.61,1.309857,389823,19099
1055.31,1.304708,388234,19248
1059,1.307167,387599,19108
1063.92,1.309889,386688,18944
1067.61,1.307433,386598,19047
1071.29,1.317339,387377,18655
1074.96,1.314558,388536,18831
1078.63,1.323121,389855,18526
1082.3,1.321434,391215,18663
1085.96,1.313347,393215,19111
1090.84,1.318096,396270,19050
1094.49,1.319792,398760,19095
1098.14,1.314836,400987,19422
1101.79,1.312699,403477,19639
1105.43,1.309121,406116,19931
1109.06,1.323033,407701,19378
1112.7,1.314786,409859,19854
1117.53,1.309636,412494,20220
1121.15,1.317705,414909,19964
1124.77,1.326579,416559,19638
1128.38,1.324012,418532,19848
1131.99,1.323261,419956,19950
1135.6,1.313863,421946,20483
1139.2,1.320755,423881,20253
1143.99,1.321795,426786,20343
1147.58,1.322887,428617,20379
1151.17,1.325742,431169,20366
1154.75,1.317234,433579,20885
1158.33,1.322167,436264,20777
1161.91,1.318869,439132,21073
1165.48,1.319161,442389,21215
1169.04,1.317824,446101,21459
1173.79,1.317431,451929,21759
1177.34,1.330121,456026,21324
1180.9,1.320246,461306,22067
1184.44,1.318672,467657,22452
1187.99,1.315820,473969,22905
1191.52,1.314632,479856,23253
1195.06,1.325642,487372,23026
1199.76,1.324079,497347,23582
1203.29,1.322180,504311,24017
1206.81,1.325809,511507,24157
1210.33,1.326084,519078,24499
1213.84,1.330146,527163,24649
1217.35,1.323407,534208,25369
1220.85,1.322502,540472,25720
1225.51,1.324716,549929,26037
1229.01,1.327433,556888,26202
1232.5,1.326974,562180,26479
1235.98,1.320112,567975,27178
1239.46,1.316077,574815,27762
1242.94,1.321368,582782,27806
1246.41,1.323989,591476,28051
1251.03,1.321189,604016,28831
1254.5,1.323213,612289,29090
1257.96,1.331512,619125,28858
1261.41,1.325702,624551,29503
1264.86,1.331190,629900,29382
1268.31,1.325421,634345,29985
1271.75,1.327989,638574,30007
1276.33,1.324556,642499,30431
1279.76,1.337266,645905,29710
1283.19,1.331702,648307,30205
1286.61,1.330981,650446,30355
1290.03,1.329253,652132,30555
1293.44,1.329468,653907,30623
1296.85,1.337981,655963,30123
1301.39,1.334594,657349,30423
1304.8,1.330541,657558,30718
1308.19,1.330890,658515,30738
1311.58,1.329374,658804,30859
1314.97,1.333754,659011,30559
1318.36,1.331550,658272,30680
1321.73,1.336211,658022,30341
1326.23,1.334196,657870,30475
1329.6,1.331601,656482,30593
1332.97,1.328630,654926,30730
1336.33,1.334441,653727,30266
1339.69,1.330236,652497,30503
1343.04,1.331212,649913,30314
1346.39,1.333712,647671,30036
1349.73,1.333332,645338,29954
1354.18,1.330942,641175,29925
1357.52,1.333550,638376,29616
1360.85,1.331255,635805,29653
1364.17,1.333916,633413,29361
1367.49,1.326809,631026,29733
1370.81,1.325530,628050,29680
1374.12,1.331354,625034,29144
1378.54,1.331790,620272,28893
1381.84,1.329567,616892,28883
1385.14,1.328005,613613,28833
1388.43,1.334030,611526,28339
1391.72,1.333402,610663,28340
1395.01,1.336673,610634,28126
1398.29,1.328853,611700,28687
1402.66,1.324416,614051,29093
1405.93,1.335794,616268,28443
1409.2,1.330022,617795,28895
1412.46,1.333885,618872,28689
1415.72,1.333278,619795,28772
1418.98,1.336722,620495,28577
1422.23,1.335346,621087,28695
1426.56,1.335805,621375,28678
1429.8,1.337764,621616,28560
1433.04,1.335878,622129,28708
1436.27,1.339866,621526,28418
1439.5,1.337017,621113,28586
1442.72,1.340284,620921,28363
1445.94,1.334396,620270,28720
1450.23,1.339852,618860,28297
1453.44,1.353945,617697,27342
1456.64,1.340891,616264,28111
1459.85,1.333235,614413,28525
1463.04,1.336197,612307,28234
1466.24,1.332233,610032,28387
1469.43,1.342039,607345,27631
1473.67,1.337450,603789,27761
1476.85,1.336333,601175,27712
1480.02,1.337493,597737,27480
1483.19,1.336132,594479,27416
1486.36,1.339013,591232,27086
1489.52,1.337792,587853,27007
1492.68,1.340981,583875,26628
1496.89,1.338417,578062,26519
1500.03,1.338317,574159,26346
1503.18,1.345450,570285,25742
1506.32,1.343743,565444,25624
1509.45,1.344636,560571,25351
1512.58,1.335053,555821,25697
1515.71,1.337497,550344,25301
1519.87,1.340994,543983,24808
1522.99,1.341559,538764,24538
1526.1,1.339421,533692,24427
1529.21,1.343592,527902,23931
1532.32,1.339632,521886,23875
1535.42,1.335450,515888,23829
1538.51,1.339142,509987,23357
1541.6,1.333364,503936,23389
1545.72,1.329617,494694,23159
1548.8,1.344226,488378,22107
1551.88,1.333851,481832,22338
1554.95,1.344084,474989,21508
1558.02,1.338245,467818,21470
1561.08,1.339782,460730,21070
1564.15,1.343077,454170,20613
1568.22,1.338953,444181,20352
1571.27,1.334197,436947,20241
1574.32,1.344366,429598,19440
1577.36,1.333806,422039,19568
1580.4,1.333369,414375,19232
1583.43,1.332075,406354,18916
1586.46,1.334146,398475,18461
1590.49,1.333958,388982,18029
1593.51,1.331908,380708,17729
1596.53,1.331541,372727,17372
1599.54,1.320843,365060,17439
1602.55,1.333770,357543,16579
1605.55,1.334892,349495,16164
1608.55,1.340021,341154,15593
1612.54,1.318898,330877,15877
1615.53,1.327316,322904,15197
1618.51,1.335757,315116,14545
1621.49,1.333113,307217,14267
1624.47,1.319154,299481,14362
1627.44,1.324727,292112,13830
1630.41,1.330462,284245,13281
1634.36,1.318686,274079,13158
1637.32,1.316324,266916,12884
1640.27,1.320203,259612,12420
1643.22,1.323223,251804,11963
1646.16,1.312973,244348,11886
1649.1,1.303243,236703,11775
1652.04,1.317342,228171,10988
1655.95,1.323641,215408,10224
1658.88,1.287956,204937,10560
1661.8,1.300660,193395,9678
1664.72,1.306203,179728,8880
1667.63,1.314129,163642,7939
1670.54,1.313410,146312,7110
1673.44,1.287027,128451,6633
1677.31,1.269011,105080,5656
1680.21,1.287402,88906,4587
1683.1,1.285526,75033,3888
1685.99,1.292231,63520,3241
1688.87,1.357912,53714,2356
1691.75,1.269595,45653,2454
1694.62,1.321909,39137,1865
1697.49,1.301493,33776,1687
1701.31,1.391438,28175,1144

File: Column 1_078111_20241121_164600.csv
Method:,Column 1,,
Host Date-Time:,21/11/24 @ 16:46:0,,
Header Version:,1,,
System Temp (C):,32.58,,
Detector Temp (C):,27.93,,
Humidity (%):,4.1,,
Lamp PD:,3807,,
Shift Vector Coefficients:,-10.5391,0.0761263,-0.000134223,,
Pixel to Wavelength Coefficients:,1775.68,-0.916766,-0.000235065,,
Serial Number:,5510004,,
Scan Config Name:,Column 1,,
Scan Config Type:,Slew,,
Section 1,,
Start wavelength (nm):,900,,
End wavelength (nm):,1700,,
Pattern Pixel Width (nm):,   7.03,,,,
Exposure (ms):,  0.635,,,,
Digital Resolution:,228,,
Num Repeats:,6,,
PGA Gain:,64,,
Total Measurement Time in sec:,  2.721,,
Wavelength (nm),Absorbance (AU),Reference Signal (unitless),Sample Signal (unitless)
901.51,1.318615,108485,5209
905.376,1.274862,121306,6442
909.237,1.273999,131909,7019
913.095,1.340599,143299,6541
916.948,1.320268,156982,7509
922.079,1.302716,179937,8962
925.923,1.300346,200504,10041
929.762,1.304909,222660,11034
933.597,1.322530,244426,11631
937.427,1.314382,263972,12799
941.254,1.309534,281845,13819
945.076,1.302744,297271,14805
950.165,1.309541,315605,15474
953.978,1.307847,328029,16146
957.786,1.310326,340470,16663
961.59,1.305437,352317,17438
965.389,1.315672,363056,17551
969.185,1.307765,373162,18371
972.976,1.307378,382632,18854
976.763,1.299016,391202,19651
981.806,1.308815,400190,19654
985.583,1.313251,406088,19741
989.355,1.302921,410162,20419
993.124,1.305585,412868,20428
996.888,1.304000,414263,20572
1000.65,1.318908,415476,19936
1004.4,1.306901,415479,20495
1009.41,1.305855,414358,20489
1013.15,1.308758,412923,20282
1016.89,1.307844,411526,20256
1020.63,1.315721,409066,19773
1024.36,1.309566,406777,19943
1028.09,1.300265,404427,20257
1031.82,1.318528,401911,19302
1036.78,1.311031,398410,19467
1040.49,1.315818,396204,19147
1044.2,1.314041,394236,19130
1047.91,1.312208,392042,19104
1051.61,1.313510,389823,18939
1055.31,1.305047,388234,19233
1059,1.306986,387599,19116
1063.92,1.316100,386688,18675
1067.61,1.314791,386598,18727
1071.29,1.313307,387377,18829
1074.96,1.314304,388536,18842
1078.63,1.313546,389855,18939
1082.3,1.316000,391215,18898
1085.96,1.326942,393215,18522
1090.84,1.315664,396270,19157
1094.49,1.322370,398760,18982
1098.14,1.315015,400987,19414
1101.79,1.317659,403477,19416
1105.43,1.320916,406116,19397
1109.06,1.317532,407701,19625
1112.7,1.308920,409859,20124
1117.53,1.323428,412494,19588
1121.15,1.312752,414909,20193
1124.77,1.312416,416559,20289
1128.38,1.316851,418532,20178
1131.99,1.315259,419956,20321
1135.6,1.316735,421946,20348
1139.2,1.315956,423881,20478
1143.99,1.321817,426786,20342
1147.58,1.314110,428617,20795
1151.17,1.315541,431169,20850
1154.75,1.319527,433579,20775
1158.33,1.312329,436264,21253
1161.91,1.320955,439132,20972
1165.48,1.326865,442389,20842
1169.04,1.319182,446101,21392
1173.79,1.327425,451929,21264
1177.34,1.315404,456026,22059
1180.9,1.314867,461306,22342
1184.44,1.317070,467657,22535
1187.99,1.324476,473969,22453
1191.52,1.319175,479856,23011
1195.06,1.317477,487372,23463
1199.76,1.320612,497347,23771
1203.29,1.322596,504311,23994
1206.81,1.323925,511507,24262
1210.33,1.323715,519078,24633
1213.84,1.321770,527163,25129
1217.35,1.322620,534208,25415
1220.85,1.322097,540472,25744
1225.51,1.323383,549929,26117
1229.01,1.329577,556888,26073
1232.5,1.327351,562180,26456
1235.98,1.325628,567975,26835
1239.46,1.322174,574815,27375
1242.94,1.324943,582782,27578
1246.41,1.327830,591476,27804
1251.03,1.324151,604016,28635
1254.5,1.323601,612289,29064
1257.96,1.325623,619125,29252
1261.41,1.323792,624551,29633
1264.86,1.329435,629900,29501
1268.31,1.324019,634345,30082
1271.75,1.330980,638574,29801
1276.33,1.328571,642499,30151
1279.76,1.330018,645905,30210
1283.19,1.324798,648307,30689
1286.61,1.331325,650446,30331
1290.03,1.326010,652132,30784
1293.44,1.326317,653907,30846
1296.85,1.329331,655963,30729
1301.39,1.332614,657349,30562
1304.8,1.331008,657558,30685
1308.19,1.332206,658515,30645
1311.58,1.328784,658804,30901
1314.97,1.334123,659011,30533
1318.36,1.331069,658272,30714
1321.73,1.333770,658022,30512
1326.23,1.333541,657870,30521
1329.6,1.333464,656482,30462
1332.97,1.329294,654926,30683
1336.33,1.330883,653727,30515
1339.69,1.335695,652497,30122
1343.04,1.328726,649913,30488
1346.39,1.333871,647671,30025
1349.73,1.333289,645338,29957
1354.18,1.330000,641175,29990
1357.52,1.325703,638376,30156
1360.85,1.328351,635805,29852
1364.17,1.328244,633413,29747
1367.49,1.331759,631026,29396
1370.81,1.324872,628050,29725
1374.12,1.328814,625034,29315
1378.54,1.329541,620272,29043
1381.84,1.324321,616892,29234
1385.14,1.331407,613613,28608
1388.43,1.327626,611526,28760
1391.72,1.331140,610663,28488
1395.01,1.327702,610634,28713
1398.29,1.324006,611700,29009
1402.66,1.328164,614051,28843
1405.93,1.332766,616268,28642
1409.2,1.331030,617795,28828
1412.46,1.328694,618872,29034
1415.72,1.328191,619795,29111
1418.98,1.332382,620495,28864
1422.23,1.334333,621087,28762
1426.56,1.330417,621375,29036
1429.8,1.327887,621616,29217
1433.04,1.332577,622129,28927
1436.27,1.333600,621526,28831
1439.5,1.330623,621113,29010
1442.72,1.328398,620921,29150
1445.94,1.339507,620270,28384
1450.23,1.336595,618860,28510
1453.44,1.331821,617697,28771
1456.64,1.333720,616264,28579
1459.85,1.334042,614413,28472
1463.04,1.340898,612307,27930
1466.24,1.331667,610032,28424
1469.43,1.337256,607345,27937
1473.67,1.329652,603789,28264
1476.85,1.335378,601175,27773
1480.02,1.333091,597737,27760
1483.19,1.340575,594479,27137
1486.36,1.337588,591232,27175
1489.52,1.335291,587853,27163
1492.68,1.337829,583875,26822
1496.89,1.341474,578062,26333
1500.03,1.339506,574159,26274
1503.18,1.341052,570285,26004
1506.32,1.339123,565444,25898
1509.45,1.340136,560571,25615
1512.58,1.338344,555821,25503
1515.71,1.334964,550344,25449
1519.87,1.337350,543983,25017
1522.99,1.338104,538764,24734
1526.1,1.334207,533692,24722
1529.21,1.334079,527902,24461
1532.32,1.338125,521886,23958
1535.42,1.328435,515888,24217
1538.51,1.341865,509987,23211
1541.6,1.337599,503936,23162
1545.72,1.340690,494694,22576
1548.8,1.332577,488378,22708
1551.88,1.333618,481832,22350
1554.95,1.336259,474989,21899
1558.02,1.339298,467818,21418
1561.08,1.331250,460730,21488
1564.15,1.341122,454170,20706
1568.22,1.338590,444181,20369
1571.27,1.330543,436947,20412
1574.32,1.341072,429598,19588
1577.36,1.326958,422039,19879
1580.4,1.327782,414375,19481
1583.43,1.338925,406354,18620
1586.46,1.341166,398475,18165
1590.49,1.328262,388982,18267
1593.51,1.336488,380708,17543
1596.53,1.331216,372727,17385
1599.54,1.327746,365060,17164
1602.55,1.337770,357543,16427
1605.55,1.332908,349495,16238
1608.55,1.330926,341154,15923
1612.54,1.335657,330877,15276
1615.53,1.334287,322904,14955
1618.51,1.331005,315116,14705
1621.49,1.321341,307217,14659
1624.47,1.332543,299481,13926
1627.44,1.329368,292112,13683
1630.41,1.325520,284245,13433
1634.36,1.325975,274079,12939
1637.32,1.323598,266916,12670
1640.27,1.322131,259612,12365
1643.22,1.317202,251804,12130
1646.16,1.317232,244348,11770
1649.1,1.325762,236703,11180
1652.04,1.304529,228171,11317
1655.95,1.310421,215408,10540
1658.88,1.315109,204937,9920
1661.8,1.309133,193395,9491
1664.72,1.286927,179728,9283
1667.63,1.287449,163642,8442
1670.54,1.288889,146312,7523
1673.44,1.257908,128451,7093
1677.31,1.258392,105080,5796
1680.21,1.261759,88906,4866
1683.1,1.278545,75033,3951
1685.99,1.308199,63520,3124
1688.87,1.228070,53714,3177
1691.75,1.414945,45653,1756
1694.62,1.242533,39137,2239
1697.49,1.317488,33776,1626
1701.31,1.190270,28175,1818