Folder: textile_sorting_NIRSCAN_/samples/unknown (part 5)

File: Column 1_078029_20241121_164200.csv
Method:,Column 1,,
Host Date-Time:,21/11/24 @ 16:42:0,,
Header Version:,1,,
System Temp (C):,30.1,,
Detector Temp (C):,25.08,,
Humidity (%):,6.33,,
Lamp PD:,3812,,
Shift Vector Coefficients:,-10.5391,0.0761263,-0.000134223,,
Pixel to Wavelength Coefficients:,1775.68,-0.916766,-0.000235065,,
Serial Number:,5510004,,
Scan Config Name:,Column 1,,
Scan Config Type:,Slew,,
Section 1,,
Start wavelength (nm):,900,,
End wavelength (nm):,1700,,
Pattern Pixel Width (nm):,   7.03,,,,
Exposure (ms):,  0.635,,,,
Digital Resolution:,228,,
Num Repeats:,6,,
PGA Gain:,64,,
Total Measurement Time in sec:,  2.708,,
Wavelength (nm),Absorbance (AU),Reference Signal (unitless),Sample Signal (unitless)
901.51,1.311586,108485,5294
905.376,1.328694,121306,5691
909.237,1.315590,131909,6378
913.095,1.324245,143299,6792
916.948,1.313155,156982,7633
922.079,1.309160,179937,8830
925.923,1.323806,200504,9513
929.762,1.316476,222660,10744
933.597,1.319368,244426,11716
937.427,1.302104,263972,13166
941.254,1.315897,281845,13618
945.076,1.294982,297271,15072
950.165,1.317043,315605,15209
953.978,1.309410,328029,16088
957.786,1.308479,340470,16734
961.59,1.315489,352317,17039
965.389,1.307679,363056,17877
969.185,1.315228,373162,18058
972.976,1.310104,382632,18736
976.763,1.319840,391202,18731
981.806,1.305535,400190,19803
985.583,1.312613,406088,19770
989.355,1.301074,410162,20506
993.124,1.314282,412868,20023
996.888,1.311882,414263,20202
1000.65,1.306369,415476,20520
1004.4,1.307580,415479,20463
1009.41,1.312304,414358,20187
1013.15,1.314231,412923,20028
1016.89,1.311028,411526,20108
1020.63,1.310134,409066,20029
1024.36,1.307675,406777,20030
1028.09,1.312021,404427,19716
1031.82,1.322528,401911,19125
1036.78,1.315336,398410,19275
1040.49,1.312272,396204,19304
1044.2,1.309165,394236,19346
1047.91,1.298029,392042,19738
1051.61,1.313121,389823,18956
1055.31,1.319487,388234,18604
1059,1.311324,387599,18926
1063.92,1.307443,386688,19051
1067.61,1.321240,386598,18451
1071.29,1.307328,387377,19090
1074.96,1.314005,388536,18855
1078.63,1.318134,389855,18740
1082.3,1.313570,391215,19004
1085.96,1.321559,393215,18753
1090.84,1.316821,396270,19106
1094.49,1.317343,398760,19203
1098.14,1.319897,400987,19197
1101.79,1.309373,403477,19790
1105.43,1.317148,406116,19566
1109.06,1.322540,407701,19400
1112.7,1.322221,409859,19517
1117.53,1.323561,412494,19582
1121.15,1.327206,414909,19532
1124.77,1.313981,416559,20216
1128.38,1.309657,418532,20515
1131.99,1.328297,419956,19720
1135.6,1.319884,421946,20201
1139.2,1.320133,423881,20282
1143.99,1.324837,426786,20201
1147.58,1.327859,428617,20147
1151.17,1.326425,431169,20334
1154.75,1.320888,433579,20710
1158.33,1.328589,436264,20472
1161.91,1.311391,439132,21439
1165.48,1.317139,442389,21314
1169.04,1.318107,446101,21445
1173.79,1.323137,451929,21475
1177.34,1.316646,456026,21996
1180.9,1.320581,461306,22050
1184.44,1.325378,467657,22108
1187.99,1.322931,473969,22533
1191.52,1.321067,479856,22911
1195.06,1.323985,487372,23114
1199.76,1.326535,497347,23449
1203.29,1.327254,504311,23738
1206.81,1.322513,511507,24341
1210.33,1.336127,519078,23939
1213.84,1.325501,527163,24914
1217.35,1.327933,534208,25106
1220.85,1.326029,540472,25512
1225.51,1.325467,549929,25992
1229.01,1.320168,556888,26644
1232.5,1.325255,562180,26584
1235.98,1.328029,567975,26687
1239.46,1.323032,574815,27321
1242.94,1.324975,582782,27576
1246.41,1.324082,591476,28045
1251.03,1.328342,604016,28360
1254.5,1.324993,612289,28971
1257.96,1.329186,619125,29013
1261.41,1.330334,624551,29190
1264.86,1.329715,629900,29482
1268.31,1.328255,634345,29790
1271.75,1.325176,638574,30202
1276.33,1.337080,642499,29566
1279.76,1.330896,645905,30149
1283.19,1.337302,648307,29818
1286.61,1.329824,650446,30436
1290.03,1.331834,652132,30374
1293.44,1.330164,653907,30574
1296.85,1.330081,655963,30676
1301.39,1.330842,657349,30687
1304.8,1.337395,657558,30237
1308.19,1.332234,658515,30643
1311.58,1.332453,658804,30641
1314.97,1.336519,659011,30365
1318.36,1.337493,658272,30263
1321.73,1.335195,658022,30412
1326.23,1.337975,657870,30211
1329.6,1.333621,656482,30451
1332.97,1.331039,654926,30560
1336.33,1.332566,653727,30397
1339.69,1.336055,652497,30097
1343.04,1.336342,649913,29958
1346.39,1.329897,647671,30301
1349.73,1.331943,645338,30050
1354.18,1.333125,641175,29775
1357.52,1.330161,638376,29848
1360.85,1.332003,635805,29602
1364.17,1.329985,633413,29628
1367.49,1.329078,631026,29578
1370.81,1.328349,628050,29488
1374.12,1.332354,625034,29077
1378.54,1.328346,620272,29123
1381.84,1.332994,616892,28656
1385.14,1.331104,613613,28628
1388.43,1.322358,611526,29111
1391.72,1.332759,610663,28382
1395.01,1.321455,610634,29129
1398.29,1.335366,611700,28260
1402.66,1.328269,614051,28836
1405.93,1.335047,616268,28492
1409.2,1.336457,617795,28470
1412.46,1.331982,618872,28815
1415.72,1.335503,619795,28625
1418.98,1.326984,620495,29225
1422.23,1.331264,621087,28966
1426.56,1.330477,621375,29032
1429.8,1.334522,621616,28774
1433.04,1.326450,622129,29338
1436.27,1.335139,621526,28729
1439.5,1.330683,621113,29006
1442.72,1.334928,620921,28715
1445.94,1.336640,620270,28572
1450.23,1.335500,618860,28582
1453.44,1.333575,617697,28655
1456.64,1.331628,616264,28717
1459.85,1.340326,614413,28063
1463.04,1.338943,612307,28056
1466.24,1.346099,610032,27495
1469.43,1.345954,607345,27383
1473.67,1.342200,603789,27459
1476.85,1.333085,601175,27920
1480.02,1.337367,597737,27488
1483.19,1.344820,594479,26873
1486.36,1.340233,591232,27010
1489.52,1.343881,587853,26631
1492.68,1.338720,583875,26767
1496.89,1.341755,578062,26316
1500.03,1.370398,574159,24470
1503.18,1.342072,570285,25943
1506.32,1.341292,565444,25769
1509.45,1.338714,560571,25699
1512.58,1.341814,555821,25300
1515.71,1.338958,550344,25216
1519.87,1.341431,543983,24783
1522.99,1.335164,538764,24902
1526.1,1.341684,533692,24300
1529.21,1.340590,527902,24097
1532.32,1.331701,521886,24315
1535.42,1.340878,515888,23533
1538.51,1.341772,509987,23216
1541.6,1.341177,503936,22972
1545.72,1.334938,494694,22877
1548.8,1.347876,488378,21922
1551.88,1.335488,481832,22254
1554.95,1.345013,474989,21462
1558.02,1.334238,467818,21669
1561.08,1.333317,460730,21386
1564.15,1.339468,454170,20785
1568.22,1.340578,444181,20276
1571.27,1.340312,436947,19958
1574.32,1.344992,429598,19412
1577.36,1.350918,422039,18812
1580.4,1.340886,414375,18902
1583.43,1.337970,406354,18661
1586.46,1.343515,398475,18067
1590.49,1.332851,388982,18075
1593.51,1.335425,380708,17586
1596.53,1.330069,372727,17431
1599.54,1.335532,365060,16859
1602.55,1.335897,357543,16498
1605.55,1.327936,349495,16425
1608.55,1.336857,341154,15707
1612.54,1.322772,330877,15736
1615.53,1.319387,322904,15477
1618.51,1.325722,315116,14885
1621.49,1.332839,307217,14276
1624.47,1.320608,299481,14314
1627.44,1.319390,292112,14001
1630.41,1.341356,284245,12952
1634.36,1.332127,274079,12757
1637.32,1.318690,266916,12814
1640.27,1.318737,259612,12462
1643.22,1.324823,251804,11919
1646.16,1.313924,244348,11860
1649.1,1.322897,236703,11254
1652.04,1.312703,228171,11106
1655.95,1.337407,215408,9905
1658.88,1.324983,204937,9697
1661.8,1.334525,193395,8952
1664.72,1.332877,179728,8351
1667.63,1.344546,163642,7402
1670.54,1.347913,146312,6567
1673.44,1.339656,128451,5876
1677.31,1.331679,105080,4896
1680.21,1.389503,88906,3626
1683.1,1.346850,75033,3376
1685.99,1.363420,63520,2751
1688.87,1.342876,53714,2439
1691.75,1.371444,45653,1941
1694.62,1.413036,39137,1512
1697.49,1.341934,33776,1537
1701.31,1.371407,28175,1198

File: Column 1_078030_20241121_164203.csv
Method:,Column 1,,
Host Date-Time:,21/11/24 @ 16:42:3,,
Header Version:,1,,
System Temp (C):,30.17,,
Detector Temp (C):,25.06,,
Humidity (%):,6.24,,
Lamp PD:,3812,,
Shift Vector Coefficients:,-10.5391,0.0761263,-0.000134223,,
Pixel to Wavelength Coefficients:,1775.68,-0.916766,-0.000235065,,
Serial Number:,5510004,,
Scan Config Name:,Column 1,,
Scan Config Type:,Slew,,
Section 1,,
Start wavelength (nm):,900,,
End wavelength (nm):,1700,,
Pattern Pixel Width (nm):,   7.03,,,,
Exposure (ms):,  0.635,,,,
Digital Resolution:,228,,
Num Repeats:,6,,
PGA Gain:,64,,
Total Measurement Time in sec:,  2.733,,
Wavelength (nm),Absorbance (AU),Reference Signal (unitless),Sample Signal (unitless)
901.51,1.324407,108485,5140
905.376,1.304286,121306,6020
909.237,1.334802,131909,6102
913.095,1.316263,143299,6918
916.948,1.304312,156982,7790
922.079,1.296796,179937,9085
925.923,1.306269,200504,9905
929.762,1.332450,222660,10356
933.597,1.323278,244426,11611
937.427,1.324439,263972,12506
941.254,1.318328,281845,13542
945.076,1.314790,297271,14400
950.165,1.312498,315605,15369
953.978,1.309032,328029,16102
957.786,1.313255,340470,16551
961.59,1.312391,352317,17161
965.389,1.312934,363056,17662
969.185,1.313428,373162,18133
972.976,1.303845,382632,19008
976.763,1.308196,391202,19240
981.806,1.314688,400190,19390
985.583,1.312613,406088,19770
989.355,1.320633,410162,19603
993.124,1.319431,412868,19787
996.888,1.312420,414263,20177
1000.65,1.309193,415476,20387
1004.4,1.317085,415479,20020
1009.41,1.306428,414358,20462
1013.15,1.308287,412923,20304
1016.89,1.313237,411526,20006
1020.63,1.313421,409066,19878
1024.36,1.304392,406777,20182
1028.09,1.309342,404427,19838
1031.82,1.309906,401911,19689
1036.78,1.319797,398410,19078
1040.49,1.310184,396204,19397
1044.2,1.310266,394236,19297
1047.91,1.319660,392042,18779
1051.61,1.315648,389823,18846
1055.31,1.304573,388234,19254
1059,1.316262,387599,18712
1063.92,1.308470,386688,19006
1067.61,1.317910,386598,18593
1071.29,1.306828,387377,19112
1074.96,1.318566,388536,18658
1078.63,1.306247,389855,19260
1082.3,1.311951,391215,19075
1085.96,1.307927,393215,19351
1090.84,1.319672,396270,18981
1094.49,1.314704,398760,19320
1098.14,1.320553,400987,19168
1101.79,1.324127,403477,19129
1105.43,1.319641,406116,19454
1109.06,1.313457,407701,19810
1112.7,1.323782,409859,19447
1117.53,1.318270,412494,19822
1121.15,1.322276,414909,19755
1124.77,1.305577,416559,20611
1128.38,1.316571,418532,20191
1131.99,1.323500,419956,19939
1135.6,1.329075,421946,19778
1139.2,1.323832,423881,20110
1143.99,1.320942,426786,20383
1147.58,1.319279,428617,20549
1151.17,1.310509,431169,21093
1154.75,1.318713,433579,20814
1158.33,1.320019,436264,20880
1161.91,1.322927,439132,20877
1165.48,1.312035,442389,21566
1169.04,1.315986,446101,21550
1173.79,1.321140,451929,21574
1177.34,1.320553,456026,21799
1180.9,1.322812,461306,21937
1184.44,1.328493,467657,21950
1187.99,1.320567,473969,22656
1191.52,1.322073,479856,22858
1195.06,1.318404,487372,23413
1199.76,1.322920,497347,23645
1203.29,1.325593,504311,23829
1206.81,1.322228,511507,24357
1210.33,1.321780,519078,24743
1213.84,1.324579,527163,24967
1217.35,1.324401,534208,25311
1220.85,1.321490,540472,25780
1225.51,1.324949,549929,26023
1229.01,1.329211,556888,26095
1232.5,1.322389,562180,26760
1235.98,1.322098,567975,27054
1239.46,1.324369,574815,27237
1242.94,1.326474,582782,27481
1246.41,1.324655,591476,28008
1251.03,1.332079,604016,28117
1254.5,1.323452,612289,29074
1257.96,1.324037,619125,29359
1261.41,1.325025,624551,29549
1264.86,1.330009,629900,29462
1268.31,1.332607,634345,29493
1271.75,1.333406,638574,29635
1276.33,1.330505,642499,30017
1279.76,1.328096,645905,30344
1283.19,1.330094,648307,30317
1286.61,1.325903,650446,30712
1290.03,1.331648,652132,30387
1293.44,1.329695,653907,30607
1296.85,1.330236,655963,30665
1301.39,1.332117,657349,30597
1304.8,1.331645,657558,30640
1308.19,1.334394,658515,30491
1311.58,1.330855,658804,30754
1314.97,1.337393,659011,30304
1318.36,1.333494,658272,30543
1321.73,1.332789,658022,30581
1326.23,1.338450,657870,30178
1329.6,1.331047,656482,30632
1332.97,1.335252,654926,30265
1336.33,1.334341,653727,30273
1339.69,1.330863,652497,30459
1343.04,1.333337,649913,30166
1346.39,1.333192,647671,30072
1349.73,1.330976,645338,30117
1354.18,1.330841,641175,29932
1357.52,1.325501,638376,30170
1360.85,1.325971,635805,30016
1364.17,1.329443,633413,29665
1367.49,1.331567,631026,29409
1370.81,1.331038,628050,29306
1374.12,1.333087,625034,29028
1378.54,1.326323,620272,29259
1381.84,1.335242,616892,28508
1385.14,1.331210,613613,28621
1388.43,1.331555,611526,28501
1391.72,1.329496,610663,28596
1395.01,1.331226,610634,28481
1398.29,1.328445,611700,28714
1402.66,1.331459,614051,28625
1405.93,1.335199,616268,28482
1409.2,1.329451,617795,28933
1412.46,1.332480,618872,28782
1415.72,1.333671,619795,28746
1418.98,1.339925,620495,28367
1422.23,1.336301,621087,28632
1426.56,1.337687,621375,28554
1429.8,1.343828,621616,28164
1433.04,1.337894,622129,28575
1436.27,1.332171,621526,28926
1439.5,1.336091,621113,28647
1442.72,1.338862,620921,28456
1445.94,1.333249,620270,28796
1450.23,1.340697,618860,28242
1453.44,1.337228,617697,28415
1456.64,1.337015,616264,28363
1459.85,1.335035,614413,28407
1463.04,1.339083,612307,28047
1466.24,1.339577,610032,27911
1469.43,1.337785,607345,27903
1473.67,1.338296,603789,27707
1476.85,1.338722,601175,27560
1480.02,1.339283,597737,27367
1483.19,1.341873,594479,27056
1486.36,1.337381,591232,27188
1489.52,1.340438,587853,26843
1492.68,1.339760,583875,26703
1496.89,1.338794,578062,26496
1500.03,1.342042,574159,26121
1503.18,1.341921,570285,25952
1506.32,1.340938,565444,25790
1509.45,1.341614,560571,25528
1512.58,1.332895,555821,25825
1515.71,1.336862,550344,25338
1519.87,1.342467,543983,24724
1522.99,1.338983,538764,24684
1526.1,1.332069,533692,24844
1529.21,1.342595,527902,23986
1532.32,1.348341,521886,23401
1535.42,1.341709,515888,23488
1538.51,1.358243,509987,22352
1541.6,1.340553,503936,23005
1545.72,1.334406,494694,22905
1548.8,1.338566,488378,22397
1551.88,1.331022,481832,22484
1554.95,1.339544,474989,21734
1558.02,1.336408,467818,21561
1561.08,1.334598,460730,21323
1564.15,1.340096,454170,20755
1568.22,1.336994,444181,20444
1571.27,1.334691,436947,20218
1574.32,1.333402,429598,19937
1577.36,1.337842,422039,19387
1580.4,1.327092,414375,19512
1583.43,1.336065,406354,18743
1586.46,1.334781,398475,18434
1590.49,1.332779,388982,18078
1593.51,1.332030,380708,17724
1596.53,1.328353,372727,17500
1599.54,1.330895,365060,17040
1602.55,1.339094,357543,16377
1605.55,1.333417,349495,16219
1608.55,1.321963,341154,16255
1612.54,1.336910,330877,15232
1615.53,1.336704,322904,14872
1618.51,1.330681,315116,14716
1621.49,1.332595,307217,14284
1624.47,1.309288,299481,14692
1627.44,1.327752,292112,13734
1630.41,1.331870,284245,13238
1634.36,1.315955,274079,13241
1637.32,1.319980,266916,12776
1640.27,1.324384,259612,12301
1643.22,1.312749,251804,12255
1646.16,1.339450,244348,11183
1649.1,1.325335,236703,11191
1652.04,1.328228,228171,10716
1655.95,1.319961,215408,10311
1658.88,1.317523,204937,9865
1661.8,1.334671,193395,8949
1664.72,1.339374,179728,8227
1667.63,1.324145,163642,7758
1670.54,1.318263,146312,7031
1673.44,1.342622,128451,5836
1677.31,1.327793,105080,4940
1680.21,1.391304,88906,3611
1683.1,1.336804,75033,3455
1685.99,1.380157,63520,2647
1688.87,1.384714,53714,2215
1691.75,1.363682,45653,1976
1694.62,1.370652,39137,1667
1697.49,1.347909,33776,1516
1701.31,1.472140,28175,950

File: Column 1_078031_20241121_164206.csv
Method:,Column 1,,
Host Date-Time:,21/11/24 @ 16:42:6,,
Header Version:,1,,
System Temp (C):,30.22,,
Detector Temp (C):,25.11,,
Humidity (%):,6.19,,
Lamp PD:,3812,,
Shift Vector Coefficients:,-10.5391,0.0761263,-0.000134223,,
Pixel to Wavelength Coefficients:,1775.68,-0.916766,-0.000235065,,
Serial Number:,5510004,,
Scan Config Name:,Column 1,,
Scan Config Type:,Slew,,
Section 1,,
Start wavelength (nm):,900,,
End wavelength (nm):,1700,,
Pattern Pixel Width (nm):,   7.03,,,,
Exposure (ms):,  0.635,,,,
Digital Resolution:,228,,
Num Repeats:,6,,
PGA Gain:,64,,
Total Measurement Time in sec:,  2.706,,
Wavelength (nm),Absorbance (AU),Reference Signal (unitless),Sample Signal (unitless)
901.51,1.318282,108485,5213
905.376,1.317172,121306,5844
909.237,1.288341,131909,6791
913.095,1.306271,143299,7079
916.948,1.330213,156982,7339
922.079,1.318004,179937,8652
925.923,1.287771,200504,10336
929.762,1.309380,222660,10921
933.597,1.315456,244426,11822
937.427,1.314789,263972,12787
941.254,1.312435,281845,13727
945.076,1.312954,297271,14461
950.165,1.304907,315605,15640
953.978,1.310952,328029,16031
957.786,1.305866,340470,16835
961.59,1.307234,352317,17366
965.389,1.310726,363056,17752
969.185,1.309779,373162,18286
972.976,1.307839,382632,18834
976.763,1.300966,391202,19563
981.806,1.307624,400190,19708
985.583,1.298671,406088,20415
989.355,1.299405,410162,20585
993.124,1.300513,412868,20668
996.888,1.312183,414263,20188
1000.65,1.308660,415476,20412
1004.4,1.305399,415479,20566
1009.41,1.301468,414358,20697
1013.15,1.308694,412923,20285
1016.89,1.306388,411526,20324
1020.63,1.316556,409066,19735
1024.36,1.308326,406777,20000
1028.09,1.310636,404427,19779
1031.82,1.312961,401911,19551
1036.78,1.305776,398410,19704
1040.49,1.312429,396204,19297
1044.2,1.308761,394236,19364
1047.91,1.307708,392042,19303
1051.61,1.310859,389823,19055
1055.31,1.317554,388234,18687
1059,1.300223,387599,19416
1063.92,1.310761,386688,18906
1067.61,1.303348,386598,19227
1071.29,1.311856,387377,18892
1074.96,1.313360,388536,18883
1078.63,1.323004,389855,18531
1082.3,1.311996,391215,19073
1085.96,1.321374,393215,18761
1090.84,1.312186,396270,19311
1094.49,1.316078,398760,19259
1098.14,1.317483,400987,19304
1101.79,1.311264,403477,19704
1105.43,1.310955,406116,19847
1109.06,1.319684,407701,19528
1112.7,1.318036,409859,19706
1117.53,1.311250,412494,20145
1121.15,1.320105,414909,19854
1124.77,1.319320,416559,19969
1128.38,1.320351,418532,20016
1131.99,1.322478,419956,19986
1135.6,1.325684,421946,19933
1139.2,1.318168,423881,20374
1143.99,1.327144,426786,20094
1147.58,1.313776,428617,20811
1151.17,1.325763,431169,20365
1154.75,1.319318,433579,20785
1158.33,1.306080,436264,21561
1161.91,1.312181,439132,21400
1165.48,1.318139,442389,21265
1169.04,1.315744,446101,21562
1173.79,1.311524,451929,22057
1177.34,1.318962,456026,21879
1180.9,1.317891,461306,22187
1184.44,1.325005,467657,22127
1187.99,1.317187,473969,22833
1191.52,1.309323,479856,23539
1195.06,1.321363,487372,23254
1199.76,1.329938,497347,23266
1203.29,1.320573,504311,24106
1206.81,1.320679,511507,24444
1210.33,1.315870,519078,25082
1213.84,1.324248,527163,24986
1217.35,1.321255,534208,25495
1220.85,1.320481,540472,25840
1225.51,1.323766,549929,26094
1229.01,1.326589,556888,26253
1232.5,1.320996,562180,26846
1235.98,1.319680,567975,27205
1239.46,1.322888,574815,27330
1242.94,1.322165,582782,27755
1246.41,1.320227,591476,28295
1251.03,1.322471,604016,28746
1254.5,1.321886,612289,29179
1257.96,1.330670,619125,28914
1261.41,1.325613,624551,29509
1264.86,1.324953,629900,29807
1268.31,1.321758,634345,30239
1271.75,1.326327,638574,30122
1276.33,1.326000,642499,30330
1279.76,1.329845,645905,30222
1283.19,1.326187,648307,30591
1286.61,1.323084,650446,30912
1290.03,1.329822,652132,30515
1293.44,1.328378,653907,30700
1296.85,1.329331,655963,30729
1301.39,1.329542,657349,30779
1304.8,1.332042,657558,30612
1308.19,1.328734,658515,30891
1311.58,1.330093,658804,30808
1314.97,1.324223,659011,31237
1318.36,1.333167,658272,30566
1321.73,1.331824,658022,30649
1326.23,1.327999,657870,30913
1329.6,1.330665,656482,30659
1332.97,1.325504,654926,30952
1336.33,1.330428,653727,30547
1339.69,1.332262,652497,30361
1343.04,1.334505,649913,30085
1346.39,1.331161,647671,30213
1349.73,1.330111,645338,30177
1354.18,1.329971,641175,29992
1357.52,1.330700,638376,29811
1360.85,1.331270,635805,29652
1364.17,1.328083,633413,29758
1367.49,1.326838,631026,29731
1370.81,1.332002,628050,29241
1374.12,1.325552,625034,29536
1378.54,1.326352,620272,29257
1381.84,1.324692,616892,29209
1385.14,1.326231,613613,28951
1388.43,1.325818,611526,28880
1391.72,1.324348,610663,28937
1395.01,1.325816,610634,28838
1398.29,1.331770,611700,28495
1402.66,1.335759,614051,28343
1405.93,1.333966,616268,28563
1409.2,1.335436,617795,28537
1412.46,1.330883,618872,28888
1415.72,1.335305,619795,28638
1418.98,1.326553,620495,29254
1422.23,1.336908,621087,28592
1426.56,1.330731,621375,29015
1429.8,1.335141,621616,28733
1433.04,1.336029,622129,28698
1436.27,1.335169,621526,28727
1439.5,1.337093,621113,28581
1442.72,1.333327,620921,28821
1445.94,1.335714,620270,28633
1450.23,1.339101,618860,28346
1453.44,1.333954,617697,28630
1456.64,1.330933,616264,28763
1459.85,1.329626,614413,28763
1463.04,1.337028,612307,28180
1466.24,1.334257,610032,28255
1469.43,1.334204,607345,28134
1473.67,1.335982,603789,27855
1476.85,1.330867,601175,28063
1480.02,1.340332,597737,27301
1483.19,1.340335,594479,27152
1486.36,1.335945,591232,27278
1489.52,1.332169,587853,27359
1492.68,1.326577,583875,27526
1496.89,1.343756,578062,26195
1500.03,1.330914,574159,26799
1503.18,1.333108,570285,26484
1506.32,1.347265,565444,25417
1509.45,1.339950,560571,25626
1512.58,1.335577,555821,25666
1515.71,1.336845,550344,25339
1519.87,1.337697,543983,24997
1522.99,1.340234,538764,24613
1526.1,1.341756,533692,24296
1529.21,1.337036,527902,24295
1532.32,1.334892,521886,24137
1535.42,1.335176,515888,23844
1538.51,1.338510,509987,23391
1541.6,1.332696,503936,23425
1545.72,1.333592,494694,22948
1548.8,1.334878,488378,22588
1551.88,1.334163,481832,22322
1554.95,1.333866,474989,22020
1558.02,1.336791,467818,21542
1561.08,1.342657,460730,20931
1564.15,1.336761,454170,20915
1568.22,1.328579,444181,20844
1571.27,1.337254,436947,20099
1574.32,1.343340,429598,19486
1577.36,1.337170,422039,19417
1580.4,1.332918,414375,19252
1583.43,1.330494,406354,18985
1586.46,1.334946,398475,18427
1590.49,1.329214,388982,18227
1593.51,1.328832,380708,17855
1596.53,1.324843,372727,17642
1599.54,1.329292,365060,17103
1602.55,1.326213,357543,16870
1605.55,1.328412,349495,16407
1608.55,1.313497,341154,16575
1612.54,1.328020,330877,15547
1615.53,1.316005,322904,15598
1618.51,1.321714,315116,15023
1621.49,1.323658,307217,14581
1624.47,1.306812,299481,14776
1627.44,1.340101,292112,13349
1630.41,1.311742,284245,13866
1634.36,1.320207,274079,13112
1637.32,1.319233,266916,12798
1640.27,1.327431,259612,12215
1643.22,1.327784,251804,11838
1646.16,1.310714,244348,11948
1649.1,1.327475,236703,11136
1652.04,1.318529,228171,10958
1655.95,1.328854,215408,10102
1658.88,1.312707,204937,9975
1661.8,1.308402,193395,9507
1664.72,1.298688,179728,9035
1667.63,1.323865,163642,7763
1670.54,1.331750,146312,6816
1673.44,1.302625,128451,6399
1677.31,1.354067,105080,4650
1680.21,1.334561,88906,4115
1683.1,1.291261,75033,3837
1685.99,1.264714,63520,3453
1688.87,1.350238,53714,2398
1691.75,1.311749,45653,2227
1694.62,1.289175,39137,2011
1697.49,1.326665,33776,1592
1701.31,1.328304,28175,1323