Folder: textile_sorting_NIRSCAN_/samples/unknown (part 17)

File: Column 1_078091_20241121_164502.csv
Method:,Column 1,,
Host Date-Time:,21/11/24 @ 16:45:2,,
Header Version:,1,,
System Temp (C):,32.06,,
Detector Temp (C):,27.13,,
Humidity (%):,4.4,,
Lamp PD:,3808,,
Shift Vector Coefficients:,-10.5391,0.0761263,-0.000134223,,
Pixel to Wavelength Coefficients:,1775.68,-0.916766,-0.000235065,,
Serial Number:,5510004,,
Scan Config Name:,Column 1,,
Scan Config Type:,Slew,,
Section 1,,
Start wavelength (nm):,900,,
End wavelength (nm):,1700,,
Pattern Pixel Width (nm):,   7.03,,,,
Exposure (ms):,  0.635,,,,
Digital Resolution:,228,,
Num Repeats:,6,,
PGA Gain:,64,,
Total Measurement Time in sec:,  2.719,,
Wavelength (nm),Absorbance (AU),Reference Signal (unitless),Sample Signal (unitless)
901.51,1.334493,108485,5022
905.376,1.332449,121306,5642
909.237,1.305162,131909,6533
913.095,1.297766,143299,7219
916.948,1.327264,156982,7389
922.079,1.298280,179937,9054
925.923,1.316382,200504,9677
929.762,1.310774,222660,10886
933.597,1.317186,244426,11775
937.427,1.319399,263972,12652
941.254,1.305530,281845,13947
945.076,1.306072,297271,14692
950.165,1.305435,315605,15621
953.978,1.310979,328029,16030
957.786,1.297233,340470,17173
961.59,1.311052,352317,17214
965.389,1.306539,363056,17924
969.185,1.296609,373162,18849
972.976,1.301702,382632,19102
976.763,1.311254,391202,19105
981.806,1.301193,400190,20002
985.583,1.307981,406088,19982
989.355,1.306874,410162,20234
993.124,1.310718,412868,20188
996.888,1.307603,414263,20402
1000.65,1.304426,415476,20612
1004.4,1.305294,415479,20571
1009.41,1.305135,414358,20523
1013.15,1.316209,412923,19937
1016.89,1.305385,411526,20371
1020.63,1.302376,409066,20390
1024.36,1.306874,406777,20067
1028.09,1.313433,404427,19652
1031.82,1.307070,401911,19818
1036.78,1.309317,398410,19544
1040.49,1.297063,396204,19992
1044.2,1.304254,394236,19566
1047.91,1.311867,392042,19119
1051.61,1.309652,389823,19108
1055.31,1.297858,388234,19554
1059,1.318636,387599,18610
1063.92,1.302321,386688,19277
1067.61,1.313125,386598,18799
1071.29,1.312730,387377,18854
1074.96,1.308967,388536,19075
1078.63,1.306563,389855,19246
1082.3,1.315471,391215,18921
1085.96,1.312507,393215,19148
1090.84,1.311917,396270,19323
1094.49,1.324802,398760,18876
1098.14,1.308796,400987,19694
1101.79,1.308606,403477,19825
1105.43,1.320736,406116,19405
1109.06,1.311336,407701,19907
1112.7,1.330556,409859,19146
1117.53,1.315366,412494,19955
1121.15,1.312924,414909,20185
1124.77,1.325806,416559,19673
1128.38,1.315196,418532,20255
1131.99,1.318390,419956,20175
1135.6,1.323056,421946,20054
1139.2,1.321871,423881,20201
1143.99,1.307825,426786,21008
1147.58,1.320231,428617,20504
1151.17,1.318237,431169,20721
1154.75,1.312251,433579,21126
1158.33,1.323192,436264,20728
1161.91,1.325619,439132,20748
1165.48,1.315370,442389,21401
1169.04,1.311675,446101,21765
1173.79,1.321361,451929,21563
1177.34,1.313675,456026,22147
1180.9,1.313683,461306,22403
1184.44,1.316588,467657,22560
1187.99,1.314287,473969,22986
1191.52,1.320385,479856,22947
1195.06,1.318979,487372,23382
1199.76,1.316647,497347,23989
1203.29,1.325957,504311,23809
1206.81,1.321035,511507,24424
1210.33,1.321956,519078,24733
1213.84,1.326863,527163,24836
1217.35,1.323493,534208,25364
1220.85,1.323618,540472,25654
1225.51,1.327745,549929,25856
1229.01,1.326341,556888,26268
1232.5,1.321660,562180,26805
1235.98,1.324609,567975,26898
1239.46,1.322222,574815,27372
1242.94,1.319466,582782,27928
1246.41,1.320734,591476,28262
1251.03,1.324136,604016,28636
1254.5,1.328288,612289,28752
1257.96,1.321618,619125,29523
1261.41,1.329234,624551,29264
1264.86,1.324997,629900,29804
1268.31,1.329247,634345,29722
1271.75,1.329991,638574,29869
1276.33,1.331012,642499,29982
1279.76,1.327252,645905,30403
1283.19,1.327780,648307,30479
1286.61,1.332113,650446,30276
1290.03,1.330805,652132,30446
1293.44,1.335754,653907,30183
1296.85,1.328752,655963,30770
1301.39,1.327641,657349,30914
1304.8,1.330923,657558,30691
1308.19,1.328509,658515,30907
1311.58,1.327913,658804,30963
1314.97,1.330145,659011,30814
1318.36,1.337623,658272,30254
1321.73,1.327075,658022,30986
1326.23,1.327943,657870,30917
1329.6,1.332596,656482,30523
1332.97,1.334463,654926,30320
1336.33,1.337465,653727,30056
1339.69,1.330549,652497,30481
1343.04,1.330754,649913,30346
1346.39,1.338072,647671,29736
1349.73,1.329881,645338,30193
1354.18,1.330855,641175,29931
1357.52,1.333535,638376,29617
1360.85,1.328816,635805,29820
1364.17,1.324913,633413,29976
1367.49,1.326385,631026,29762
1370.81,1.331008,628050,29308
1374.12,1.329733,625034,29253
1378.54,1.326991,620272,29214
1381.84,1.329883,616892,28862
1385.14,1.327297,613613,28880
1388.43,1.327520,611526,28767
1391.72,1.335075,610663,28231
1395.01,1.327521,610634,28725
1398.29,1.329353,611700,28654
1402.66,1.334550,614051,28422
1405.93,1.331615,616268,28718
1409.2,1.331557,617795,28793
1412.46,1.331064,618872,28876
1415.72,1.329790,619795,29004
1418.98,1.333120,620495,28815
1422.23,1.330290,621087,29031
1426.56,1.334308,621375,28777
1429.8,1.336762,621616,28626
1433.04,1.331183,622129,29020
1436.27,1.333886,621526,28812
1439.5,1.338951,621113,28459
1442.72,1.335806,620921,28657
1445.94,1.335684,620270,28635
1450.23,1.334377,618860,28656
1453.44,1.329577,617697,28920
1456.64,1.337950,616264,28302
1459.85,1.337442,614413,28250
1463.04,1.340525,612307,27954
1466.24,1.328334,610032,28643
1469.43,1.336448,607345,27989
1473.67,1.331453,603789,28147
1476.85,1.333194,601175,27913
1480.02,1.337193,597737,27499
1483.19,1.339456,594479,27207
1486.36,1.335230,591232,27323
1489.52,1.334444,587853,27216
1492.68,1.330698,583875,27266
1496.89,1.339434,578062,26457
1500.03,1.333645,574159,26631
1503.18,1.336516,570285,26277
1506.32,1.336615,565444,26048
1509.45,1.336136,560571,25852
1512.58,1.336000,555821,25641
1515.71,1.338046,550344,25269
1519.87,1.339246,543983,24908
1522.99,1.331344,538764,25122
1526.1,1.337841,533692,24516
1529.21,1.337555,527902,24266
1532.32,1.342351,521886,23726
1535.42,1.339000,515888,23635
1538.51,1.338975,509987,23366
1541.6,1.332807,503936,23419
1545.72,1.332175,494694,23023
1548.8,1.340471,488378,22299
1551.88,1.337385,481832,22157
1554.95,1.338227,474989,21800
1558.02,1.338953,467818,21435
1561.08,1.336333,460730,21238
1564.15,1.330473,454170,21220
1568.22,1.338676,444181,20365
1571.27,1.334841,436947,20211
1574.32,1.337693,429598,19741
1577.36,1.334250,422039,19548
1580.4,1.333256,414375,19237
1583.43,1.334077,406354,18829
1586.46,1.329396,398475,18664
1590.49,1.340315,388982,17767
1593.51,1.333724,380708,17655
1596.53,1.338674,372727,17089
1599.54,1.328201,365060,17146
1602.55,1.330430,357543,16707
1605.55,1.323568,349495,16591
1608.55,1.331226,341154,15912
1612.54,1.329503,330877,15494
1615.53,1.330413,322904,15089
1618.51,1.321165,315116,15042
1621.49,1.319449,307217,14723
1624.47,1.337120,299481,13780
1627.44,1.319359,292112,14002
1630.41,1.328863,284245,13330
1634.36,1.318818,274079,13154
1637.32,1.312732,266916,12991
1640.27,1.324243,259612,12305
1643.22,1.327015,251804,11859
1646.16,1.324525,244348,11574
1649.1,1.310870,236703,11570
1652.04,1.305836,228171,11283
1655.95,1.328425,215408,10112
1658.88,1.312838,204937,9972
1661.8,1.310554,193395,9460
1664.72,1.285246,179728,9319
1667.63,1.320410,163642,7825
1670.54,1.335848,146312,6752
1673.44,1.296894,128451,6484
1677.31,1.277305,105080,5549
1680.21,1.300864,88906,4447
1683.1,1.265338,75033,4073
1685.99,1.283739,63520,3305
1688.87,1.293130,53714,2735
1691.75,1.283806,45653,2375
1694.62,1.323542,39137,1858
1697.49,1.320167,33776,1616
1701.31,1.336924,28175,1297

File: Column 1_078094_20241121_164510.csv
Method:,Column 1,,
Host Date-Time:,21/11/24 @ 16:45:10,,
Header Version:,1,,
System Temp (C):,32.11,,
Detector Temp (C):,27.21,,
Humidity (%):,4.3,,
Lamp PD:,3808,,
Shift Vector Coefficients:,-10.5391,0.0761263,-0.000134223,,
Pixel to Wavelength Coefficients:,1775.68,-0.916766,-0.000235065,,
Serial Number:,5510004,,
Scan Config Name:,Column 1,,
Scan Config Type:,Slew,,
Section 1,,
Start wavelength (nm):,900,,
End wavelength (nm):,1700,,
Pattern Pixel Width (nm):,   7.03,,,,
Exposure (ms):,  0.635,,,,
Digital Resolution:,228,,
Num Repeats:,6,,
PGA Gain:,64,,
Total Measurement Time in sec:,  2.705,,
Wavelength (nm),Absorbance (AU),Reference Signal (unitless),Sample Signal (unitless)
901.51,1.305557,108485,5368
905.376,1.329152,121306,5685
909.237,1.322315,131909,6280
913.095,1.347965,143299,6431
916.948,1.317788,156982,7552
922.079,1.322089,179937,8571
925.923,1.315396,200504,9699
929.762,1.296104,222660,11260
933.597,1.329190,244426,11454
937.427,1.310161,263972,12924
941.254,1.324952,281845,13337
945.076,1.322918,297271,14133
950.165,1.316672,315605,15222
953.978,1.317778,328029,15781
957.786,1.315781,340470,16455
961.59,1.311001,352317,17216
965.389,1.307121,363056,17900
969.185,1.316432,373162,18008
972.976,1.309780,382632,18750
976.763,1.304085,391202,19423
981.806,1.303304,400190,19905
985.583,1.311385,406088,19826
989.355,1.314452,410162,19884
993.124,1.305798,412868,20418
996.888,1.315487,414263,20035
1000.65,1.316388,415476,20052
1004.4,1.306181,415479,20529
1009.41,1.312713,414358,20168
1013.15,1.309208,412923,20261
1016.89,1.314650,411526,19941
1020.63,1.318342,409066,19654
1024.36,1.309936,406777,19926
1028.09,1.309627,404427,19825
1031.82,1.303578,401911,19978
1036.78,1.317799,398410,19166
1040.49,1.305884,396204,19590
1044.2,1.316706,394236,19013
1047.91,1.313460,392042,19049
1051.61,1.311908,389823,19009
1055.31,1.304911,388234,19239
1059,1.314271,387599,18798
1063.92,1.312349,386688,18837
1067.61,1.306203,386598,19101
1071.29,1.322656,387377,18428
1074.96,1.317218,388536,18716
1078.63,1.327693,389855,18332
1082.3,1.313730,391215,18997
1085.96,1.317044,393215,18949
1090.84,1.323049,396270,18834
1094.49,1.323240,398760,18944
1098.14,1.319106,400987,19232
1101.79,1.324331,403477,19120
1105.43,1.312490,406116,19777
1109.06,1.316935,407701,19652
1112.7,1.323559,409859,19457
1117.53,1.317570,412494,19854
1121.15,1.321770,414909,19778
1124.77,1.325431,416559,19690
1128.38,1.328830,418532,19629
1131.99,1.324176,419956,19908
1135.6,1.315605,421946,20401
1139.2,1.324156,423881,20095
1143.99,1.317673,426786,20537
1147.58,1.320888,428617,20473
1151.17,1.321118,431169,20584
1154.75,1.328931,433579,20330
1158.33,1.324598,436264,20661
1161.91,1.319364,439132,21049
1165.48,1.318200,442389,21262
1169.04,1.320402,446101,21332
1173.79,1.323906,451929,21437
1177.34,1.322890,456026,21682
1180.9,1.328591,461306,21647
1184.44,1.318537,467657,22459
1187.99,1.323915,473969,22482
1191.52,1.324836,479856,22713
1195.06,1.322054,487372,23217
1199.76,1.327648,497347,23389
1203.29,1.322813,504311,23982
1206.81,1.319331,511507,24520
1210.33,1.323680,519078,24635
1213.84,1.332743,527163,24502
1217.35,1.322569,534208,25418
1220.85,1.324958,540472,25575
1225.51,1.326554,549929,25927
1229.01,1.330845,556888,25997
1232.5,1.330415,562180,26270
1235.98,1.326567,567975,26777
1239.46,1.320764,574815,27464
1242.94,1.332425,582782,27107
1246.41,1.325167,591476,27975
1251.03,1.325032,604016,28577
1254.5,1.323243,612289,29088
1257.96,1.324526,619125,29326
1261.41,1.332093,624551,29072
1264.86,1.328200,629900,29585
1268.31,1.331533,634345,29566
1271.75,1.328611,638574,29964
1276.33,1.328499,642499,30156
1279.76,1.333743,645905,29952
1283.19,1.335456,648307,29945
1286.61,1.330795,650446,30368
1290.03,1.336751,652132,30032
1293.44,1.328406,653907,30698
1296.85,1.331342,655963,30587
1301.39,1.331153,657349,30665
1304.8,1.337108,657558,30257
1308.19,1.334237,658515,30502
1311.58,1.336426,658804,30362
1314.97,1.332193,659011,30669
1318.36,1.339954,658272,30092
1321.73,1.333386,658022,30539
1326.23,1.335081,657870,30413
1329.6,1.331445,656482,30604
1332.97,1.336775,654926,30159
1336.33,1.331624,653727,30463
1339.69,1.335392,652497,30143
1343.04,1.335604,649913,30009
1346.39,1.331966,647671,30157
1349.73,1.331004,645338,30115
1354.18,1.332047,641175,29849
1357.52,1.332481,638376,29689
1360.85,1.333708,635805,29486
1364.17,1.330395,633413,29600
1367.49,1.333046,631026,29309
1370.81,1.335761,628050,28989
1374.12,1.334735,625034,28918
1378.54,1.331219,620272,28931
1381.84,1.330033,616892,28852
1385.14,1.331028,613613,28633
1388.43,1.334414,611526,28314
1391.72,1.326877,610663,28769
1395.01,1.334071,610634,28295
1398.29,1.331678,611700,28501
1402.66,1.335912,614051,28333
1405.93,1.338259,616268,28282
1409.2,1.330563,617795,28859
1412.46,1.336314,618872,28529
1415.72,1.335214,619795,28644
1418.98,1.332532,620495,28854
1422.23,1.333278,621087,28832
1426.56,1.336199,621375,28652
1429.8,1.334401,621616,28782
1433.04,1.335817,622129,28712
1436.27,1.340661,621526,28366
1439.5,1.329516,621113,29084
1442.72,1.336200,620921,28631
1445.94,1.336868,620270,28557
1450.23,1.332396,618860,28787
1453.44,1.341822,617697,28116
1456.64,1.340396,616264,28143
1459.85,1.347127,614413,27627
1463.04,1.339563,612307,28016
1466.24,1.336894,610032,28084
1469.43,1.342951,607345,27573
1473.67,1.339426,603789,27635
1476.85,1.335316,601175,27777
1480.02,1.331607,597737,27855
1483.19,1.337449,594479,27333
1486.36,1.339206,591232,27074
1489.52,1.341134,587853,26800
1492.68,1.337456,583875,26845
1496.89,1.339729,578062,26439
1500.03,1.335541,574159,26515
1503.18,1.344691,570285,25787
1506.32,1.339509,565444,25875
1509.45,1.340306,560571,25605
1512.58,1.340632,555821,25369
1515.71,1.345972,550344,24812
1519.87,1.344721,543983,24596
1522.99,1.348679,538764,24139
1526.1,1.332279,533692,24832
1529.21,1.340518,527902,24101
1532.32,1.346046,521886,23525
1535.42,1.339312,515888,23618
1538.51,1.341921,509987,23208
1541.6,1.340799,503936,22992
1545.72,1.337775,494694,22728
1548.8,1.340295,488378,22308
1551.88,1.335585,481832,22249
1554.95,1.333847,474989,22021
1558.02,1.339318,467818,21417
1561.08,1.342242,460730,20951
1564.15,1.339448,454170,20786
1568.22,1.341564,444181,20230
1571.27,1.337168,436947,20103
1574.32,1.332358,429598,19985
1577.36,1.340223,422039,19281
1580.4,1.333392,414375,19231
1583.43,1.335903,406354,18750
1586.46,1.325897,398475,18815
1590.49,1.333092,388982,18065
1593.51,1.334537,380708,17622
1596.53,1.330742,372727,17404
1599.54,1.324996,365060,17273
1602.55,1.330794,357543,16693
1605.55,1.330402,349495,16332
1608.55,1.343685,341154,15462
1612.54,1.336226,330877,15256
1615.53,1.325206,322904,15271
1618.51,1.323800,315116,14951
1621.49,1.325987,307217,14503
1624.47,1.330707,299481,13985
1627.44,1.324351,292112,13842
1630.41,1.319229,284245,13629
1634.36,1.330225,274079,12813
1637.32,1.323255,266916,12680
1640.27,1.341597,259612,11823
1643.22,1.322461,251804,11984
1646.16,1.323102,244348,11612
1649.1,1.322473,236703,11265
1652.04,1.332218,228171,10618
1655.95,1.321226,215408,10281
1658.88,1.312838,204937,9972
1661.8,1.295707,193395,9789
1664.72,1.324584,179728,8512
1667.63,1.308801,163642,8037
1670.54,1.309943,146312,7167
1673.44,1.284937,128451,6665
1677.31,1.359991,105080,4587
1680.21,1.336889,88906,4093
1683.1,1.254908,75033,4172
1685.99,1.289693,63520,3260
1688.87,1.283240,53714,2798
1691.75,1.297930,45653,2299
1694.62,1.329899,39137,1831
1697.49,1.249398,33776,1902
1701.31,1.312193,28175,1373

File: Column 1_078095_20241121_164513.csv
Method:,Column 1,,
Host Date-Time:,21/11/24 @ 16:45:13,,
Header Version:,1,,
System Temp (C):,32.19,,
Detector Temp (C):,27.21,,
Humidity (%):,4.3,,
Lamp PD:,3807,,
Shift Vector Coefficients:,-10.5391,0.0761263,-0.000134223,,
Pixel to Wavelength Coefficients:,1775.68,-0.916766,-0.000235065,,
Serial Number:,5510004,,
Scan Config Name:,Column 1,,
Scan Config Type:,Slew,,
Section 1,,
Start wavelength (nm):,900,,
End wavelength (nm):,1700,,
Pattern Pixel Width (nm):,   7.03,,,,
Exposure (ms):,  0.635,,,,
Digital Resolution:,228,,
Num Repeats:,6,,
PGA Gain:,64,,
Total Measurement Time in sec:,  2.721,,
Wavelength (nm),Absorbance (AU),Reference Signal (unitless),Sample Signal (unitless)
901.51,1.311176,108485,5299
905.376,1.331757,121306,5651
909.237,1.335586,131909,6091
913.095,1.329197,143299,6715
916.948,1.317615,156982,7555
922.079,1.312666,179937,8759
925.923,1.302558,200504,9990
929.762,1.318949,222660,10683
933.597,1.314979,244426,11835
937.427,1.322534,263972,12561
941.254,1.315929,281845,13617
945.076,1.313195,297271,14453
950.165,1.313828,315605,15322
953.978,1.313097,328029,15952
957.786,1.309753,340470,16685
961.59,1.307935,352317,17338
965.389,1.304219,363056,18020
969.185,1.313140,373162,18145
972.976,1.304165,382632,18994
976.763,1.303593,391202,19445
981.806,1.306787,400190,19746
985.583,1.309309,406088,19921
989.355,1.308422,410162,20162
993.124,1.312788,412868,20092
996.888,1.309181,414263,20328
1000.65,1.305101,415476,20580
1004.4,1.308578,415479,20416
1009.41,1.317302,414358,19956
1013.15,1.316493,412923,19924
1016.89,1.306752,411526,20307
1020.63,1.306700,409066,20188
1024.36,1.318298,406777,19546
1028.09,1.309956,404427,19810
1031.82,1.317269,401911,19358
1036.78,1.315742,398410,19257
1040.49,1.308330,396204,19480
1044.2,1.309053,394236,19351
1047.91,1.316434,392042,18919
1051.61,1.310813,389823,19057
1055.31,1.312977,388234,18885
1059,1.314063,387599,18807
1063.92,1.308196,386688,19018
1067.61,1.305772,386598,19120
1071.29,1.317944,387377,18629
1074.96,1.320549,388536,18573
1078.63,1.319991,389855,18660
1082.3,1.323861,391215,18559
1085.96,1.321860,393215,18740
1090.84,1.314622,396270,19203
1094.49,1.319951,398760,19088
1098.14,1.313631,400987,19476
1101.79,1.323174,403477,19171
1105.43,1.320334,406116,19423
1109.06,1.314951,407701,19742
1112.7,1.317243,409859,19742
1117.53,1.324782,412494,19527
1121.15,1.321485,414909,19791
1124.77,1.321807,416559,19855
1128.38,1.325766,418532,19768
1131.99,1.318713,419956,20160
1135.6,1.314160,421946,20469
1139.2,1.321678,423881,20210
1143.99,1.320985,426786,20381
1147.58,1.318329,428617,20594
1151.17,1.323148,431169,20488
1154.75,1.321581,433579,20677
1158.33,1.320456,436264,20859
1161.91,1.318786,439132,21077
1165.48,1.319571,442389,21195
1169.04,1.318695,446101,21416
1173.79,1.321039,451929,21579
1177.34,1.319081,456026,21873
1180.9,1.323843,461306,21885
1184.44,1.321700,467657,22296
1187.99,1.326492,473969,22349
1191.52,1.318685,479856,23037
1195.06,1.327267,487372,22940
1199.76,1.318771,497347,23872
1203.29,1.323465,504311,23946
1206.81,1.321960,511507,24372
1210.33,1.328787,519078,24347
1213.84,1.329494,527163,24686
1217.35,1.330675,534208,24948
1220.85,1.328025,540472,25395
1225.51,1.324449,549929,26053
1229.01,1.320462,556888,26626
1232.5,1.322081,562180,26779
1235.98,1.326000,567975,26812
1239.46,1.326367,574815,27112
1242.94,1.326948,582782,27451
1246.41,1.320996,591476,28245
1251.03,1.322048,604016,28774
1254.5,1.325248,612289,28954
1257.96,1.329545,619125,28989
1261.41,1.331839,624551,29089
1264.86,1.330658,629900,29418
1268.31,1.327163,634345,29865
1271.75,1.328423,638574,29977
1276.33,1.330115,642499,30044
1279.76,1.329185,645905,30268
1283.19,1.335311,648307,29955
1286.61,1.329524,650446,30457
1290.03,1.330563,652132,30463
1293.44,1.326824,653907,30810
1296.85,1.329416,655963,30723
1301.39,1.329796,657349,30761
1304.8,1.334447,657558,30443
1308.19,1.335150,658515,30438
1311.58,1.333560,658804,30563
1314.97,1.328134,659011,30957
1318.36,1.335061,658272,30433
1321.73,1.335153,658022,30415
1326.23,1.334410,657870,30460
1329.6,1.334578,656482,30384
1332.97,1.334993,654926,30283
1336.33,1.332480,653727,30403
1339.69,1.328758,652497,30607
1343.04,1.331040,649913,30326
1346.39,1.330213,647671,30279
1349.73,1.329335,645338,30231
1354.18,1.330971,641175,29923
1357.52,1.330583,638376,29819
1360.85,1.331021,635805,29669
1364.17,1.328288,633413,29744
1367.49,1.328726,631026,29602
1370.81,1.328673,628050,29466
1374.12,1.330863,625034,29177
1378.54,1.329960,620272,29015
1381.84,1.334010,616892,28589
1385.14,1.328608,613613,28793
1388.43,1.330322,611526,28582
1391.72,1.331277,610663,28479
1395.01,1.332157,610634,28420
1398.29,1.329247,611700,28661
1402.66,1.332811,614051,28536
1405.93,1.333768,616268,28576
1409.2,1.333826,617795,28643
1412.46,1.332570,618872,28776
1415.72,1.332584,619795,28818
1418.98,1.334070,620495,28752
1422.23,1.337714,621087,28539
1426.56,1.339302,621375,28448
1429.8,1.337840,621616,28555
1433.04,1.325459,622129,29405
1436.27,1.336259,621526,28655
1439.5,1.333085,621113,28846
1442.72,1.334293,620921,28757
1445.94,1.333038,620270,28810
1450.23,1.338672,618860,28374
1453.44,1.341544,617697,28134
1456.64,1.339872,616264,28177
1459.85,1.340280,614413,28066
1463.04,1.332917,612307,28448
1466.24,1.339795,610032,27897
1469.43,1.337971,607345,27891
1473.67,1.336263,603789,27837
1476.85,1.330279,601175,28101
1480.02,1.336799,597737,27524
1483.19,1.336307,594479,27405
1486.36,1.344515,591232,26745
1489.52,1.338018,587853,26993
1492.68,1.342468,583875,26537
1496.89,1.342944,578062,26244
1500.03,1.331270,574159,26777
1503.18,1.340701,570285,26025
1506.32,1.343031,565444,25666
1509.45,1.338545,560571,25709
1512.58,1.336678,555821,25601
1515.71,1.343233,550344,24969
1519.87,1.339630,543983,24886
1522.99,1.338297,538764,24723
1526.1,1.338497,533692,24479
1529.21,1.342306,527902,24002
1532.32,1.341620,521886,23766
1535.42,1.335705,515888,23815
1538.51,1.341080,509987,23253
1541.6,1.337581,503936,23163
1545.72,1.338598,494694,22685
1548.8,1.336728,488378,22492
1551.88,1.340591,481832,21994
1554.95,1.337491,474989,21837
1558.02,1.339582,467818,21404
1561.08,1.333906,460730,21357
1564.15,1.339573,454170,20780
1568.22,1.335171,444181,20530
1571.27,1.334154,436947,20243
1574.32,1.338265,429598,19715
1577.36,1.328885,422039,19791
1580.4,1.341277,414375,18885
1583.43,1.342391,406354,18472
1586.46,1.329071,398475,18678
1590.49,1.334102,388982,18023
1593.51,1.329611,380708,17823
1596.53,1.338522,372727,17095
1599.54,1.326356,365060,17219
1602.55,1.322879,357543,17000
1605.55,1.343110,349495,15861
1608.55,1.323409,341154,16201
1612.54,1.334153,330877,15329
1615.53,1.324723,322904,15288
1618.51,1.329649,315116,14751
1621.49,1.330382,307217,14357
1624.47,1.327397,299481,14092
1627.44,1.341078,292112,13319
1630.41,1.319739,284245,13613
1634.36,1.313013,274079,13331
1637.32,1.337530,266916,12270
1640.27,1.322236,259612,12362
1643.22,1.317023,251804,12135
1646.16,1.324000,244348,11588
1649.1,1.316044,236703,11433
1652.04,1.323552,228171,10832
1655.95,1.313647,215408,10462
1658.88,1.317611,204937,9863
1661.8,1.312302,193395,9422
1664.72,1.320926,179728,8584
1667.63,1.317203,163642,7883
1670.54,1.313594,146312,7107
1673.44,1.311193,128451,6274
1677.31,1.305266,105080,5203
1680.21,1.308947,88906,4365
1683.1,1.303078,75033,3734
1685.99,1.233771,63520,3708
1688.87,1.258796,53714,2960
1691.75,1.372340,45653,1937
1694.62,1.297240,39137,1974
1697.49,1.329127,33776,1583
1701.31,1.281072,28175,1475