Folder: textile_sorting_NIRSCAN_/samples/unknown (part 14)

File: Column 1_078076_20241121_164417.csv
Method:,Column 1,,
Host Date-Time:,21/11/24 @ 16:44:17,,
Header Version:,1,,
System Temp (C):,31.67,,
Detector Temp (C):,26.5,,
Humidity (%):,5.07,,
Lamp PD:,3808,,
Shift Vector Coefficients:,-10.5391,0.0761263,-0.000134223,,
Pixel to Wavelength Coefficients:,1775.68,-0.916766,-0.000235065,,
Serial Number:,5510004,,
Scan Config Name:,Column 1,,
Scan Config Type:,Slew,,
Section 1,,
Start wavelength (nm):,900,,
End wavelength (nm):,1700,,
Pattern Pixel Width (nm):,   7.03,,,,
Exposure (ms):,  0.635,,,,
Digital Resolution:,228,,
Num Repeats:,6,,
PGA Gain:,64,,
Total Measurement Time in sec:,  2.704,,
Wavelength (nm),Absorbance (AU),Reference Signal (unitless),Sample Signal (unitless)
901.51,1.300170,108485,5435
905.376,1.289046,121306,6235
909.237,1.298434,131909,6635
913.095,1.318024,143299,6890
916.948,1.308908,156982,7708
922.079,1.300299,179937,9012
925.923,1.314859,200504,9711
929.762,1.319926,222660,10659
933.597,1.337111,244426,11247
937.427,1.306613,263972,13030
941.254,1.307339,281845,13889
945.076,1.318120,297271,14290
950.165,1.316986,315605,15211
953.978,1.306746,328029,16187
957.786,1.296702,340470,17194
961.59,1.316076,352317,17016
965.389,1.309554,363056,17800
969.185,1.307741,373162,18372
972.976,1.314391,382632,18552
976.763,1.307362,391202,19277
981.806,1.306303,400190,19768
985.583,1.301852,406088,20266
989.355,1.314299,410162,19891
993.124,1.303909,412868,20507
996.888,1.310658,414263,20259
1000.65,1.294017,415476,21112
1004.4,1.310775,415479,20313
1009.41,1.300651,414358,20736
1013.15,1.308951,412923,20273
1016.89,1.307008,411526,20295
1020.63,1.306593,409066,20193
1024.36,1.315045,406777,19693
1028.09,1.306854,404427,19952
1031.82,1.311719,401911,19607
1036.78,1.311835,398410,19431
1040.49,1.316613,396204,19112
1044.2,1.308313,394236,19384
1047.91,1.306966,392042,19336
1051.61,1.314544,389823,18894
1055.31,1.312586,388234,18902
1059,1.307236,387599,19105
1063.92,1.309110,386688,18978
1067.61,1.312156,386598,18841
1071.29,1.308878,387377,19022
1074.96,1.297530,388536,19584
1078.63,1.312332,389855,18992
1082.3,1.328259,391215,18372
1085.96,1.313847,393215,19089
1090.84,1.313764,396270,19241
1094.49,1.313560,398760,19371
1098.14,1.312228,400987,19539
1101.79,1.313740,403477,19592
1105.43,1.324197,406116,19251
1109.06,1.313523,407701,19807
1112.7,1.319184,409859,19654
1117.53,1.304236,412494,20473
1121.15,1.314584,414909,20108
1124.77,1.317476,416559,20054
1128.38,1.317648,418532,20141
1131.99,1.310815,419956,20530
1135.6,1.321931,421946,20106
1139.2,1.320326,423881,20273
1143.99,1.326517,426786,20123
1147.58,1.321270,428617,20455
1151.17,1.321603,431169,20561
1154.75,1.321350,433579,20688
1158.33,1.315879,436264,21080
1161.91,1.314705,439132,21276
1165.48,1.319018,442389,21222
1169.04,1.311635,446101,21767
1173.79,1.314487,451929,21907
1177.34,1.312461,456026,22209
1180.9,1.315723,461306,22298
1184.44,1.318518,467657,22460
1187.99,1.315460,473969,22924
1191.52,1.315979,479856,23181
1195.06,1.315317,487372,23580
1199.76,1.323306,497347,23624
1203.29,1.315220,504311,24405
1206.81,1.318040,511507,24593
1210.33,1.327523,519078,24418
1213.84,1.316104,527163,25459
1217.35,1.323150,534208,25384
1220.85,1.329035,540472,25336
1225.51,1.322702,549929,26158
1229.01,1.322473,556888,26503
1232.5,1.324896,562180,26606
1235.98,1.320559,567975,27150
1239.46,1.317488,574815,27672
1242.94,1.324739,582782,27591
1246.41,1.326302,591476,27902
1251.03,1.321897,604016,28784
1254.5,1.328062,612289,28767
1257.96,1.324289,619125,29342
1261.41,1.330512,624551,29178
1264.86,1.328802,629900,29544
1268.31,1.329847,634345,29681
1271.75,1.327728,638574,30025
1276.33,1.327765,642499,30207
1279.76,1.331559,645905,30103
1283.19,1.326258,648307,30586
1286.61,1.327774,650446,30580
1290.03,1.327155,652132,30703
1293.44,1.328222,653907,30711
1296.85,1.332736,655963,30489
1301.39,1.332785,657349,30550
1304.8,1.327933,657558,30903
1308.19,1.328481,658515,30909
1311.58,1.329388,658804,30858
1314.97,1.329089,659011,30889
1318.36,1.326470,658272,31041
1321.73,1.331102,658022,30700
1326.23,1.334553,657870,30450
1329.6,1.331714,656482,30585
1332.97,1.324943,654926,30992
1336.33,1.338507,653727,29984
1339.69,1.326945,652497,30735
1343.04,1.335170,649913,30039
1346.39,1.328710,647671,30384
1349.73,1.327543,645338,30356
1354.18,1.331175,641175,29909
1357.52,1.327088,638376,30060
1360.85,1.326956,635805,29948
1364.17,1.327485,633413,29799
1367.49,1.329651,631026,29539
1370.81,1.328010,628050,29511
1374.12,1.329229,625034,29287
1378.54,1.327616,620272,29172
1381.84,1.332206,616892,28708
1385.14,1.329015,613613,28766
1388.43,1.322104,611526,29128
1391.72,1.348940,610663,27344
1395.01,1.330555,610634,28525
1398.29,1.324305,611700,28989
1402.66,1.326406,614051,28960
1405.93,1.330528,616268,28790
1409.2,1.334084,617795,28626
1412.46,1.330433,618872,28918
1415.72,1.334245,619795,28708
1418.98,1.332427,620495,28861
1422.23,1.332164,621087,28906
1426.56,1.329998,621375,29064
1429.8,1.325840,621616,29355
1433.04,1.331452,622129,29002
1436.27,1.335093,621526,28732
1439.5,1.332619,621113,28877
1442.72,1.334988,620921,28711
1445.94,1.333339,620270,28790
1450.23,1.326150,618860,29204
1453.44,1.329968,617697,28894
1456.64,1.327429,616264,28996
1459.85,1.330563,614413,28701
1463.04,1.328558,612307,28735
1466.24,1.335735,610032,28159
1469.43,1.339609,607345,27786
1473.67,1.331068,603789,28172
1476.85,1.328521,601175,28215
1480.02,1.327727,597737,28105
1483.19,1.331688,594479,27698
1486.36,1.330456,591232,27625
1489.52,1.342091,587853,26741
1492.68,1.341324,583875,26607
1496.89,1.339828,578062,26433
1500.03,1.331319,574159,26774
1503.18,1.334768,570285,26383
1506.32,1.338956,565444,25908
1509.45,1.337617,560571,25764
1512.58,1.334023,555821,25758
1515.71,1.337497,550344,25301
1519.87,1.339770,543983,24878
1522.99,1.333963,538764,24971
1526.1,1.338125,533692,24500
1529.21,1.334008,527902,24465
1532.32,1.333724,521886,24202
1535.42,1.341820,515888,23482
1538.51,1.336325,509987,23509
1541.6,1.336813,503936,23204
1545.72,1.335660,494694,22839
1548.8,1.336651,488378,22496
1551.88,1.335234,481832,22267
1554.95,1.334458,474989,21990
1558.02,1.332678,467818,21747
1561.08,1.328852,460730,21607
1564.15,1.331149,454170,21187
1568.22,1.338143,444181,20390
1571.27,1.329396,436947,20466
1574.32,1.329111,429598,20135
1577.36,1.343297,422039,19145
1580.4,1.336497,414375,19094
1583.43,1.330997,406354,18963
1586.46,1.338567,398475,18274
1590.49,1.338827,388982,17828
1593.51,1.330563,380708,17784
1596.53,1.333320,372727,17301
1599.54,1.334375,365060,16904
1602.55,1.327735,357543,16811
1605.55,1.332107,349495,16268
1608.55,1.320257,341154,16319
1612.54,1.319555,330877,15853
1615.53,1.324524,322904,15295
1618.51,1.332425,315116,14657
1621.49,1.331229,307217,14329
1624.47,1.321793,299481,14275
1627.44,1.328480,292112,13711
1630.41,1.336919,284245,13085
1634.36,1.312752,274079,13339
1637.32,1.313803,266916,12959
1640.27,1.311960,259612,12658
1643.22,1.310135,251804,12329
1646.16,1.322093,244348,11639
1649.1,1.327553,236703,11134
1652.04,1.314309,228171,11065
1655.95,1.313274,215408,10471
1658.88,1.305668,204937,10138
1661.8,1.304808,193395,9586
1664.72,1.311121,179728,8780
1667.63,1.311511,163642,7987
1670.54,1.323920,146312,6940
1673.44,1.291437,128451,6566
1677.31,1.300782,105080,5257
1680.21,1.273978,88906,4731
1683.1,1.341989,75033,3414
1685.99,1.327821,63520,2986
1688.87,1.275395,53714,2849
1691.75,1.264143,45653,2485
1694.62,1.260958,39137,2146
1697.49,1.279899,33776,1773
1701.31,1.351913,28175,1253

File: Column 1_078078_20241121_164423.csv
Method:,Column 1,,
Host Date-Time:,21/11/24 @ 16:44:23,,
Header Version:,1,,
System Temp (C):,31.74,,
Detector Temp (C):,26.6,,
Humidity (%):,4.98,,
Lamp PD:,3808,,
Shift Vector Coefficients:,-10.5391,0.0761263,-0.000134223,,
Pixel to Wavelength Coefficients:,1775.68,-0.916766,-0.000235065,,
Serial Number:,5510004,,
Scan Config Name:,Column 1,,
Scan Config Type:,Slew,,
Section 1,,
Start wavelength (nm):,900,,
End wavelength (nm):,1700,,
Pattern Pixel Width (nm):,   7.03,,,,
Exposure (ms):,  0.635,,,,
Digital Resolution:,228,,
Num Repeats:,6,,
PGA Gain:,64,,
Total Measurement Time in sec:,  2.708,,
Wavelength (nm),Absorbance (AU),Reference Signal (unitless),Sample Signal (unitless)
901.51,1.300730,108485,5428
905.376,1.306891,121306,5984
909.237,1.315318,131909,6382
913.095,1.272525,143299,7651
916.948,1.300870,156982,7852
922.079,1.287900,179937,9273
925.923,1.308731,200504,9849
929.762,1.304005,222660,11057
933.597,1.308351,244426,12017
937.427,1.303988,263972,13109
941.254,1.306683,281845,13910
945.076,1.302041,297271,14829
950.165,1.306075,315605,15598
953.978,1.310383,328029,16052
957.786,1.293080,340470,17338
961.59,1.312492,352317,17157
965.389,1.317233,363056,17488
969.185,1.310159,373162,18270
972.976,1.303731,382632,19013
976.763,1.297450,391202,19722
981.806,1.303522,400190,19895
985.583,1.314485,406088,19685
989.355,1.314474,410162,19883
993.124,1.311666,412868,20144
996.888,1.312463,414263,20175
1000.65,1.308405,415476,20424
1004.4,1.312317,415479,20241
1009.41,1.304860,414358,20536
1013.15,1.306239,412923,20400
1016.89,1.308938,411526,20205
1020.63,1.302589,409066,20380
1024.36,1.303898,406777,20205
1028.09,1.307442,404427,19925
1031.82,1.296527,401911,20305
1036.78,1.306592,398410,19667
1040.49,1.303497,396204,19698
1044.2,1.295835,394236,19949
1047.91,1.310348,392042,19186
1051.61,1.305580,389823,19288
1055.31,1.311553,388234,18947
1059,1.308579,387599,19046
1063.92,1.313318,386688,18795
1067.61,1.306408,386598,19092
1071.29,1.303049,387377,19279
1074.96,1.313936,388536,18858
1078.63,1.316307,389855,18819
1082.3,1.309680,391215,19175
1085.96,1.302751,393215,19583
1090.84,1.315278,396270,19174
1094.49,1.311323,398760,19471
1098.14,1.303972,400987,19914
1101.79,1.316497,403477,19468
1105.43,1.312336,406116,19784
1109.06,1.321333,407701,19454
1112.7,1.320733,409859,19584
1117.53,1.311552,412494,20131
1121.15,1.310542,414909,20296
1124.77,1.307436,416559,20523
1128.38,1.314019,418532,20310
1131.99,1.320202,419956,20091
1135.6,1.316031,421946,20381
1139.2,1.314982,423881,20524
1143.99,1.315922,426786,20620
1147.58,1.304200,428617,21275
1151.17,1.312573,431169,20993
1154.75,1.312230,433579,21127
1158.33,1.311309,436264,21303
1161.91,1.315175,439132,21253
1165.48,1.313810,442389,21478
1169.04,1.318817,446101,21410
1173.79,1.317032,451929,21779
1177.34,1.315089,456026,22075
1180.9,1.316132,461306,22277
1184.44,1.311326,467657,22835
1187.99,1.316807,473969,22853
1191.52,1.312174,479856,23385
1195.06,1.316091,487372,23538
1199.76,1.323141,497347,23633
1203.29,1.326724,504311,23767
1206.81,1.323585,511507,24281
1210.33,1.322624,519078,24695
1213.84,1.322912,527163,25063
1217.35,1.322381,534208,25429
1220.85,1.323754,540472,25646
1225.51,1.323649,549929,26101
1229.01,1.318022,556888,26776
1232.5,1.322633,562180,26745
1235.98,1.322756,567975,27013
1239.46,1.319470,574815,27546
1242.94,1.321836,582782,27776
1246.41,1.323973,591476,28052
1251.03,1.325853,604016,28523
1254.5,1.322407,612289,29144
1257.96,1.319871,619125,29642
1261.41,1.324144,624551,29609
1264.86,1.323789,629900,29887
1268.31,1.326103,634345,29938
1271.75,1.323826,638574,30296
1276.33,1.322620,642499,30567
1279.76,1.327524,645905,30384
1283.19,1.329751,648307,30341
1286.61,1.328840,650446,30505
1290.03,1.329936,652132,30507
1293.44,1.325558,653907,30900
1296.85,1.327864,655963,30833
1301.39,1.330997,657349,30676
1304.8,1.328946,657558,30831
1308.19,1.328045,658515,30940
1311.58,1.334186,658804,30519
1314.97,1.328527,659011,30929
1318.36,1.333423,658272,30548
1321.73,1.328633,658022,30875
1326.23,1.333314,657870,30537
1329.6,1.330764,656482,30652
1332.97,1.328319,654926,30752
1336.33,1.325494,653727,30896
1339.69,1.333236,652497,30293
1343.04,1.330096,649913,30392
1346.39,1.325889,647671,30582
1349.73,1.329651,645338,30209
1354.18,1.332921,641175,29789
1357.52,1.330452,638376,29828
1360.85,1.322010,635805,30291
1364.17,1.324320,633413,30017
1367.49,1.324231,631026,29910
1370.81,1.324668,628050,29739
1374.12,1.330640,625034,29192
1378.54,1.330889,620272,28953
1381.84,1.326928,616892,29059
1385.14,1.328336,613613,28811
1388.43,1.323493,611526,29035
1391.72,1.323508,610663,28993
1395.01,1.326705,610634,28779
1398.29,1.331663,611700,28502
1402.66,1.323387,614051,29162
1405.93,1.328166,616268,28947
1409.2,1.325700,617795,29184
1412.46,1.325445,618872,29252
1415.72,1.325292,619795,29306
1418.98,1.331300,620495,28936
1422.23,1.333353,621087,28827
1426.56,1.326397,621375,29306
1429.8,1.335686,621616,28697
1433.04,1.333193,622129,28886
1436.27,1.335653,621526,28695
1439.5,1.328621,621113,29144
1442.72,1.333478,620921,28811
1445.94,1.331578,620270,28907
1450.23,1.336367,618860,28525
1453.44,1.334440,617697,28598
1456.64,1.328929,616264,28896
1459.85,1.329339,614413,28782
1463.04,1.331363,612307,28550
1466.24,1.328577,610032,28627
1469.43,1.329735,607345,28425
1473.67,1.334100,603789,27976
1476.85,1.332231,601175,27975
1480.02,1.336499,597737,27543
1483.19,1.330701,594479,27761
1486.36,1.333912,591232,27406
1489.52,1.335899,587853,27125
1492.68,1.334329,583875,27039
1496.89,1.331206,578062,26963
1500.03,1.334853,574159,26557
1503.18,1.337360,570285,26226
1506.32,1.337700,565444,25983
1509.45,1.341240,560571,25550
1512.58,1.340135,555821,25398
1515.71,1.339786,550344,25168
1519.87,1.338097,543983,24974
1522.99,1.334868,538764,24919
1526.1,1.338763,533692,24464
1529.21,1.342903,527902,23969
1532.32,1.330471,521886,24384
1535.42,1.329297,515888,24169
1538.51,1.336196,509987,23516
1541.6,1.331363,503936,23497
1545.72,1.340094,494694,22607
1548.8,1.335321,488378,22565
1551.88,1.336230,481832,22216
1554.95,1.329646,474989,22235
1558.02,1.339379,467818,21414
1561.08,1.329939,460730,21553
1564.15,1.330698,454170,21209
1568.22,1.329309,444181,20809
1571.27,1.332078,436947,20340
1574.32,1.337935,429598,19730
1577.36,1.326478,422039,19901
1580.4,1.333369,414375,19232
1583.43,1.333754,406354,18843
1586.46,1.326058,398475,18808
1590.49,1.337222,388982,17894
1593.51,1.319163,380708,18257
1596.53,1.323369,372727,17702
1599.54,1.322514,365060,17372
1602.55,1.327451,357543,16822
1605.55,1.322366,349495,16637
1608.55,1.319114,341154,16362
1612.54,1.325847,330877,15625
1615.53,1.327001,322904,15208
1618.51,1.318603,315116,15131
1621.49,1.324582,307217,14550
1624.47,1.323103,299481,14232
1627.44,1.323035,292112,13884
1630.41,1.307782,284245,13993
1634.36,1.319181,274079,13143
1637.32,1.304683,266916,13234
1640.27,1.311103,259612,12683
1643.22,1.307991,251804,12390
1646.16,1.305367,244348,12096
1649.1,1.318443,236703,11370
1652.04,1.326408,228171,10761
1655.95,1.310710,215408,10533
1658.88,1.300854,204937,10251
1661.8,1.306806,193395,9542
1664.72,1.302065,179728,8965
1667.63,1.292573,163642,8343
1670.54,1.292891,146312,7454
1673.44,1.265131,128451,6976
1677.31,1.290980,105080,5377
1680.21,1.345137,88906,4016
1683.1,1.286869,75033,3876
1685.99,1.288894,63520,3266
1688.87,1.225345,53714,3197
1691.75,1.242995,45653,2609
1694.62,1.289824,39137,2008
1697.49,1.391888,33776,1370
1701.31,1.374317,28175,1190

File: Column 1_078081_20241121_164432.csv
Method:,Column 1,,
Host Date-Time:,21/11/24 @ 16:44:32,,
Header Version:,1,,
System Temp (C):,31.84,,
Detector Temp (C):,26.73,,
Humidity (%):,4.88,,
Lamp PD:,3808,,
Shift Vector Coefficients:,-10.5391,0.0761263,-0.000134223,,
Pixel to Wavelength Coefficients:,1775.68,-0.916766,-0.000235065,,
Serial Number:,5510004,,
Scan Config Name:,Column 1,,
Scan Config Type:,Slew,,
Section 1,,
Start wavelength (nm):,900,,
End wavelength (nm):,1700,,
Pattern Pixel Width (nm):,   7.03,,,,
Exposure (ms):,  0.635,,,,
Digital Resolution:,228,,
Num Repeats:,6,,
PGA Gain:,64,,
Total Measurement Time in sec:,  2.728,,
Wavelength (nm),Absorbance (AU),Reference Signal (unitless),Sample Signal (unitless)
901.51,1.302815,108485,5402
905.376,1.288559,121306,6242
909.237,1.318322,131909,6338
913.095,1.290429,143299,7342
916.948,1.322064,156982,7478
922.079,1.321785,179937,8577
925.923,1.315710,200504,9692
929.762,1.295757,222660,11269
933.597,1.324852,244426,11569
937.427,1.307047,263972,13017
941.254,1.305000,281845,13964
945.076,1.293170,297271,15135
950.165,1.312922,315605,15354
953.978,1.311060,328029,16027
957.786,1.302039,340470,16984
961.59,1.305836,352317,17422
965.389,1.310604,363056,17757
969.185,1.309779,373162,18286
972.976,1.304760,382632,18968
976.763,1.298818,391202,19660
981.806,1.307954,400190,19693
985.583,1.312899,406088,19757
989.355,1.306337,410162,20259
993.124,1.303909,412868,20507
996.888,1.309459,414263,20315
1000.65,1.303374,415476,20662
1004.4,1.312360,415479,20239
1009.41,1.320272,414358,19820
1013.15,1.306303,412923,20397
1016.89,1.312781,411526,20027
1020.63,1.315194,409066,19797
1024.36,1.309849,406777,19930
1028.09,1.305268,404427,20025
1031.82,1.309686,401911,19699
1036.78,1.308540,398410,19579
1040.49,1.306750,396204,19551
1044.2,1.307686,394236,19412
1047.91,1.307618,392042,19307
1051.61,1.313167,389823,18954
1055.31,1.302525,388234,19345
1059,1.310911,387599,18944
1063.92,1.303811,386688,19211
1067.61,1.306272,386598,19098
1071.29,1.316362,387377,18697
1074.96,1.325015,388536,18383
1078.63,1.301359,389855,19478
1082.3,1.317265,391215,18843
1085.96,1.311487,393215,19193
1090.84,1.319924,396270,18970
1094.49,1.320110,398760,19081
1098.14,1.320055,400987,19190
1101.79,1.308847,403477,19814
1105.43,1.313611,406116,19726
1109.06,1.313567,407701,19805
1112.7,1.316079,409859,19795
1117.53,1.316216,412494,19916
1121.15,1.326806,414909,19550
1124.77,1.316956,416559,20078
1128.38,1.313122,418532,20352
1131.99,1.323348,419956,19946
1135.6,1.322342,421946,20087
1139.2,1.318552,423881,20356
1143.99,1.320218,426786,20417
1147.58,1.321461,428617,20446
1151.17,1.316188,431169,20819
1154.75,1.313074,433579,21086
1158.33,1.314029,436264,21170
1161.91,1.320541,439132,20992
1165.48,1.318343,442389,21255
1169.04,1.311156,446101,21791
1173.79,1.316554,451929,21803
1177.34,1.312382,456026,22213
1180.9,1.321014,461306,22028
1184.44,1.315166,467657,22634
1187.99,1.314249,473969,22988
1191.52,1.319232,479856,23008
1195.06,1.315169,487372,23588
1199.76,1.324079,497347,23582
1203.29,1.320429,504311,24114
1206.81,1.333115,511507,23754
1210.33,1.318127,519078,24952
1213.84,1.316257,527163,25450
1217.35,1.326810,534208,25171
1220.85,1.324330,540472,25612
1225.51,1.318917,549929,26387
1229.01,1.320723,556888,26610
1232.5,1.330415,562180,26270
1235.98,1.322547,567975,27026
1239.46,1.319265,574815,27559
1242.94,1.322713,582782,27720
1246.41,1.325260,591476,27969
1251.03,1.324865,604016,28588
1254.5,1.325128,612289,28962
1257.96,1.327184,619125,29147
1261.41,1.331406,624551,29118
1264.86,1.320388,629900,30122
1268.31,1.328138,634345,29798
1271.75,1.326760,638574,30092
1276.33,1.327894,642499,30198
1279.76,1.328110,645905,30343
1283.19,1.329908,648307,30330
1286.61,1.333204,650446,30200
1290.03,1.326731,652132,30733
1293.44,1.333028,653907,30373
1296.85,1.328639,655963,30778
1301.39,1.330233,657349,30730
1304.8,1.330980,657558,30687
1308.19,1.324857,658515,31168
1311.58,1.330276,658804,30795
1314.97,1.331995,659011,30683
1318.36,1.333380,658272,30551
1321.73,1.334425,658022,30466
1326.23,1.331455,657870,30668
1329.6,1.335408,656482,30326
1332.97,1.329054,654926,30700
1336.33,1.327820,653727,30731
1339.69,1.334313,652497,30218
1343.04,1.331241,649913,30312
1346.39,1.334885,647671,29955
1349.73,1.333927,645338,29913
1354.18,1.332251,641175,29835
1357.52,1.331298,638376,29770
1360.85,1.329545,635805,29770
1364.17,1.329853,633413,29637
1367.49,1.322839,631026,30006
1370.81,1.328452,628050,29481
1374.12,1.333012,625034,29033
1378.54,1.330109,620272,29005
1381.84,1.323668,616892,29278
1385.14,1.330785,613613,28649
1388.43,1.328745,611526,28686
1391.72,1.330485,610663,28531
1395.01,1.329218,610634,28613
1398.29,1.326634,611700,28834
1402.66,1.331444,614051,28626
1405.93,1.327956,616268,28961
1409.2,1.329526,617795,28928
1412.46,1.330583,618872,28908
1415.72,1.332961,619795,28793
1418.98,1.329159,620495,29079
1422.23,1.336710,621087,28605
1426.56,1.336669,621375,28621
1429.8,1.331904,621616,28948
1433.04,1.334790,622129,28780
1436.27,1.335426,621526,28710
1439.5,1.338875,621113,28464
1442.72,1.339336,620921,28425
1445.94,1.337705,620270,28502
1450.23,1.331206,618860,28866
1453.44,1.338682,617697,28320
1456.64,1.336984,616264,28365
1459.85,1.333859,614413,28484
1463.04,1.333834,612307,28388
1466.24,1.336754,610032,28093
1469.43,1.338065,607345,27885
1473.67,1.339269,603789,27645
1476.85,1.334628,601175,27821
1480.02,1.336594,597737,27537
1483.19,1.327755,594479,27950
1486.36,1.340877,591232,26970
1489.52,1.339533,587853,26899
1492.68,1.339435,583875,26723
1496.89,1.339664,578062,26443
1500.03,1.338713,574159,26322
1503.18,1.336417,570285,26283
1506.32,1.337433,565444,25999
1509.45,1.339442,560571,25656
1512.58,1.343776,555821,25186
1515.71,1.332411,550344,25599
1519.87,1.341589,543983,24774
1522.99,1.336474,538764,24827
1526.1,1.345111,533692,24109
1529.21,1.345138,527902,23846
1532.32,1.339432,521886,23886
1535.42,1.339570,515888,23604
1538.51,1.336584,509987,23495
1541.6,1.337243,503936,23181
1545.72,1.326459,494694,23328
1548.8,1.346728,488378,21980
1551.88,1.336367,481832,22209
1554.95,1.334774,474989,21974
1558.02,1.328247,467818,21970
1561.08,1.333114,460730,21396
1564.15,1.331600,454170,21165
1568.22,1.342660,444181,20179
1571.27,1.332612,436947,20315
1574.32,1.334690,429598,19878
1577.36,1.331085,422039,19691
1580.4,1.335406,414375,19142
1583.43,1.334839,406354,18796
1586.46,1.332455,398475,18533
1590.49,1.329834,388982,18201
1593.51,1.336637,380708,17537
1596.53,1.327089,372727,17551
1599.54,1.327063,365060,17191
1602.55,1.326909,357543,16843
1605.55,1.321610,349495,16666
1608.55,1.324509,341154,16160
1612.54,1.323573,330877,15707
1615.53,1.327516,322904,15190
1618.51,1.334118,315116,14600
1621.49,1.333691,307217,14248
1624.47,1.326658,299481,14116
1627.44,1.312131,292112,14237
1630.41,1.323520,284245,13495
1634.36,1.308283,274079,13477
1637.32,1.328805,266916,12519
1640.27,1.329463,259612,12158
1643.22,1.312820,251804,12253
1646.16,1.306806,244348,12056
1649.1,1.326034,236703,11173
1652.04,1.322271,228171,10864
1655.95,1.315477,215408,10418
1658.88,1.302510,204937,10212
1661.8,1.307443,193395,9528
1664.72,1.312608,179728,8750
1667.63,1.305303,163642,8102
1670.54,1.308551,146312,7190
1673.44,1.340692,128451,5862
1677.31,1.270318,105080,5639
1680.21,1.271142,88906,4762
1683.1,1.327601,75033,3529
1685.99,1.286640,63520,3283
1688.87,1.251521,53714,3010
1691.75,1.289326,45653,2345
1694.62,1.226912,39137,2321
1697.49,1.266632,33776,1828
1701.31,1.197982,28175,1786