Folder: textile_sorting_NIRSCAN_/samples/unknown (part 9)

File: Column 1_078049_20241121_164259.csv
Method:,Column 1,,
Host Date-Time:,21/11/24 @ 16:42:59,,
Header Version:,1,,
System Temp (C):,30.79,,
Detector Temp (C):,25.59,,
Humidity (%):,5.36,,
Lamp PD:,3810,,
Shift Vector Coefficients:,-10.5391,0.0761263,-0.000134223,,
Pixel to Wavelength Coefficients:,1775.68,-0.916766,-0.000235065,,
Serial Number:,5510004,,
Scan Config Name:,Column 1,,
Scan Config Type:,Slew,,
Section 1,,
Start wavelength (nm):,900,,
End wavelength (nm):,1700,,
Pattern Pixel Width (nm):,   7.03,,,,
Exposure (ms):,  0.635,,,,
Digital Resolution:,228,,
Num Repeats:,6,,
PGA Gain:,64,,
Total Measurement Time in sec:,  2.722,,
Wavelength (nm),Absorbance (AU),Reference Signal (unitless),Sample Signal (unitless)
901.51,1.285711,108485,5619
905.376,1.302845,121306,6040
909.237,1.291937,131909,6735
913.095,1.301209,143299,7162
916.948,1.319690,156982,7519
922.079,1.326110,179937,8492
925.923,1.306839,200504,9892
929.762,1.301342,222660,11125
933.597,1.304287,244426,12130
937.427,1.311204,263972,12893
941.254,1.309691,281845,13814
945.076,1.311545,297271,14508
950.165,1.303078,315605,15706
953.978,1.304498,328029,16271
957.786,1.313307,340470,16549
961.59,1.313202,352317,17129
965.389,1.310947,363056,17743
969.185,1.307788,373162,18370
972.976,1.312685,382632,18625
976.763,1.307722,391202,19261
981.806,1.308550,400190,19666
985.583,1.305489,406088,20097
989.355,1.316137,410162,19807
993.124,1.307161,412868,20354
996.888,1.307093,414263,20426
1000.65,1.305438,415476,20564
1004.4,1.305209,415479,20575
1009.41,1.303951,414358,20579
1013.15,1.310131,412923,20218
1016.89,1.301903,411526,20535
1020.63,1.318962,409066,19626
1024.36,1.302181,406777,20285
1028.09,1.306462,404427,19970
1031.82,1.313072,401911,19546
1036.78,1.302701,398410,19844
1040.49,1.317158,396204,19088
1044.2,1.309547,394236,19329
1047.91,1.305329,392042,19409
1051.61,1.302238,389823,19437
1055.31,1.311461,388234,18951
1059,1.310842,387599,18947
1063.92,1.303201,386688,19238
1067.61,1.317700,386598,18602
1071.29,1.310089,387377,18969
1074.96,1.317799,388536,18691
1078.63,1.317439,389855,18770
1082.3,1.308707,391215,19218
1085.96,1.320472,393215,18800
1090.84,1.309831,396270,19416
1094.49,1.312977,398760,19397
1098.14,1.309922,400987,19643
1101.79,1.313563,403477,19600
1105.43,1.319351,406116,19467
1109.06,1.319662,407701,19529
1112.7,1.314918,409859,19848
1117.53,1.323982,412494,19563
1121.15,1.321529,414909,19789
1124.77,1.319233,416559,19973
1128.38,1.315475,418532,20242
1131.99,1.323326,419956,19947
1135.6,1.322904,421946,20061
1139.2,1.317082,423881,20425
1143.99,1.319921,426786,20431
1147.58,1.326074,428617,20230
1151.17,1.322237,431169,20531
1154.75,1.323011,433579,20609
1158.33,1.321790,436264,20795
1161.91,1.326310,439132,20715
1165.48,1.319346,442389,21206
1169.04,1.324431,446101,21135
1173.79,1.316156,451929,21823
1177.34,1.319220,456026,21866
1180.9,1.323981,461306,21878
1184.44,1.317398,467657,22518
1187.99,1.317739,473969,22804
1191.52,1.320290,479856,22952
1195.06,1.317847,487372,23443
1199.76,1.323564,497347,23610
1203.29,1.317164,504311,24296
1206.81,1.325036,511507,24200
1210.33,1.329358,519078,24315
1213.84,1.327091,527163,24823
1217.35,1.327570,534208,25127
1220.85,1.325927,540472,25518
1225.51,1.326504,549929,25930
1229.01,1.316791,556888,26852
1232.5,1.328798,562180,26368
1235.98,1.317721,567975,27328
1239.46,1.317739,574815,27656
1242.94,1.321383,582782,27805
1246.41,1.324748,591476,28002
1251.03,1.327638,604016,28406
1254.5,1.320578,612289,29267
1257.96,1.322914,619125,29435
1261.41,1.325628,624551,29508
1264.86,1.317041,629900,30355
1268.31,1.325871,634345,29954
1271.75,1.321553,638574,30455
1276.33,1.329017,642499,30120
1279.76,1.329013,645905,30280
1283.19,1.331918,648307,30190
1286.61,1.331095,650446,30347
1290.03,1.332664,652132,30316
1293.44,1.329468,653907,30623
1296.85,1.331243,655963,30594
1301.39,1.332273,657349,30586
1304.8,1.332340,657558,30591
1308.19,1.332121,658515,30651
1311.58,1.333148,658804,30592
1314.97,1.330004,659011,30824
1318.36,1.335161,658272,30426
1321.73,1.330579,658022,30737
1326.23,1.332135,657870,30620
1329.6,1.336296,656482,30264
1332.97,1.330755,654926,30580
1336.33,1.332723,653727,30386
1339.69,1.333767,652497,30256
1343.04,1.334967,649913,30053
1346.39,1.334668,647671,29970
1349.73,1.334479,645338,29875
1354.18,1.329740,641175,30008
1357.52,1.331341,638376,29767
1360.85,1.331241,635805,29654
1364.17,1.329941,633413,29631
1367.49,1.332469,631026,29348
1370.81,1.332715,628050,29193
1374.12,1.326863,625034,29447
1378.54,1.327720,620272,29165
1381.84,1.324633,616892,29213
1385.14,1.333187,613613,28491
1388.43,1.330672,611526,28559
1391.72,1.327980,610663,28696
1395.01,1.327990,610634,28694
1398.29,1.328641,611700,28701
1402.66,1.332203,614051,28576
1405.93,1.331086,616268,28753
1409.2,1.328866,617795,28972
1412.46,1.330643,618872,28904
1415.72,1.334018,619795,28723
1418.98,1.333934,620495,28761
1422.23,1.338079,621087,28515
1426.56,1.329640,621375,29088
1429.8,1.327872,621616,29218
1433.04,1.331333,622129,29010
1436.27,1.335154,621526,28728
1439.5,1.336850,621113,28597
1442.72,1.332093,620921,28903
1445.94,1.326990,620270,29214
1450.23,1.332607,618860,28773
1453.44,1.337855,617697,28374
1456.64,1.334526,616264,28526
1459.85,1.342234,614413,27940
1463.04,1.334401,612307,28351
1466.24,1.332371,610032,28378
1469.43,1.332725,607345,28230
1473.67,1.335141,603789,27909
1476.85,1.337872,601175,27614
1480.02,1.337873,597737,27456
1483.19,1.334157,594479,27541
1486.36,1.333770,591232,27415
1489.52,1.337214,587853,27043
1492.68,1.333479,583875,27092
1496.89,1.333791,578062,26803
1500.03,1.338862,574159,26313
1503.18,1.338438,570285,26161
1506.32,1.334918,565444,26150
1509.45,1.336843,560571,25810
1512.58,1.345815,555821,25068
1515.71,1.340200,550344,25144
1519.87,1.340941,543983,24811
1522.99,1.332210,538764,25072
1526.1,1.339403,533692,24428
1529.21,1.338505,527902,24213
1532.32,1.333043,521886,24240
1535.42,1.335049,515888,23851
1538.51,1.338399,509987,23397
1541.6,1.336551,503936,23218
1545.72,1.329617,494694,23159
1548.8,1.343853,488378,22126
1551.88,1.328960,481832,22591
1554.95,1.338267,474989,21798
1558.02,1.342371,467818,21267
1561.08,1.336906,460730,21210
1564.15,1.334111,454170,21043
1568.22,1.341435,444181,20236
1571.27,1.341379,436947,19909
1574.32,1.336595,429598,19791
1577.36,1.329939,422039,19743
1580.4,1.332467,414375,19272
1583.43,1.330471,406354,18986
1586.46,1.335937,398475,18385
1590.49,1.338340,388982,17848
1593.51,1.329855,380708,17813
1596.53,1.321703,372727,17770
1599.54,1.318880,365060,17518
1602.55,1.328200,357543,16793
1605.55,1.332374,349495,16258
1608.55,1.332510,341154,15865
1612.54,1.327127,330877,15579
1615.53,1.320286,322904,15445
1618.51,1.331005,315116,14705
1621.49,1.332687,307217,14281
1624.47,1.325153,299481,14165
1627.44,1.326773,292112,13765
1630.41,1.319229,284245,13629
1634.36,1.323498,274079,13013
1637.32,1.325660,266916,12610
1640.27,1.326685,259612,12236
1643.22,1.319427,251804,12068
1646.16,1.313485,244348,11872
1649.1,1.308661,236703,11629
1652.04,1.318529,228171,10958
1655.95,1.312114,215408,10499
1658.88,1.304001,204937,10177
1661.8,1.340435,193395,8831
1664.72,1.332929,179728,8350
1667.63,1.322915,163642,7780
1670.54,1.315738,146312,7072
1673.44,1.317538,128451,6183
1677.31,1.388254,105080,4298
1680.21,1.295526,88906,4502
1683.1,1.312009,75033,3658
1685.99,1.339764,63520,2905
1688.87,1.238306,53714,3103
1691.75,1.429020,45653,1700
1694.62,1.353789,39137,1733
1697.49,1.246893,33776,1913
1701.31,1.348461,28175,1263

File: Column 1_078051_20241121_164304.csv
Method:,Column 1,,
Host Date-Time:,21/11/24 @ 16:43:4,,
Header Version:,1,,
System Temp (C):,30.89,,
Detector Temp (C):,25.64,,
Humidity (%):,5.37,,
Lamp PD:,3810,,
Shift Vector Coefficients:,-10.5391,0.0761263,-0.000134223,,
Pixel to Wavelength Coefficients:,1775.68,-0.916766,-0.000235065,,
Serial Number:,5510004,,
Scan Config Name:,Column 1,,
Scan Config Type:,Slew,,
Section 1,,
Start wavelength (nm):,900,,
End wavelength (nm):,1700,,
Pattern Pixel Width (nm):,   7.03,,,,
Exposure (ms):,  0.635,,,,
Digital Resolution:,228,,
Num Repeats:,6,,
PGA Gain:,64,,
Total Measurement Time in sec:,  2.722,,
Wavelength (nm),Absorbance (AU),Reference Signal (unitless),Sample Signal (unitless)
901.51,1.311340,108485,5297
905.376,1.326031,121306,5726
909.237,1.323978,131909,6256
913.095,1.322841,143299,6814
916.948,1.310658,156982,7677
922.079,1.312319,179937,8766
925.923,1.322893,200504,9533
929.762,1.326039,222660,10510
933.597,1.307557,244426,12039
937.427,1.305083,263972,13076
941.254,1.307308,281845,13890
945.076,1.318303,297271,14284
950.165,1.310834,315605,15428
953.978,1.325412,328029,15506
957.786,1.306072,340470,16827
961.59,1.311329,352317,17203
965.389,1.303689,363056,18042
969.185,1.312901,373162,18155
972.976,1.302750,382632,19056
976.763,1.310368,391202,19144
981.806,1.313704,400190,19434
985.583,1.314176,406088,19699
989.355,1.303986,410162,20369
993.124,1.310073,412868,20218
996.888,1.314123,414263,20098
1000.65,1.312507,415476,20232
1004.4,1.304576,415479,20605
1009.41,1.312067,414358,20198
1013.15,1.315426,412923,19973
1016.89,1.300931,411526,20581
1020.63,1.309224,409066,20071
1024.36,1.305448,406777,20133
1028.09,1.310943,404427,19765
1031.82,1.312251,401911,19583
1036.78,1.313380,398410,19362
1040.49,1.316749,396204,19106
1044.2,1.313474,394236,19155
1047.91,1.314145,392042,19019
1051.61,1.317033,389823,18786
1055.31,1.319604,388234,18599
1059,1.310521,387599,18961
1063.92,1.322897,386688,18385
1067.61,1.317117,386598,18627
1071.29,1.306464,387377,19128
1074.96,1.309172,388536,19066
1078.63,1.316122,389855,18827
1082.3,1.310451,391215,19141
1085.96,1.327552,393215,18496
1090.84,1.312254,396270,19308
1094.49,1.317772,398760,19184
1098.14,1.321370,400987,19132
1101.79,1.321027,403477,19266
1105.43,1.327344,406116,19112
1109.06,1.315787,407701,19704
1112.7,1.318874,409859,19668
1117.53,1.326610,412494,19445
1121.15,1.317749,414909,19962
1124.77,1.325254,416559,19698
1128.38,1.326866,418532,19718
1131.99,1.322521,419956,19984
1135.6,1.326535,421946,19894
1139.2,1.326757,423881,19975
1143.99,1.321176,426786,20372
1147.58,1.322865,428617,20380
1151.17,1.323445,431169,20474
1154.75,1.323032,433579,20608
1158.33,1.318856,436264,20936
1161.91,1.313828,439132,21319
1165.48,1.316305,442389,21355
1169.04,1.315503,446101,21574
1173.79,1.316315,451929,21815
1177.34,1.319339,456026,21860
1180.9,1.322337,461306,21961
1184.44,1.327288,467657,22011
1187.99,1.322334,473969,22564
1191.52,1.324149,479856,22749
1195.06,1.331548,487372,22715
1199.76,1.320484,497347,23778
1203.29,1.320681,504311,24100
1206.81,1.327971,511507,24037
1210.33,1.324209,519078,24605
1213.84,1.318498,527163,25319
1217.35,1.324350,534208,25314
1220.85,1.329087,540472,25333
1225.51,1.323633,549929,26102
1229.01,1.316242,556888,26886
1232.5,1.322811,562180,26734
1235.98,1.323529,567975,26965
1239.46,1.330454,574815,26858
1242.94,1.324629,582782,27598
1246.41,1.320442,591476,28281
1251.03,1.322834,604016,28722
1254.5,1.324963,612289,28973
1257.96,1.329350,619125,29002
1261.41,1.323602,624551,29646
1264.86,1.331900,629900,29334
1268.31,1.327672,634345,29830
1271.75,1.326760,638574,30092
1276.33,1.332535,642499,29877
1279.76,1.330651,645905,30166
1283.19,1.330023,648307,30322
1286.61,1.328129,650446,30555
1290.03,1.330634,652132,30458
1293.44,1.326782,653907,30813
1296.85,1.335021,655963,30329
1301.39,1.331961,657349,30608
1304.8,1.338114,657558,30187
1308.19,1.334437,658515,30488
1311.58,1.328096,658804,30950
1314.97,1.332689,659011,30634
1318.36,1.331649,658272,30673
1321.73,1.336884,658022,30294
1326.23,1.337128,657870,30270
1329.6,1.329109,656482,30769
1332.97,1.334177,654926,30340
1336.33,1.330129,653727,30568
1339.69,1.329567,652497,30550
1343.04,1.331241,649913,30312
1346.39,1.333293,647671,30065
1349.73,1.333564,645338,29938
1354.18,1.331960,641175,29855
1357.52,1.332189,638376,29709
1360.85,1.334991,635805,29399
1364.17,1.336587,633413,29181
1367.49,1.333639,631026,29269
1370.81,1.329765,628050,29392
1374.12,1.325464,625034,29542
1378.54,1.324471,620272,29384
1381.84,1.323119,616892,29315
1385.14,1.325736,613613,28984
1388.43,1.328412,611526,28708
1391.72,1.335260,610663,28219
1395.01,1.333044,610634,28362
1398.29,1.329065,611700,28673
1402.66,1.328963,614051,28790
1405.93,1.331555,616268,28722
1409.2,1.332811,617795,28710
1412.46,1.330162,618872,28936
1415.72,1.329506,619795,29023
1418.98,1.337223,620495,28544
1422.23,1.335271,621087,28700
1426.56,1.328194,621375,29185
1429.8,1.337992,621616,28545
1433.04,1.334081,622129,28827
1436.27,1.334806,621526,28751
1439.5,1.333266,621113,28834
1442.72,1.330489,620921,29010
1445.94,1.337340,620270,28526
1450.23,1.340267,618860,28270
1453.44,1.337197,617697,28417
1456.64,1.339348,616264,28211
1459.85,1.337980,614413,28215
1463.04,1.334692,612307,28332
1466.24,1.335720,610032,28160
1469.43,1.331864,607345,28286
1473.67,1.337560,603789,27754
1476.85,1.341250,601175,27400
1480.02,1.332309,597737,27810
1483.19,1.333212,594479,27601
1486.36,1.336854,591232,27221
1489.52,1.334205,587853,27231
1492.68,1.341389,583875,26603
1496.89,1.340996,578062,26362
1500.03,1.342858,574159,26072
1503.18,1.338039,570285,26185
1506.32,1.340635,565444,25808
1509.45,1.340594,560571,25588
1512.58,1.337204,555821,25570
1515.71,1.341774,550344,25053
1519.87,1.341782,543983,24763
1522.99,1.345328,538764,24326
1526.1,1.335333,533692,24658
1529.21,1.336518,527902,24324
1532.32,1.336406,521886,24053
1535.42,1.345591,515888,23279
1538.51,1.335476,509987,23555
1541.6,1.337562,503936,23164
1545.72,1.339998,494694,22612
1548.8,1.342051,488378,22218
1551.88,1.341244,481832,21961
1554.95,1.336696,474989,21877
1558.02,1.346660,467818,21058
1561.08,1.338485,460730,21133
1564.15,1.337031,454170,20902
1568.22,1.335361,444181,20521
1571.27,1.334326,436947,20235
1574.32,1.336551,429598,19793
1577.36,1.335229,422039,19504
1580.4,1.331544,414375,19313
1583.43,1.332926,406354,18879
1586.46,1.331496,398475,18574
1590.49,1.330646,388982,18167
1593.51,1.339644,380708,17416
1596.53,1.336646,372727,17169
1599.54,1.327645,365060,17168
1602.55,1.325827,357543,16885
1605.55,1.323228,349495,16604
1608.55,1.323194,341154,16209
1612.54,1.326960,330877,15585
1615.53,1.325547,322904,15259
1618.51,1.323249,315116,14970
1621.49,1.328842,307217,14408
1624.47,1.320699,299481,14311
1627.44,1.317533,292112,14061
1630.41,1.333349,284245,13193
1634.36,1.313404,274079,13319
1637.32,1.321956,266916,12718
1640.27,1.320553,259612,12410
1643.22,1.328666,251804,11814
1646.16,1.322578,244348,11626
1649.1,1.319629,236703,11339
1652.04,1.324595,228171,10806
1655.95,1.320551,215408,10297
1658.88,1.308031,204937,10083
1661.8,1.324455,193395,9162
1664.72,1.302938,179728,8947
1667.63,1.341739,163642,7450
1670.54,1.340308,146312,6683
1673.44,1.320428,128451,6142
1677.31,1.348038,105080,4715
1680.21,1.292354,88906,4535
1683.1,1.306816,75033,3702
1685.99,1.387103,63520,2605
1688.87,1.353146,53714,2382
1691.75,1.328853,45653,2141
1694.62,1.443985,39137,1408
1697.49,1.491182,33776,1090
1701.31,1.309985,28175,1380

File: Column 1_078052_20241121_164307.csv
Method:,Column 1,,
Host Date-Time:,21/11/24 @ 16:43:7,,
Header Version:,1,,
System Temp (C):,30.9,,
Detector Temp (C):,25.69,,
Humidity (%):,5.37,,
Lamp PD:,3810,,
Shift Vector Coefficients:,-10.5391,0.0761263,-0.000134223,,
Pixel to Wavelength Coefficients:,1775.68,-0.916766,-0.000235065,,
Serial Number:,5510004,,
Scan Config Name:,Column 1,,
Scan Config Type:,Slew,,
Section 1,,
Start wavelength (nm):,900,,
End wavelength (nm):,1700,,
Pattern Pixel Width (nm):,   7.03,,,,
Exposure (ms):,  0.635,,,,
Digital Resolution:,228,,
Num Repeats:,6,,
PGA Gain:,64,,
Total Measurement Time in sec:,  2.706,,
Wavelength (nm),Absorbance (AU),Reference Signal (unitless),Sample Signal (unitless)
901.51,1.322973,108485,5157
905.376,1.328923,121306,5688
909.237,1.296474,131909,6665
913.095,1.316639,143299,6912
916.948,1.325095,156982,7426
922.079,1.306512,179937,8884
925.923,1.319354,200504,9611
929.762,1.300212,222660,11154
933.597,1.309763,244426,11978
937.427,1.313738,263972,12818
941.254,1.318809,281845,13527
945.076,1.318485,297271,14278
950.165,1.305435,315605,15621
953.978,1.311629,328029,16006
957.786,1.315412,340470,16469
961.59,1.304442,352317,17478
965.389,1.314288,363056,17607
969.185,1.308190,373162,18353
972.976,1.312545,382632,18631
976.763,1.316882,391202,18859
981.806,1.308440,400190,19671
985.583,1.308960,406088,19937
989.355,1.305716,410162,20288
993.124,1.315564,412868,19964
996.888,1.300446,414263,20741
1000.65,1.319366,415476,19915
1004.4,1.308408,415479,20424
1009.41,1.311358,414358,20231
1013.15,1.308972,412923,20272
1016.89,1.307394,411526,20277
1020.63,1.313945,409066,19854
1024.36,1.318365,406777,19543
1028.09,1.310746,404427,19774
1031.82,1.309840,401911,19692
1036.78,1.309984,398410,19514
1040.49,1.315365,396204,19167
1044.2,1.316272,394236,19032
1047.91,1.305441,392042,19404
1051.61,1.318376,389823,18728
1055.31,1.307333,388234,19132
1059,1.310086,387599,18980
1063.92,1.307466,386688,19050
1067.61,1.314027,386598,18760
1071.29,1.312730,387377,18854
1074.96,1.314166,388536,18848
1078.63,1.306066,389855,19268
1082.3,1.302960,391215,19474
1085.96,1.319296,393215,18851
1090.84,1.318370,396270,19038
1094.49,1.314637,398760,19323
1098.14,1.320599,400987,19166
1101.79,1.325218,403477,19081
1105.43,1.313677,406116,19723
1109.06,1.311336,407701,19907
1112.7,1.321421,409859,19553
1117.53,1.316652,412494,19896
1121.15,1.315535,414909,20064
1124.77,1.315595,416559,20141
1128.38,1.319095,418532,20074
1131.99,1.320462,419956,20079
1135.6,1.315797,421946,20392
1139.2,1.321141,423881,20235
1143.99,1.322864,426786,20293
1147.58,1.317739,428617,20622
1151.17,1.319202,431169,20675
1154.75,1.324933,433579,20518
1158.33,1.324808,436264,20651
1161.91,1.321121,439132,20964
1165.48,1.325243,442389,20920
1169.04,1.316752,446101,21512
1173.79,1.319793,451929,21641
1177.34,1.319936,456026,21830
1180.9,1.315061,461306,22332
1184.44,1.314744,467657,22656
1187.99,1.319189,473969,22728
1191.52,1.327753,479856,22561
1195.06,1.331816,487372,22701
1199.76,1.323582,497347,23609
1203.29,1.327309,504311,23735
1206.81,1.320164,511507,24473
1210.33,1.321552,519078,24756
1213.84,1.327949,527163,24774
1217.35,1.325105,534208,25270
1220.85,1.332771,540472,25119
1225.51,1.324616,549929,26043
1229.01,1.322145,556888,26523
1232.5,1.320446,562180,26880
1235.98,1.326389,567975,26788
1239.46,1.324528,574815,27227
1242.94,1.327803,582782,27397
1246.41,1.322042,591476,28177
1251.03,1.329477,604016,28286
1254.5,1.330150,612289,28629
1257.96,1.325549,619125,29257
1261.41,1.329724,624551,29231
1264.86,1.325478,629900,29771
1268.31,1.327410,634345,29848
1271.75,1.326919,638574,30081
1276.33,1.331737,642499,29932
1279.76,1.325570,645905,30521
1283.19,1.326713,648307,30554
1286.61,1.331296,650446,30333
1290.03,1.328855,652132,30583
1293.44,1.330988,653907,30516
1296.85,1.329812,655963,30695
1301.39,1.333211,657349,30520
1304.8,1.332355,657558,30590
1308.19,1.325624,658515,31113
1311.58,1.337859,658804,30262
1314.97,1.334166,659011,30530
1318.36,1.331437,658272,30688
1321.73,1.328423,658022,30890
1326.23,1.333044,657870,30556
1329.6,1.333008,656482,30494
1332.97,1.336142,654926,30203
1336.33,1.331025,653727,30505
1339.69,1.331519,652497,30413
1343.04,1.330997,649913,30329
1346.39,1.328795,647671,30378
1349.73,1.333187,645338,29964
1354.18,1.331960,641175,29855
1357.52,1.334548,638376,29548
1360.85,1.328380,635805,29850
1364.17,1.331012,633413,29558
1367.49,1.327525,631026,29684
1370.81,1.329824,628050,29388
1374.12,1.332518,625034,29066
1378.54,1.332196,620272,28866
1381.84,1.327437,616892,29025
1385.14,1.332182,613613,28557
1388.43,1.329624,611526,28628
1391.72,1.325776,610663,28842
1395.01,1.326524,610634,28791
1398.29,1.330370,611700,28587
1402.66,1.327953,614051,28857
1405.93,1.329488,616268,28859
1409.2,1.336457,617795,28470
1412.46,1.334022,618872,28680
1415.72,1.336551,619795,28556
1418.98,1.333814,620495,28769
1422.23,1.331759,621087,28933
1426.56,1.336032,621375,28663
1429.8,1.336246,621616,28660
1433.04,1.330974,622129,29034
1436.27,1.336441,621526,28643
1439.5,1.335561,621113,28682
1442.72,1.334232,620921,28761
1445.94,1.337477,620270,28517
1450.23,1.335758,618860,28565
1453.44,1.337947,617697,28368
1456.64,1.336862,616264,28373
1459.85,1.332429,614413,28578
1463.04,1.338495,612307,28085
1466.24,1.337420,610032,28050
1469.43,1.338517,607345,27856
1473.67,1.330651,603789,28199
1476.85,1.339305,601175,27523
1480.02,1.333936,597737,27706
1483.19,1.341552,594479,27076
1486.36,1.336758,591232,27227
1489.52,1.342790,587853,26698
1492.68,1.339142,583875,26741
1496.89,1.340584,578062,26387
1500.03,1.339837,574159,26254
1503.18,1.339884,570285,26074
1506.32,1.338537,565444,25933
1509.45,1.341104,560571,25558
1512.58,1.346526,555821,25027
1515.71,1.338321,550344,25253
1519.87,1.333135,543983,25261
1522.99,1.335880,538764,24861
1526.1,1.336426,533692,24596
1529.21,1.340789,527902,24086
1532.32,1.339014,521886,23909
1535.42,1.339092,515888,23630
1538.51,1.338121,509987,23412
1541.6,1.341044,503936,22979
1545.72,1.335431,494694,22851
1548.8,1.337617,488378,22446
1551.88,1.341066,481832,21970
1554.95,1.337670,474989,21828
1558.02,1.343721,467818,21201
1561.08,1.330846,460730,21508
1564.15,1.331888,454170,21151
1568.22,1.335594,444181,20510
1571.27,1.333939,436947,20253
1574.32,1.335652,429598,19834
1577.36,1.334450,422039,19539
1580.4,1.326069,414375,19558
1583.43,1.342344,406354,18474
1586.46,1.340115,398475,18209
1590.49,1.347512,388982,17475
1593.51,1.329441,380708,17830
1596.53,1.327733,372727,17525
1599.54,1.330334,365060,17062
1602.55,1.339359,357543,16367
1605.55,1.324250,349495,16565
1608.55,1.326502,341154,16086
1612.54,1.319528,330877,15854
1615.53,1.323446,322904,15333
1618.51,1.325634,315116,14888
1621.49,1.324284,307217,14560
1624.47,1.332262,299481,13935
1627.44,1.332394,292112,13588
1630.41,1.324132,284245,13476
1634.36,1.328669,274079,12859
1637.32,1.333549,266916,12383
1640.27,1.329606,259612,12154
1643.22,1.328666,251804,11814
1646.16,1.319007,244348,11722
1649.1,1.321010,236703,11303
1652.04,1.319919,228171,10923
1655.95,1.323259,215408,10233
1658.88,1.326868,204937,9655
1661.8,1.330757,193395,9030
1664.72,1.318303,179728,8636
1667.63,1.312382,163642,7971
1670.54,1.322296,146312,6966
1673.44,1.324192,128451,6089
1677.31,1.310472,105080,5141
1680.21,1.318401,88906,4271
1683.1,1.313793,75033,3643
1685.99,1.325211,63520,3004
1688.87,1.387467,53714,2201
1691.75,1.282345,45653,2383
1694.62,1.405631,39137,1538
1697.49,1.245533,33776,1919
1701.31,1.512346,28175,866