Folder: textile_sorting_NIRSCAN_/samples/unknown (part 8)

File: Column 1_078044_20241121_164244.csv
Method:,Column 1,,
Host Date-Time:,21/11/24 @ 16:42:44,,
Header Version:,1,,
System Temp (C):,30.63,,
Detector Temp (C):,25.4,,
Humidity (%):,5.51,,
Lamp PD:,3811,,
Shift Vector Coefficients:,-10.5391,0.0761263,-0.000134223,,
Pixel to Wavelength Coefficients:,1775.68,-0.916766,-0.000235065,,
Serial Number:,5510004,,
Scan Config Name:,Column 1,,
Scan Config Type:,Slew,,
Section 1,,
Start wavelength (nm):,900,,
End wavelength (nm):,1700,,
Pattern Pixel Width (nm):,   7.03,,,,
Exposure (ms):,  0.635,,,,
Digital Resolution:,228,,
Num Repeats:,6,,
PGA Gain:,64,,
Total Measurement Time in sec:,  2.732,,
Wavelength (nm),Absorbance (AU),Reference Signal (unitless),Sample Signal (unitless)
901.51,1.296431,108485,5482
905.376,1.317916,121306,5834
909.237,1.328654,131909,6189
913.095,1.301330,143299,7160
916.948,1.320152,156982,7511
922.079,1.311033,179937,8792
925.923,1.309658,200504,9828
929.762,1.328111,222660,10460
933.597,1.314466,244426,11849
937.427,1.307982,263972,12989
941.254,1.315833,281845,13620
945.076,1.304832,297271,14734
950.165,1.306437,315605,15585
953.978,1.311847,328029,15998
957.786,1.317738,340470,16381
961.59,1.307384,352317,17360
965.389,1.309944,363056,17784
969.185,1.311754,373162,18203
972.976,1.313852,382632,18575
976.763,1.319701,391202,18737
981.806,1.309678,400190,19615
985.583,1.311911,406088,19802
989.355,1.307153,410162,20221
993.124,1.310718,412868,20188
996.888,1.311409,414263,20224
1000.65,1.313732,415476,20175
1004.4,1.318693,415479,19946
1009.41,1.312282,414358,20188
1013.15,1.310453,412923,20203
1016.89,1.317842,411526,19795
1020.63,1.320536,409066,19555
1024.36,1.316768,406777,19615
1028.09,1.312220,404427,19707
1031.82,1.312317,401911,19580
1036.78,1.313559,398410,19354
1040.49,1.312497,396204,19294
1044.2,1.311935,394236,19223
1047.91,1.310507,392042,19179
1051.61,1.318515,389823,18722
1055.31,1.314312,388234,18827
1059,1.312657,387599,18868
1063.92,1.315891,386688,18684
1067.61,1.310338,386598,18920
1071.29,1.318925,387377,18587
1074.96,1.328121,388536,18252
1078.63,1.313821,389855,18927
1082.3,1.321760,391215,18649
1085.96,1.323532,393215,18668
1090.84,1.315097,396270,19182
1094.49,1.323790,398760,18920
1098.14,1.316046,400987,19368
1101.79,1.324104,403477,19130
1105.43,1.322261,406116,19337
1109.06,1.317643,407701,19620
1112.7,1.329854,409859,19177
1117.53,1.316586,412494,19899
1121.15,1.311549,414909,20249
1124.77,1.324065,416559,19752
1128.38,1.318360,418532,20108
1131.99,1.322391,419956,19990
1135.6,1.317461,421946,20314
1139.2,1.323141,423881,20142
1143.99,1.326366,426786,20130
1147.58,1.325130,428617,20274
1151.17,1.328201,431169,20251
1154.75,1.322464,433579,20635
1158.33,1.318814,436264,20938
1161.91,1.319260,439132,21054
1165.48,1.325160,442389,20924
1169.04,1.330827,446101,20826
1173.79,1.326793,451929,21295
1177.34,1.323953,456026,21629
1180.9,1.317538,461306,22205
1184.44,1.321759,467657,22293
1187.99,1.321641,473969,22600
1191.52,1.323481,479856,22784
1195.06,1.324474,487372,23088
1199.76,1.325629,497347,23498
1203.29,1.325520,504311,23833
1206.81,1.326096,511507,24141
1210.33,1.319959,519078,24847
1213.84,1.322773,527163,25071
1217.35,1.323065,534208,25389
1220.85,1.331562,540472,25189
1225.51,1.322835,549929,26150
1229.01,1.328396,556888,26144
1232.5,1.332802,562180,26126
1235.98,1.323255,567975,26982
1239.46,1.322444,574815,27358
1242.94,1.320852,582782,27839
1246.41,1.328267,591476,27776
1251.03,1.330553,604016,28216
1254.5,1.328273,612289,28753
1257.96,1.328363,619125,29068
1261.41,1.326291,624551,29463
1264.86,1.324968,629900,29806
1268.31,1.327047,634345,29873
1271.75,1.329482,638574,29904
1276.33,1.328614,642499,30148
1279.76,1.333888,645905,29942
1283.19,1.329021,648307,30392
1286.61,1.336872,650446,29946
1290.03,1.332778,652132,30308
1293.44,1.334260,653907,30287
1296.85,1.330690,655963,30633
1301.39,1.332799,657349,30549
1304.8,1.332596,657558,30573
1308.19,1.333654,658515,30543
1311.58,1.330417,658804,30785
1314.97,1.331443,659011,30722
1318.36,1.334390,658272,30480
1321.73,1.335253,658022,30408
1326.23,1.339934,657870,30075
1329.6,1.337662,656482,30169
1332.97,1.332947,654926,30426
1336.33,1.334571,653727,30257
1339.69,1.330151,652497,30509
1343.04,1.335879,649913,29990
1346.39,1.326941,647671,30508
1349.73,1.327686,645338,30346
1354.18,1.333767,641175,29731
1357.52,1.326077,638376,30130
1360.85,1.331065,635805,29666
1364.17,1.325305,633413,29949
1367.49,1.329607,631026,29542
1370.81,1.329750,628050,29393
1374.12,1.328947,625034,29306
1378.54,1.332768,620272,28828
1381.84,1.330847,616892,28798
1385.14,1.328562,613613,28796
1388.43,1.331722,611526,28490
1391.72,1.334092,610663,28295
1395.01,1.331516,610634,28462
1398.29,1.330735,611700,28563
1402.66,1.331474,614051,28624
1405.93,1.328361,616268,28934
1409.2,1.326832,617795,29108
1412.46,1.336497,618872,28517
1415.72,1.334412,619795,28697
1418.98,1.339282,620495,28409
1422.23,1.335286,621087,28699
1426.56,1.340357,621375,28379
1429.8,1.339379,621616,28454
1433.04,1.329883,622129,29107
1436.27,1.339667,621526,28431
1439.5,1.341906,621113,28266
1442.72,1.334127,620921,28768
1445.94,1.337249,620270,28532
1450.23,1.332079,618860,28808
1453.44,1.340865,617697,28178
1456.64,1.336418,616264,28402
1459.85,1.335815,614413,28356
1463.04,1.336951,612307,28185
1466.24,1.342497,610032,27724
1469.43,1.339156,607345,27815
1473.67,1.335670,603789,27875
1476.85,1.343874,601175,27235
1480.02,1.341431,597737,27232
1483.19,1.337243,594479,27346
1486.36,1.338564,591232,27114
1489.52,1.339791,587853,26883
1492.68,1.344634,583875,26405
1496.89,1.336424,578062,26641
1500.03,1.338235,574159,26351
1503.18,1.338272,570285,26171
1506.32,1.342862,565444,25676
1509.45,1.345150,560571,25321
1512.58,1.333939,555821,25763
1515.71,1.342451,550344,25014
1519.87,1.337576,543983,25004
1522.99,1.338737,538764,24698
1526.1,1.340881,533692,24345
1529.21,1.341709,527902,24035
1532.32,1.337509,521886,23992
1535.42,1.343934,515888,23368
1538.51,1.344624,509987,23064
1541.6,1.344745,503936,22784
1545.72,1.329823,494694,23148
1548.8,1.341543,488378,22244
1551.88,1.346356,481832,21704
1554.95,1.342391,474989,21592
1558.02,1.337255,467818,21519
1561.08,1.342470,460730,20940
1564.15,1.336076,454170,20948
1568.22,1.336039,444181,20489
1571.27,1.350416,436947,19499
1574.32,1.344522,429598,19433
1577.36,1.333318,422039,19590
1580.4,1.341783,414375,18863
1583.43,1.346596,406354,18294
1586.46,1.329885,398475,18643
1590.49,1.331436,388982,18134
1593.51,1.333995,380708,17644
1596.53,1.333897,372727,17278
1599.54,1.342021,365060,16609
1602.55,1.331393,357543,16670
1605.55,1.334677,349495,16172
1608.55,1.328722,341154,16004
1612.54,1.339569,330877,15139
1615.53,1.330557,322904,15084
1618.51,1.331094,315116,14702
1621.49,1.333874,307217,14242
1624.47,1.319760,299481,14342
1627.44,1.328164,292112,13721
1630.41,1.327237,284245,13380
1634.36,1.331515,274079,12775
1637.32,1.331380,266916,12445
1640.27,1.322974,259612,12341
1643.22,1.322352,251804,11987
1646.16,1.321497,244348,11655
1649.1,1.339375,236703,10835
1652.04,1.334432,228171,10564
1655.95,1.323981,215408,10216
1658.88,1.328852,204937,9611
1661.8,1.325072,193395,9149
1664.72,1.330647,179728,8394
1667.63,1.332738,163642,7606
1670.54,1.330160,146312,6841
1673.44,1.317819,128451,6179
1677.31,1.326389,105080,4956
1680.21,1.339871,88906,4065
1683.1,1.427939,75033,2801
1685.99,1.323191,63520,3018
1688.87,1.344481,53714,2430
1691.75,1.402031,45653,1809
1694.62,1.351041,39137,1744
1697.49,1.488402,33776,1097
1701.31,1.272039,28175,1506

File: Column 1_078046_20241121_164250.csv
Method:,Column 1,,
Host Date-Time:,21/11/24 @ 16:42:50,,
Header Version:,1,,
System Temp (C):,30.7,,
Detector Temp (C):,25.49,,
Humidity (%):,5.36,,
Lamp PD:,3810,,
Shift Vector Coefficients:,-10.5391,0.0761263,-0.000134223,,
Pixel to Wavelength Coefficients:,1775.68,-0.916766,-0.000235065,,
Serial Number:,5510004,,
Scan Config Name:,Column 1,,
Scan Config Type:,Slew,,
Section 1,,
Start wavelength (nm):,900,,
End wavelength (nm):,1700,,
Pattern Pixel Width (nm):,   7.03,,,,
Exposure (ms):,  0.635,,,,
Digital Resolution:,228,,
Num Repeats:,6,,
PGA Gain:,64,,
Total Measurement Time in sec:,  2.706,,
Wavelength (nm),Absorbance (AU),Reference Signal (unitless),Sample Signal (unitless)
901.51,1.300010,108485,5437
905.376,1.325349,121306,5735
909.237,1.317296,131909,6353
913.095,1.340533,143299,6542
916.948,1.312359,156982,7647
922.079,1.311923,179937,8774
925.923,1.310100,200504,9818
929.762,1.304123,222660,11054
933.597,1.299763,244426,12257
937.427,1.318199,263972,12687
941.254,1.310887,281845,13776
945.076,1.326590,297271,14014
950.165,1.324038,315605,14966
953.978,1.309356,328029,16090
957.786,1.319678,340470,16308
961.59,1.315540,352317,17037
965.389,1.314116,363056,17614
969.185,1.315709,373162,18038
972.976,1.315633,382632,18499
976.763,1.317459,391202,18834
981.806,1.307073,400190,19733
985.583,1.306419,406088,20054
989.355,1.308142,410162,20175
993.124,1.304630,412868,20473
996.888,1.314837,414263,20065
1000.65,1.309171,415476,20388
1004.4,1.307050,415479,20488
1009.41,1.308875,414358,20347
1013.15,1.308437,412923,20297
1016.89,1.315762,411526,19890
1020.63,1.315260,409066,19794
1024.36,1.313569,406777,19760
1028.09,1.309211,404427,19844
1031.82,1.312850,401911,19556
1036.78,1.311723,398410,19436
1040.49,1.315002,396204,19183
1044.2,1.325054,394236,18651
1047.91,1.310122,392042,19196
1051.61,1.308721,389823,19149
1055.31,1.319814,388234,18590
1059,1.312680,387599,18867
1063.92,1.315589,386688,18697
1067.61,1.315976,386598,18676
1071.29,1.315874,387377,18718
1074.96,1.311227,388536,18976
1078.63,1.315431,389855,18857
1082.3,1.305690,391215,19352
1085.96,1.314279,393215,19070
1090.84,1.320497,396270,18945
1094.49,1.315650,398760,19278
1098.14,1.322302,400987,19091
1101.79,1.313430,403477,19606
1105.43,1.317548,406116,19548
1109.06,1.321020,407701,19468
1112.7,1.317970,409859,19709
1117.53,1.319675,412494,19758
1121.15,1.319253,414909,19893
1124.77,1.325409,416559,19691
1128.38,1.320851,418532,19993
1131.99,1.325028,419956,19869
1135.6,1.330152,421946,19729
1139.2,1.315299,423881,20509
1143.99,1.321219,426786,20370
1147.58,1.317339,428617,20641
1151.17,1.318677,431169,20700
1154.75,1.319339,433579,20784
1158.33,1.322125,436264,20779
1161.91,1.323677,439132,20841
1165.48,1.324330,442389,20964
1169.04,1.313534,446101,21672
1173.79,1.316933,451929,21784
1177.34,1.323171,456026,21668
1180.9,1.314848,461306,22343
1184.44,1.327880,467657,21981
1187.99,1.320030,473969,22684
1191.52,1.322320,479856,22845
1195.06,1.330192,487372,22786
1199.76,1.319918,497347,23809
1203.29,1.326797,504311,23763
1206.81,1.325916,511507,24151
1210.33,1.323680,519078,24635
1213.84,1.327616,527163,24793
1217.35,1.329215,534208,25032
1220.85,1.325433,540472,25547
1225.51,1.326186,549929,25949
1229.01,1.327052,556888,26225
1232.5,1.323624,562180,26684
1235.98,1.325385,567975,26850
1239.46,1.326318,574815,27115
1242.94,1.326000,582782,27511
1246.41,1.328189,591476,27781
1251.03,1.323575,604016,28673
1254.5,1.328213,612289,28757
1257.96,1.324155,619125,29351
1261.41,1.324306,624551,29598
1264.86,1.328744,629900,29548
1268.31,1.329160,634345,29728
1271.75,1.329860,638574,29878
1276.33,1.330534,642499,30015
1279.76,1.330795,645905,30156
1283.19,1.328564,648307,30424
1286.61,1.333967,650446,30147
1290.03,1.331362,652132,30407
1293.44,1.330079,653907,30580
1296.85,1.335451,655963,30299
1301.39,1.334009,657349,30464
1304.8,1.334190,657558,30461
1308.19,1.330834,658515,30742
1311.58,1.334172,658804,30520
1314.97,1.333441,659011,30581
1318.36,1.330998,658272,30719
1321.73,1.337601,658022,30244
1326.23,1.331568,657870,30660
1329.6,1.334464,656482,30392
1332.97,1.333819,654926,30365
1336.33,1.339319,653727,29928
1339.69,1.335868,652497,30110
1343.04,1.326127,649913,30671
1346.39,1.334392,647671,29989
1349.73,1.334421,645338,29879
1354.18,1.332527,641175,29816
1357.52,1.333081,638376,29648
1360.85,1.331724,635805,29621
1364.17,1.334301,633413,29335
1367.49,1.336005,631026,29110
1370.81,1.337111,628050,28899
1374.12,1.329614,625034,29261
1378.54,1.333069,620272,28808
1381.84,1.331934,616892,28726
1385.14,1.332000,613613,28569
1388.43,1.331890,611526,28479
1391.72,1.331979,610663,28433
1395.01,1.330327,610634,28540
1398.29,1.320442,611700,29248
1402.66,1.329914,614051,28727
1405.93,1.331661,616268,28715
1409.2,1.331045,617795,28827
1412.46,1.329862,618872,28956
1415.72,1.332268,619795,28839
1418.98,1.333693,620495,28777
1422.23,1.332044,621087,28914
1426.56,1.334837,621375,28742
1429.8,1.334582,621616,28770
1433.04,1.332547,622129,28929
1436.27,1.337944,621526,28544
1439.5,1.333808,621113,28798
1442.72,1.336473,620921,28613
1445.94,1.335396,620270,28654
1450.23,1.332200,618860,28800
1453.44,1.341868,617697,28113
1456.64,1.336800,616264,28377
1459.85,1.341318,614413,27999
1463.04,1.338974,612307,28054
1466.24,1.343359,610032,27669
1469.43,1.338143,607345,27880
1473.67,1.345327,603789,27262
1476.85,1.337997,601175,27606
1480.02,1.336799,597737,27524
1483.19,1.337592,594479,27324
1486.36,1.334626,591232,27361
1489.52,1.339613,587853,26894
1492.68,1.339630,583875,26711
1496.89,1.339401,578062,26459
1500.03,1.345012,574159,25943
1503.18,1.337724,570285,26204
1506.32,1.346122,565444,25484
1509.45,1.345991,560571,25272
1512.58,1.338736,555821,25480
1515.71,1.340563,550344,25123
1519.87,1.344421,543983,24613
1522.99,1.338649,538764,24703
1526.1,1.338941,533692,24454
1529.21,1.340662,527902,24093
1532.32,1.341729,521886,23760
1535.42,1.341913,515888,23477
1538.51,1.347136,509987,22931
1541.6,1.337974,503936,23142
1545.72,1.339326,494694,22647
1548.8,1.343637,488378,22137
1551.88,1.337581,481832,22147
1554.95,1.335704,474989,21927
1558.02,1.345445,467818,21117
1561.08,1.333947,460730,21355
1564.15,1.332134,454170,21139
1568.22,1.337568,444181,20417
1571.27,1.334090,436947,20246
1574.32,1.340806,429598,19600
1577.36,1.331769,422039,19660
1580.4,1.341208,414375,18888
1583.43,1.326622,406354,19155
1586.46,1.336056,398475,18380
1590.49,1.329572,388982,18212
1593.51,1.336612,380708,17538
1596.53,1.336798,372727,17163
1599.54,1.333861,365060,16924
1602.55,1.343358,357543,16217
1605.55,1.322340,349495,16638
1608.55,1.321456,341154,16274
1612.54,1.327713,330877,15558
1615.53,1.336033,322904,14895
1618.51,1.333909,315116,14607
1621.49,1.331563,307217,14318
1624.47,1.331702,299481,13953
1627.44,1.331787,292112,13607
1630.41,1.337816,284245,13058
1634.36,1.328095,274079,12876
1637.32,1.327592,266916,12554
1640.27,1.336703,259612,11957
1643.22,1.329402,251804,11794
1646.16,1.329165,244348,11451
1649.1,1.319974,236703,11330
1652.04,1.313486,228171,11086
1655.95,1.313440,215408,10467
1658.88,1.332482,204937,9531
1661.8,1.339257,193395,8855
1664.72,1.302599,179728,8954
1667.63,1.333710,163642,7589
1670.54,1.322109,146312,6969
1673.44,1.331601,128451,5986
1677.31,1.323158,105080,4993
1680.21,1.359205,88906,3888
1683.1,1.419190,75033,2858
1685.99,1.291428,63520,3247
1688.87,1.285574,53714,2783
1691.75,1.342033,45653,2077
1694.62,1.429725,39137,1455
1697.49,1.293080,33776,1720
1701.31,1.284620,28175,1463

File: Column 1_078048_20241121_164256.csv
Method:,Column 1,,
Host Date-Time:,21/11/24 @ 16:42:56,,
Header Version:,1,,
System Temp (C):,30.77,,
Detector Temp (C):,25.58,,
Humidity (%):,5.36,,
Lamp PD:,3810,,
Shift Vector Coefficients:,-10.5391,0.0761263,-0.000134223,,
Pixel to Wavelength Coefficients:,1775.68,-0.916766,-0.000235065,,
Serial Number:,5510004,,
Scan Config Name:,Column 1,,
Scan Config Type:,Slew,,
Section 1,,
Start wavelength (nm):,900,,
End wavelength (nm):,1700,,
Pattern Pixel Width (nm):,   7.03,,,,
Exposure (ms):,  0.635,,,,
Digital Resolution:,228,,
Num Repeats:,6,,
PGA Gain:,64,,
Total Measurement Time in sec:,  2.725,,
Wavelength (nm),Absorbance (AU),Reference Signal (unitless),Sample Signal (unitless)
901.51,1.320621,108485,5185
905.376,1.320604,121306,5798
909.237,1.334162,131909,6111
913.095,1.303824,143299,7119
916.948,1.295592,156982,7948
922.079,1.308865,179937,8836
925.923,1.316741,200504,9669
929.762,1.309857,222660,10909
933.597,1.341496,244426,11134
937.427,1.329083,263972,12373
941.254,1.315833,281845,13620
945.076,1.320772,297271,14203
950.165,1.308392,315605,15515
953.978,1.310032,328029,16065
957.786,1.312704,340470,16572
961.59,1.311355,352317,17202
965.389,1.310384,363056,17766
969.185,1.309565,373162,18295
972.976,1.303685,382632,19015
976.763,1.319469,391202,18747
981.806,1.311742,400190,19522
985.583,1.309047,406088,19933
989.355,1.322009,410162,19541
993.124,1.318927,412868,19810
996.888,1.315921,414263,20015
1000.65,1.311499,415476,20279
1004.4,1.312940,415479,20212
1009.41,1.311466,414358,20226
1013.15,1.313235,412923,20074
1016.89,1.311158,411526,20102
1020.63,1.308619,409066,20099
1024.36,1.311859,406777,19838
1028.09,1.314318,404427,19612
1031.82,1.317426,401911,19351
1036.78,1.312349,398410,19408
1040.49,1.313624,396204,19244
1044.2,1.328279,394236,18513
1047.91,1.310982,392042,19158
1051.61,1.310357,389823,19077
1055.31,1.323615,388234,18428
1059,1.305262,387599,19192
1063.92,1.314151,386688,18759
1067.61,1.311396,386598,18874
1071.29,1.316850,387377,18676
1074.96,1.322072,388536,18508
1078.63,1.311875,389855,19012
1082.3,1.325009,391215,18510
1085.96,1.325865,393215,18568
1090.84,1.314984,396270,19187
1094.49,1.313649,398760,19367
1098.14,1.321665,400987,19119
1101.79,1.322020,403477,19222
1105.43,1.315420,406116,19644
1109.06,1.317931,407701,19607
1112.7,1.323246,409859,19471
1117.53,1.319147,412494,19782
1121.15,1.318446,414909,19930
1124.77,1.308728,416559,20462
1128.38,1.320091,418532,20028
1131.99,1.330394,419956,19625
1135.6,1.313545,421946,20498
1139.2,1.316593,423881,20448
1143.99,1.328464,426786,20033
1147.58,1.324894,428617,20285
1151.17,1.317525,431169,20755
1154.75,1.328226,433579,20363
1158.33,1.325903,436264,20599
1161.91,1.327045,439132,20680
1165.48,1.325616,442389,20902
1169.04,1.324966,446101,21109
1173.79,1.322692,451929,21497
1177.34,1.316843,456026,21986
1180.9,1.319656,461306,22097
1184.44,1.324299,467657,22163
1187.99,1.322315,473969,22565
1191.52,1.323233,479856,22797
1195.06,1.326435,487372,22984
1199.76,1.323858,497347,23594
1203.29,1.326231,504311,23794
1206.81,1.325827,511507,24156
1210.33,1.327772,519078,24404
1213.84,1.324874,527163,24950
1217.35,1.326551,534208,25186
1220.85,1.322266,540472,25734
1225.51,1.325868,549929,25968
1229.01,1.327036,556888,26226
1232.5,1.325304,562180,26581
1235.98,1.326340,567975,26791
1239.46,1.320053,574815,27509
1242.94,1.321539,582782,27795
1246.41,1.321703,591476,28199
1251.03,1.333952,604016,27996
1254.5,1.326886,612289,28845
1257.96,1.332657,619125,28782
1261.41,1.330334,624551,29190
1264.86,1.328288,629900,29579
1268.31,1.330609,634345,29629
1271.75,1.328930,638574,29942
1276.33,1.330650,642499,30007
1279.76,1.331242,645905,30125
1283.19,1.332839,648307,30126
1286.61,1.330995,650446,30354
1290.03,1.333079,652132,30287
1293.44,1.339409,653907,29930
1296.85,1.333292,655963,30450
1301.39,1.332756,657349,30552
1304.8,1.335361,657558,30379
1308.19,1.337539,658515,30271
1311.58,1.337543,658804,30284
1314.97,1.334764,659011,30488
1318.36,1.335803,658272,30381
1321.73,1.339400,658022,30119
1326.23,1.338954,657870,30143
1329.6,1.333892,656482,30432
1332.97,1.332976,654926,30424
1336.33,1.330613,653727,30534
1339.69,1.330877,652497,30458
1343.04,1.328185,649913,30526
1346.39,1.330471,647671,30261
1349.73,1.338452,645338,29603
1354.18,1.335538,641175,29610
1357.52,1.332671,638376,29676
1360.85,1.332649,635805,29558
1364.17,1.323438,633413,30078
1367.49,1.336154,631026,29100
1370.81,1.327672,628050,29534
1374.12,1.330506,625034,29201
1378.54,1.332497,620272,28846
1381.84,1.332085,616892,28716
1385.14,1.327929,613613,28838
1388.43,1.331829,611526,28483
1391.72,1.331292,610663,28478
1395.01,1.331699,610634,28450
1398.29,1.328551,611700,28707
1402.66,1.339359,614051,28109
1405.93,1.333434,616268,28598
1409.2,1.328761,617795,28979
1412.46,1.336253,618872,28533
1415.72,1.333852,619795,28734
1418.98,1.339558,620495,28391
1422.23,1.340354,621087,28366
1426.56,1.340449,621375,28373
1429.8,1.332850,621616,28885
1433.04,1.337393,622129,28608
1436.27,1.338203,621526,28527
1439.5,1.336941,621113,28591
1442.72,1.332169,620921,28898
1445.94,1.333188,620270,28800
1450.23,1.334574,618860,28643
1453.44,1.340034,617697,28232
1456.64,1.332642,616264,28650
1459.85,1.339322,614413,28128
1463.04,1.341910,612307,27865
1466.24,1.343124,610032,27684
1469.43,1.334698,607345,28102
1473.67,1.339457,603789,27633
1476.85,1.330619,601175,28079
1480.02,1.336893,597737,27518
1483.19,1.338228,594479,27284
1486.36,1.342183,591232,26889
1489.52,1.339516,587853,26900
1492.68,1.340835,583875,26637
1496.89,1.343673,578062,26200
1500.03,1.344861,574159,25952
1503.18,1.338222,570285,26174
1506.32,1.338604,565444,25929
1509.45,1.338241,560571,25727
1512.58,1.339794,555821,25418
1515.71,1.340269,550344,25140
1519.87,1.340084,543983,24860
1522.99,1.344205,538764,24389
1526.1,1.339101,533692,24445
1529.21,1.344210,527902,23897
1532.32,1.348397,521886,23398
1535.42,1.341802,515888,23483
1538.51,1.334169,509987,23626
1541.6,1.338632,503936,23107
1545.72,1.342096,494694,22503
1548.8,1.347242,488378,21954
1551.88,1.339251,481832,22062
1554.95,1.337272,474989,21848
1558.02,1.336791,467818,21542
1561.08,1.340772,460730,21022
1564.15,1.340284,454170,20746
1568.22,1.341865,444181,20216
1571.27,1.336758,436947,20122
1574.32,1.335871,429598,19824
1577.36,1.333473,422039,19583
1580.4,1.340312,414375,18927
1583.43,1.331823,406354,18927
1586.46,1.342939,398475,18091
1590.49,1.345257,388982,17566
1593.51,1.340193,380708,17394
1596.53,1.336267,372727,17184
1599.54,1.328151,365060,17148
1602.55,1.334058,357543,16568
1605.55,1.334543,349495,16177
1608.55,1.339937,341154,15596
1612.54,1.336226,330877,15256
1615.53,1.333388,322904,14986
1618.51,1.337612,315116,14483
1621.49,1.334362,307217,14226
1624.47,1.332792,299481,13918
1627.44,1.328005,292112,13726
1630.41,1.331313,284245,13255
1634.36,1.319479,274079,13134
1637.32,1.329395,266916,12502
1640.27,1.328784,259612,12177
1643.22,1.312395,251804,12265
1646.16,1.331104,244348,11400
1649.1,1.323013,236703,11251
1652.04,1.322391,228171,10861
1655.95,1.315895,215408,10408
1658.88,1.336602,204937,9441
1661.8,1.337592,193395,8889
1664.72,1.325146,179728,8501
1667.63,1.336408,163642,7542
1670.54,1.348310,146312,6561
1673.44,1.312371,128451,6257
1677.31,1.323245,105080,4992
1680.21,1.351675,88906,3956
1683.1,1.369967,75033,3201
1685.99,1.344726,63520,2872
1688.87,1.513130,53714,1648
1691.75,1.383237,45653,1889
1694.62,1.394481,39137,1578
1697.49,1.466779,33776,1153
1701.31,1.297270,28175,1421