Folder: textile_sorting_NIRSCAN_/samples/unknown (part 18)

File: Column 1_078099_20241121_164525.csv
Method:,Column 1,,
Host Date-Time:,21/11/24 @ 16:45:25,,
Header Version:,1,,
System Temp (C):,32.26,,
Detector Temp (C):,27.38,,
Humidity (%):,4.2,,
Lamp PD:,3807,,
Shift Vector Coefficients:,-10.5391,0.0761263,-0.000134223,,
Pixel to Wavelength Coefficients:,1775.68,-0.916766,-0.000235065,,
Serial Number:,5510004,,
Scan Config Name:,Column 1,,
Scan Config Type:,Slew,,
Section 1,,
Start wavelength (nm):,900,,
End wavelength (nm):,1700,,
Pattern Pixel Width (nm):,   7.03,,,,
Exposure (ms):,  0.635,,,,
Digital Resolution:,228,,
Num Repeats:,6,,
PGA Gain:,64,,
Total Measurement Time in sec:,  2.720,,
Wavelength (nm),Absorbance (AU),Reference Signal (unitless),Sample Signal (unitless)
901.51,1.304910,108485,5376
905.376,1.293456,121306,6172
909.237,1.294459,131909,6696
913.095,1.310649,143299,7008
916.948,1.292651,156982,8002
922.079,1.327083,179937,8473
925.923,1.321574,200504,9562
929.762,1.311173,222660,10876
933.597,1.329456,244426,11447
937.427,1.311170,263972,12894
941.254,1.317847,281845,13557
945.076,1.311246,297271,14518
950.165,1.320368,315605,15093
953.978,1.317915,328029,15776
957.786,1.301426,340470,17008
961.59,1.315107,352317,17054
965.389,1.311314,363056,17728
969.185,1.325153,373162,17650
972.976,1.308369,382632,18811
976.763,1.314494,391202,18963
981.806,1.303326,400190,19904
985.583,1.304000,406088,20166
989.355,1.306852,410162,20235
993.124,1.310116,412868,20216
996.888,1.312936,414263,20153
1000.65,1.302701,415476,20694
1004.4,1.307177,415479,20482
1009.41,1.311638,414358,20218
1013.15,1.308887,412923,20276
1016.89,1.316790,411526,19843
1020.63,1.309722,409066,20048
1024.36,1.314053,406777,19738
1028.09,1.311339,404427,19747
1031.82,1.305430,401911,19893
1036.78,1.299365,398410,19997
1040.49,1.309826,396204,19413
1044.2,1.307015,394236,19442
1047.91,1.308947,392042,19248
1051.61,1.308835,389823,19144
1055.31,1.311255,388234,18960
1059,1.309972,387599,18985
1063.92,1.319415,386688,18533
1067.61,1.306772,386598,19076
1071.29,1.305534,387377,19169
1074.96,1.320619,388536,18570
1078.63,1.315707,389855,18845
1082.3,1.304032,391215,19426
1085.96,1.310312,393215,19245
1090.84,1.317458,396270,19078
1094.49,1.319655,398760,19101
1098.14,1.311318,400987,19580
1101.79,1.317480,403477,19424
1105.43,1.311503,406116,19822
1109.06,1.311118,407701,19917
1112.7,1.320090,409859,19613
1117.53,1.328714,412494,19351
1121.15,1.310328,414909,20306
1124.77,1.315897,416559,20127
1128.38,1.319831,418532,20040
1131.99,1.326341,419956,19809
1135.6,1.320379,421946,20178
1139.2,1.327236,423881,19953
1143.99,1.324988,426786,20194
1147.58,1.319067,428617,20559
1151.17,1.324890,431169,20406
1154.75,1.320574,433579,20725
1158.33,1.318897,436264,20934
1161.91,1.319983,439132,21019
1165.48,1.320124,442389,21168
1169.04,1.318877,446101,21407
1173.79,1.313596,451929,21952
1177.34,1.317496,456026,21953
1180.9,1.317362,461306,22214
1184.44,1.314553,467657,22666
1187.99,1.321353,473969,22615
1191.52,1.314147,479856,23279
1195.06,1.321120,487372,23267
1199.76,1.320722,497347,23765
1203.29,1.323230,504311,23959
1206.81,1.327556,511507,24060
1210.33,1.324598,519078,24583
1213.84,1.317385,527163,25384
1217.35,1.324127,534208,25327
1220.85,1.328162,540472,25387
1225.51,1.327477,549929,25872
1229.01,1.329044,556888,26105
1232.5,1.327844,562180,26426
1235.98,1.323448,567975,26970
1239.46,1.320922,574815,27454
1242.94,1.319062,582782,27954
1246.41,1.329802,591476,27678
1251.03,1.328342,604016,28360
1254.5,1.326209,612289,28890
1257.96,1.329171,619125,29014
1261.41,1.329249,624551,29263
1264.86,1.329803,629900,29476
1268.31,1.327425,634345,29847
1271.75,1.325449,638574,30183
1276.33,1.327362,642499,30235
1279.76,1.326767,645905,30437
1283.19,1.326471,648307,30571
1286.61,1.331683,650446,30306
1290.03,1.335351,652132,30129
1293.44,1.329908,653907,30592
1296.85,1.336125,655963,30252
1301.39,1.331606,657349,30633
1304.8,1.331291,657558,30665
1308.19,1.329395,658515,30844
1311.58,1.333248,658804,30585
1314.97,1.336333,659011,30378
1318.36,1.331578,658272,30678
1321.73,1.337285,658022,30266
1326.23,1.332873,657870,30568
1329.6,1.338238,656482,30129
1332.97,1.337886,654926,30082
1336.33,1.326860,653727,30799
1339.69,1.332162,652497,30368
1343.04,1.330968,649913,30331
1346.39,1.335988,647671,29879
1349.73,1.328015,645338,30323
1354.18,1.327905,641175,30135
1357.52,1.327579,638376,30026
1360.85,1.332194,635805,29589
1364.17,1.333015,633413,29422
1367.49,1.335185,631026,29165
1370.81,1.331794,628050,29255
1374.12,1.324128,625034,29633
1378.54,1.328018,620272,29145
1381.84,1.328336,616892,28965
1385.14,1.329242,613613,28751
1388.43,1.326134,611526,28859
1391.72,1.329375,610663,28604
1395.01,1.327007,610634,28759
1398.29,1.332456,611700,28450
1402.66,1.327427,614051,28892
1405.93,1.332069,616268,28688
1409.2,1.334372,617795,28607
1412.46,1.333931,618872,28686
1415.72,1.329027,619795,29055
1418.98,1.336843,620495,28569
1422.23,1.337045,621087,28583
1426.56,1.340571,621375,28365
1429.8,1.335746,621616,28693
1433.04,1.336453,622129,28670
1436.27,1.335668,621526,28694
1439.5,1.332318,621113,28897
1442.72,1.331313,620921,28955
1445.94,1.337904,620270,28489
1450.23,1.337724,618860,28436
1453.44,1.337962,617697,28367
1456.64,1.336571,616264,28392
1459.85,1.341132,614413,28011
1463.04,1.337969,612307,28119
1466.24,1.333474,610032,28306
1469.43,1.337411,607345,27927
1473.67,1.333557,603789,28011
1476.85,1.345519,601175,27132
1480.02,1.337288,597737,27493
1483.19,1.359665,594479,25970
1486.36,1.339173,591232,27076
1489.52,1.341572,587853,26773
1492.68,1.335890,583875,26942
1496.89,1.336717,578062,26623
1500.03,1.344878,574159,25951
1503.18,1.344978,570285,25770
1506.32,1.340635,565444,25808
1509.45,1.344447,560571,25362
1512.58,1.340632,555821,25369
1515.71,1.339717,550344,25172
1519.87,1.343539,543983,24663
1522.99,1.340711,538764,24586
1526.1,1.344643,533692,24135
1529.21,1.340572,527902,24098
1532.32,1.334712,521886,24147
1535.42,1.333812,515888,23919
1538.51,1.343008,509987,23150
1541.6,1.340629,503936,23001
1545.72,1.342753,494694,22469
1548.8,1.341016,488378,22271
1551.88,1.330694,481832,22501
1554.95,1.347428,474989,21343
1558.02,1.335362,467818,21613
1561.08,1.347120,460730,20717
1564.15,1.341248,454170,20700
1568.22,1.329894,444181,20781
1571.27,1.339594,436947,19991
1574.32,1.335937,429598,19821
1577.36,1.342595,422039,19176
1580.4,1.333030,414375,19247
1583.43,1.331204,406354,18954
1586.46,1.329001,398475,18681
1590.49,1.324357,388982,18432
1593.51,1.327666,380708,17903
1596.53,1.331616,372727,17369
1599.54,1.323390,365060,17337
1602.55,1.328795,357543,16770
1605.55,1.336292,349495,16112
1608.55,1.328586,341154,16009
1612.54,1.323905,330877,15695
1615.53,1.333243,322904,14991
1618.51,1.336175,315116,14531
1621.49,1.332869,307217,14275
1624.47,1.327150,299481,14100
1627.44,1.331787,292112,13607
1630.41,1.323617,284245,13492
1634.36,1.320870,274079,13092
1637.32,1.311397,266916,13031
1640.27,1.317415,259612,12500
1643.22,1.331136,251804,11747
1646.16,1.310605,244348,11951
1649.1,1.325335,236703,11191
1652.04,1.310363,228171,11166
1655.95,1.317776,215408,10363
1658.88,1.294086,204937,10412
1661.8,1.308493,193395,9505
1664.72,1.319209,179728,8618
1667.63,1.291014,163642,8373
1670.54,1.303925,146312,7267
1673.44,1.302897,128451,6395
1677.31,1.305433,105080,5201
1680.21,1.300181,88906,4454
1683.1,1.277557,75033,3960
1685.99,1.310709,63520,3106
1688.87,1.329204,53714,2517
1691.75,1.278174,45653,2406
1694.62,1.265229,39137,2125
1697.49,1.344201,33776,1529
1701.31,1.309356,28175,1382

File: Column 1_078100_20241121_173225.csv
Method:,Column 1,,
Host Date-Time:,21/11/24 @ 17:32:25,,
Header Version:,1,,
System Temp (C):,37.75,,
Detector Temp (C):,36.99,,
Humidity (%):,0.59,,
Lamp PD:,3795,,
Shift Vector Coefficients:,-10.5391,0.0761263,-0.000134223,,
Pixel to Wavelength Coefficients:,1775.68,-0.916766,-0.000235065,,
Serial Number:,5510004,,
Scan Config Name:,Column 1,,
Scan Config Type:,Slew,,
Section 1,,
Start wavelength (nm):,900,,
End wavelength (nm):,1700,,
Pattern Pixel Width (nm):,   7.03,,,,
Exposure (ms):,  0.635,,,,
Digital Resolution:,228,,
Num Repeats:,6,,
PGA Gain:,64,,
Total Measurement Time in sec:,  2.726,,
Wavelength (nm),Absorbance (AU),Reference Signal (unitless),Sample Signal (unitless)
901.51,1.311504,108485,5295
905.376,1.325652,121306,5731
909.237,1.347440,131909,5927
913.095,1.338678,143299,6570
916.948,1.317960,156982,7549
922.079,1.341201,179937,8202
925.923,1.333920,200504,9294
929.762,1.325833,222660,10515
933.597,1.309836,244426,11976
937.427,1.321705,263972,12585
941.254,1.317398,281845,13571
945.076,1.305717,297271,14704
950.165,1.300624,315605,15795
953.978,1.312009,328029,15992
957.786,1.311396,340470,16622
961.59,1.314064,352317,17095
965.389,1.307922,363056,17867
969.185,1.295826,373162,18883
972.976,1.316079,382632,18480
976.763,1.306416,391202,19319
981.806,1.307646,400190,19707
985.583,1.308416,406088,19962
989.355,1.304861,410162,20328
993.124,1.304481,412868,20480
996.888,1.300991,414263,20715
1000.65,1.302345,415476,20711
1004.4,1.303419,415479,20660
1009.41,1.312799,414358,20164
1013.15,1.302783,412923,20563
1016.89,1.322163,411526,19599
1020.63,1.301950,409066,20410
1024.36,1.309740,406777,19935
1028.09,1.298425,404427,20343
1031.82,1.304688,401911,19927
1036.78,1.306968,398410,19650
1040.49,1.316795,396204,19104
1044.2,1.314950,394236,19090
1047.91,1.308924,392042,19249
1051.61,1.307069,389823,19222
1055.31,1.313046,388234,18882
1059,1.313025,387599,18852
1063.92,1.305646,386688,19130
1067.61,1.304773,386598,19164
1071.29,1.308535,387377,19037
1074.96,1.317288,388536,18713
1078.63,1.318481,389855,18725
1082.3,1.307466,391215,19273
1085.96,1.313847,393215,19089
1090.84,1.313177,396270,19267
1094.49,1.314435,398760,19332
1098.14,1.322575,400987,19079
1101.79,1.314383,403477,19563
1105.43,1.314096,406116,19704
1109.06,1.310747,407701,19934
1112.7,1.306682,409859,20228
1117.53,1.314040,412494,20016
1121.15,1.316033,414909,20041
1124.77,1.311817,416559,20317
1128.38,1.313655,418532,20327
1131.99,1.315366,419956,20316
1135.6,1.316970,421946,20337
1139.2,1.317039,423881,20427
1143.99,1.308674,426786,20967
1147.58,1.320146,428617,20508
1151.17,1.314044,431169,20922
1154.75,1.313424,433579,21069
1158.33,1.310759,436264,21330
1161.91,1.312080,439132,21405
1165.48,1.315350,442389,21402
1169.04,1.311136,446101,21792
1173.79,1.313003,451929,21982
1177.34,1.317733,456026,21941
1180.9,1.315042,461306,22333
1184.44,1.313213,467657,22736
1187.99,1.314873,473969,22955
1191.52,1.315735,479856,23194
1195.06,1.320803,487372,23284
1199.76,1.324945,497347,23535
1203.29,1.320862,504311,24090
1206.81,1.313176,511507,24870
1210.33,1.314781,519078,25145
1213.84,1.316616,527163,25429
1217.35,1.319640,534208,25590
1220.85,1.319691,540472,25887
1225.51,1.325651,549929,25981
1229.01,1.317974,556888,26779
1232.5,1.323136,562180,26714
1235.98,1.325563,567975,26839
1239.46,1.317707,574815,27658
1242.94,1.321024,582782,27828
1246.41,1.321934,591476,28184
1251.03,1.323151,604016,28701
1254.5,1.315929,612289,29582
1257.96,1.321000,619125,29565
1261.41,1.324335,624551,29596
1264.86,1.323136,629900,29932
1268.31,1.322578,634345,30182
1271.75,1.320271,638574,30545
1276.33,1.326645,642499,30285
1279.76,1.327981,645905,30352
1283.19,1.319090,648307,31095
1286.61,1.321332,650446,31037
1290.03,1.325263,652132,30837
1293.44,1.325839,653907,30880
1296.85,1.322446,655963,31220
1301.39,1.333340,657349,30511
1304.8,1.327231,657558,30953
1308.19,1.327288,658515,30994
1311.58,1.330925,658804,30749
1314.97,1.326565,659011,31069
1318.36,1.326316,658272,31052
1321.73,1.322682,658022,31301
1326.23,1.332206,657870,30615
1329.6,1.338051,656482,30142
1332.97,1.328305,654926,30753
1336.33,1.327452,653727,30757
1339.69,1.327044,652497,30728
1343.04,1.326113,649913,30672
1346.39,1.324612,647671,30672
1349.73,1.323541,645338,30637
1354.18,1.323703,641175,30428
1357.52,1.325142,638376,30195
1360.85,1.325899,635805,30021
1364.17,1.320029,633413,30315
1367.49,1.322897,631026,30002
1370.81,1.330638,628050,29333
1374.12,1.326229,625034,29490
1378.54,1.322275,620272,29533
1381.84,1.322675,616892,29345
1385.14,1.325766,613613,28982
1388.43,1.328246,611526,28719
1391.72,1.325054,610663,28890
1395.01,1.321590,610634,29120
1398.29,1.324425,611700,28981
1402.66,1.324924,614051,29059
1405.93,1.328556,616268,28921
1409.2,1.329571,617795,28925
1412.46,1.326798,618872,29161
1415.72,1.322529,619795,29493
1418.98,1.325485,620495,29326
1422.23,1.332721,621087,28869
1426.56,1.332095,621375,28924
1429.8,1.328258,621616,29192
1433.04,1.330062,622129,29095
1436.27,1.334580,621526,28766
1439.5,1.333522,621113,28817
1442.72,1.331658,620921,28932
1445.94,1.330228,620270,28997
1450.23,1.334301,618860,28661
1453.44,1.334941,617697,28565
1456.64,1.327923,616264,28963
1459.85,1.335004,614413,28409
1463.04,1.336951,612307,28185
1466.24,1.326775,610032,28746
1469.43,1.334590,607345,28109
1473.67,1.335188,603789,27906
1476.85,1.363227,601175,26048
1480.02,1.331093,597737,27888
1483.19,1.328828,594479,27881
1486.36,1.328761,591232,27733
1489.52,1.333472,587853,27277
1492.68,1.337230,583875,26859
1496.89,1.327262,578062,27209
1500.03,1.332667,574159,26691
1503.18,1.335361,570285,26347
1506.32,1.338118,565444,25958
1509.45,1.336422,560571,25835
1512.58,1.340135,555821,25398
1515.71,1.333617,550344,25528
1519.87,1.333978,543983,25212
1522.99,1.332123,538764,25077
1526.1,1.337292,533692,24547
1529.21,1.328154,527902,24797
1532.32,1.320784,521886,24934
1535.42,1.335213,515888,23842
1538.51,1.334518,509987,23607
1541.6,1.335915,503936,23252
1545.72,1.328549,494694,23216
1548.8,1.330916,488378,22795
1551.88,1.332745,481832,22395
1554.95,1.335111,474989,21957
1558.02,1.333077,467818,21727
1561.08,1.332850,460730,21409
1564.15,1.338946,454170,20810
1568.22,1.326314,444181,20953
1571.27,1.334927,436947,20207
1574.32,1.328399,429598,20168
1577.36,1.330027,422039,19739
1580.4,1.336883,414375,19077
1583.43,1.323190,406354,19307
1586.46,1.330305,398475,18625
1590.49,1.324216,388982,18438
1593.51,1.329416,380708,17831
1596.53,1.312227,372727,18162
1599.54,1.323616,365060,17328
1602.55,1.311483,357543,17452
1605.55,1.325878,349495,16503
1608.55,1.324160,341154,16173
1612.54,1.312598,330877,16109
1615.53,1.313395,322904,15692
1618.51,1.316256,315116,15213
1621.49,1.318948,307217,14740
1624.47,1.317494,299481,14417
1627.44,1.319266,292112,14005
1630.41,1.317575,284245,13681
1634.36,1.309153,274079,13450
1637.32,1.315516,266916,12908
1640.27,1.314437,259612,12586
1643.22,1.313352,251804,12238
1646.16,1.309516,244348,11981
1649.1,1.296291,236703,11965
1652.04,1.315173,228171,11043
1655.95,1.304487,215408,10685
1658.88,1.303659,204937,10185
1661.8,1.275298,193395,10260
1664.72,1.249006,179728,10130
1667.63,1.233800,163642,9552
1670.54,1.219861,146312,8819
1673.44,1.178910,128451,8508
1677.31,1.160225,105080,7266
1680.21,1.110586,88906,6892
1683.1,1.124435,75033,5634
1685.99,1.109271,63520,4939
1688.87,1.082998,53714,4437
1691.75,1.084397,45653,3759
1694.62,1.134252,39137,2873
1697.49,1.116316,33776,2584
1701.31,1.110611,28175,2184

File: Column 1_078100_20241121_173228.csv
Method:,Column 1,,
Host Date-Time:,21/11/24 @ 17:32:28,,
Header Version:,1,,
System Temp (C):,37.76,,
Detector Temp (C):,36.98,,
Humidity (%):,0.59,,
Lamp PD:,3795,,
Shift Vector Coefficients:,-10.5391,0.0761263,-0.000134223,,
Pixel to Wavelength Coefficients:,1775.68,-0.916766,-0.000235065,,
Serial Number:,5510004,,
Scan Config Name:,Column 1,,
Scan Config Type:,Slew,,
Section 1,,
Start wavelength (nm):,900,,
End wavelength (nm):,1700,,
Pattern Pixel Width (nm):,   7.03,,,,
Exposure (ms):,  0.635,,,,
Digital Resolution:,228,,
Num Repeats:,6,,
PGA Gain:,64,,
Total Measurement Time in sec:,  2.726,,
Wavelength (nm),Absorbance (AU),Reference Signal (unitless),Sample Signal (unitless)
901.51,1.320956,108485,5181
905.376,1.315836,121306,5862
909.237,1.330412,131909,6164
913.095,1.313884,143299,6956
916.948,1.334794,156982,7262
922.079,1.319664,179937,8619
925.923,1.325590,200504,9474
929.762,1.335100,222660,10293
933.597,1.325490,244426,11552
937.427,1.326633,263972,12443
941.254,1.324139,281845,13362
945.076,1.318546,297271,14276
950.165,1.314850,315605,15286
953.978,1.313942,328029,15921
957.786,1.312652,340470,16574
961.59,1.311885,352317,17181
965.389,1.313180,363056,17652
969.185,1.311325,373162,18221
972.976,1.313408,382632,18594
976.763,1.310800,391202,19125
981.806,1.312009,400190,19510
985.583,1.311582,406088,19817
989.355,1.307776,410162,20192
993.124,1.303063,412868,20547
996.888,1.304697,414263,20539
1000.65,1.311285,415476,20289
1004.4,1.311867,415479,20262
1009.41,1.308214,414358,20378
1013.15,1.310410,412923,20205
1016.89,1.308358,411526,20232
1020.63,1.306077,409066,20217
1024.36,1.312647,406777,19802
1028.09,1.308555,404427,19874
1031.82,1.306895,401911,19826
1036.78,1.313044,398410,19377
1040.49,1.308419,396204,19476
1044.2,1.298806,394236,19813
1047.91,1.302853,392042,19520
1051.61,1.311588,389823,19023
1055.31,1.313161,388234,18877
1059,1.313233,387599,18843
1063.92,1.303766,386688,19213
1067.61,1.308460,386598,19002
1071.29,1.316525,387377,18690
1074.96,1.309787,388536,19039
1078.63,1.309438,389855,19119
1082.3,1.312612,391215,19046
1085.96,1.300186,393215,19699
1090.84,1.319581,396270,18985
1094.49,1.309565,398760,19550
1098.14,1.312739,400987,19516
1101.79,1.314694,403477,19549
1105.43,1.313501,406116,19731
1109.06,1.311707,407701,19890
1112.7,1.311909,409859,19986
1117.53,1.310819,412494,20165
1121.15,1.322562,414909,19742
1124.77,1.315811,416559,20131
1128.38,1.321220,418532,19976
1131.99,1.311450,419956,20500
1135.6,1.315925,421946,20386
1139.2,1.310498,423881,20737
1143.99,1.317272,426786,20556
1147.58,1.316939,428617,20660
1151.17,1.319454,431169,20663
1154.75,1.317047,433579,20894
1158.33,1.313209,436264,21210
1161.91,1.311877,439132,21415
1165.48,1.320597,442389,21145
1169.04,1.320341,446101,21335
1173.79,1.309638,451929,22153
1177.34,1.308645,456026,22405
1180.9,1.319400,461306,22110
1184.44,1.314150,467657,22687
1187.99,1.317453,473969,22819
1191.52,1.321864,479856,22869
1195.06,1.317181,487372,23479
1199.76,1.319189,497347,23849
1203.29,1.314402,504311,24451
1206.81,1.316665,511507,24671
1210.33,1.316321,519078,25056
1213.84,1.322565,527163,25083
1217.35,1.320167,534208,25559
1220.85,1.318786,540472,25941
1225.51,1.320037,549929,26319
1229.01,1.315338,556888,26942
1232.5,1.324602,562180,26624
1235.98,1.321104,567975,27116
1239.46,1.318226,574815,27625
1242.94,1.319637,582782,27917
1246.41,1.322150,591476,28170
1251.03,1.325579,604016,28541
1254.5,1.321618,612289,29197
1257.96,1.324866,619125,29303
1261.41,1.325084,624551,29545
1264.86,1.322368,629900,29985
1268.31,1.320797,634345,30306
1271.75,1.324543,638574,30246
1276.33,1.333846,642499,29787
1279.76,1.322253,645905,30755
1283.19,1.327937,648307,30468
1286.61,1.330381,650446,30397
1290.03,1.332019,652132,30361
1293.44,1.324350,653907,30986
1296.85,1.330052,655963,30678
1301.39,1.333966,657349,30467
1304.8,1.323306,657558,31234
1308.19,1.330805,658515,30744
1311.58,1.327156,658804,31017
1314.97,1.330046,659011,30821
1318.36,1.323986,658272,31219
1321.73,1.327496,658022,30956
1326.23,1.333911,657870,30495
1329.6,1.333265,656482,30476
1332.97,1.328319,654926,30752
1336.33,1.326057,653727,30856
1339.69,1.326748,652497,30749
1343.04,1.325406,649913,30722
1346.39,1.328409,647671,30405
1349.73,1.324435,645338,30574
1354.18,1.325563,641175,30298
1357.52,1.328433,638376,29967
1360.85,1.328118,635805,29868
1364.17,1.330043,633413,29624
1367.49,1.328814,631026,29596
1370.81,1.324697,628050,29737
1374.12,1.319826,625034,29928
1378.54,1.325744,620272,29298
1381.84,1.326033,616892,29119
1385.14,1.322259,613613,29217
1388.43,1.324122,611526,28993
1391.72,1.325912,610663,28833
1395.01,1.324823,610634,28904
1398.29,1.332578,611700,28442
1402.66,1.326496,614051,28954
1405.93,1.321540,616268,29392
1409.2,1.323473,617795,29334
1412.46,1.332223,618872,28799
1415.72,1.328295,619795,29104
1418.98,1.324790,620495,29373
1422.23,1.329976,621087,29052
1426.56,1.332351,621375,28907
1429.8,1.326936,621616,29281
1433.04,1.328453,622129,29203
1436.27,1.333178,621526,28859
1439.5,1.335319,621113,28698
1442.72,1.333644,620921,28800
1445.94,1.329091,620270,29073
1450.23,1.333287,618860,28728
1453.44,1.335474,617697,28530
1456.64,1.328508,616264,28924
1459.85,1.330715,614413,28691
1463.04,1.325621,612307,28930
1466.24,1.334519,610032,28238
1469.43,1.331726,607345,28295
1473.67,1.328700,603789,28326
1476.85,1.333257,601175,27909
1480.02,1.327526,597737,28118
1483.19,1.334993,594479,27488
1486.36,1.331431,591232,27563
1489.52,1.336748,587853,27072
1492.68,1.335149,583875,26988
1496.89,1.329294,578062,27082
1500.03,1.336016,574159,26486
1503.18,1.331553,570285,26579
1506.32,1.333144,565444,26257
1509.45,1.335969,560571,25862
1512.58,1.332542,555821,25846
1515.71,1.334333,550344,25486
1519.87,1.330683,543983,25404
1522.99,1.331258,538764,25127
1526.1,1.338391,533692,24485
1529.21,1.336375,527902,24332
1532.32,1.326941,521886,24583
1535.42,1.329728,515888,24145
1538.51,1.325722,509987,24090
1541.6,1.336850,503936,23202
1545.72,1.331986,494694,23033
1548.8,1.331565,488378,22761
1551.88,1.338444,481832,22103
1554.95,1.329080,474989,22264
1558.02,1.332957,467818,21733
1561.08,1.332931,460730,21405
1564.15,1.331970,454170,21147
1568.22,1.335277,444181,20525
1571.27,1.332056,436947,20341
1574.32,1.336112,429598,19813
1577.36,1.326893,422039,19882
1580.4,1.331589,414375,19311
1583.43,1.332443,406354,18900
1586.46,1.324399,398475,18880
1590.49,1.337489,388982,17883
1593.51,1.321046,380708,18178
1596.53,1.321508,372727,17778
1599.54,1.334709,365060,16891
1602.55,1.326419,357543,16862
1605.55,1.313043,349495,16998
1608.55,1.317868,341154,16409
1612.54,1.319610,330877,15851
1615.53,1.322710,322904,15359
1618.51,1.324905,315116,14913
1621.49,1.328811,307217,14409
1624.47,1.315331,299481,14489
1627.44,1.328417,292112,13713
1630.41,1.323681,284245,13490
1634.36,1.328466,274079,12865
1637.32,1.324421,266916,12646
1640.27,1.321043,259612,12396
1643.22,1.315986,251804,12164
1646.16,1.315832,244348,11808
1649.1,1.309783,236703,11599
1652.04,1.309741,228171,11182
1655.95,1.299677,215408,10804
1658.88,1.295298,204937,10383
1661.8,1.280707,193395,10133
1664.72,1.261135,179728,9851
1667.63,1.253424,163642,9130
1670.54,1.211714,146312,8986
1673.44,1.208862,128451,7941
1677.31,1.164308,105080,7198
1680.21,1.176243,88906,5925
1683.1,1.118768,75033,5708
1685.99,1.086406,63520,5206
1688.87,1.107977,53714,4189
1691.75,1.149595,45653,3235
1694.62,1.127949,39137,2915
1697.49,1.095319,33776,2712
1701.31,1.207322,28175,1748