Folder: textile_sorting_NIRSCAN_/samples/unknown (part 15)

File: Column 1_078082_20241121_164435.csv
Method:,Column 1,,
Host Date-Time:,21/11/24 @ 16:44:35,,
Header Version:,1,,
System Temp (C):,31.84,,
Detector Temp (C):,26.73,,
Humidity (%):,4.78,,
Lamp PD:,3808,,
Shift Vector Coefficients:,-10.5391,0.0761263,-0.000134223,,
Pixel to Wavelength Coefficients:,1775.68,-0.916766,-0.000235065,,
Serial Number:,5510004,,
Scan Config Name:,Column 1,,
Scan Config Type:,Slew,,
Section 1,,
Start wavelength (nm):,900,,
End wavelength (nm):,1700,,
Pattern Pixel Width (nm):,   7.03,,,,
Exposure (ms):,  0.635,,,,
Digital Resolution:,228,,
Num Repeats:,6,,
PGA Gain:,64,,
Total Measurement Time in sec:,  2.682,,
Wavelength (nm),Absorbance (AU),Reference Signal (unitless),Sample Signal (unitless)
901.51,1.313312,108485,5273
905.376,1.321654,121306,5784
909.237,1.335229,131909,6096
913.095,1.315197,143299,6935
916.948,1.329976,156982,7343
922.079,1.311725,179937,8778
925.923,1.305611,200504,9920
929.762,1.316962,222660,10732
933.597,1.318775,244426,11732
937.427,1.319605,263972,12646
941.254,1.310887,281845,13776
945.076,1.308919,297271,14596
950.165,1.306799,315605,15572
953.978,1.311684,328029,16004
957.786,1.308168,340470,16746
961.59,1.310472,352317,17237
965.389,1.308725,363056,17834
969.185,1.306466,373162,18426
972.976,1.309386,382632,18767
976.763,1.308399,391202,19231
981.806,1.314151,400190,19414
985.583,1.320505,406088,19414
989.355,1.303517,410162,20391
993.124,1.306415,412868,20389
996.888,1.314383,414263,20086
1000.65,1.312078,415476,20252
1004.4,1.309707,415479,20363
1009.41,1.312821,414358,20163
1013.15,1.309551,412923,20245
1016.89,1.317425,411526,19814
1020.63,1.309376,409066,20064
1024.36,1.324272,406777,19279
1028.09,1.309145,404427,19847
1031.82,1.317741,401911,19337
1036.78,1.310140,398410,19507
1040.49,1.308352,396204,19479
1044.2,1.302593,394236,19641
1047.91,1.313301,392042,19056
1051.61,1.307182,389823,19217
1055.31,1.305431,388234,19216
1059,1.312220,387599,18887
1063.92,1.321082,386688,18462
1067.61,1.317373,386598,18616
1071.29,1.315364,387377,18740
1074.96,1.310312,388536,19016
1078.63,1.319642,389855,18675
1082.3,1.324095,391215,18549
1085.96,1.315488,393215,19017
1090.84,1.320864,396270,18929
1094.49,1.322484,398760,18977
1098.14,1.310232,400987,19629
1101.79,1.320757,403477,19278
1105.43,1.323611,406116,19277
1109.06,1.309746,407701,19980
1112.7,1.319714,409859,19630
1117.53,1.321680,412494,19667
1121.15,1.322694,414909,19736
1124.77,1.315595,416559,20141
1128.38,1.324932,418532,19806
1131.99,1.322434,419956,19988
1135.6,1.323684,421946,20025
1139.2,1.317061,423881,20426
1143.99,1.325806,426786,20156
1147.58,1.325859,428617,20240
1151.17,1.324762,431169,20412
1154.75,1.316154,433579,20937
1158.33,1.319811,436264,20890
1161.91,1.322802,439132,20883
1165.48,1.318282,442389,21258
1169.04,1.317439,446101,21478
1173.79,1.320737,451929,21594
1177.34,1.315798,456026,22039
1180.9,1.321487,461306,22004
1184.44,1.314036,467657,22693
1187.99,1.318559,473969,22761
1191.52,1.316673,479856,23144
1195.06,1.318274,487372,23420
1199.76,1.325536,497347,23503
1203.29,1.322741,504311,23986
1206.81,1.326060,511507,24143
1210.33,1.329233,519078,24322
1213.84,1.328809,527163,24725
1217.35,1.324178,534208,25324
1220.85,1.319691,540472,25887
1225.51,1.317717,549929,26460
1229.01,1.329444,556888,26081
1232.5,1.323706,562180,26679
1235.98,1.324625,567975,26897
1239.46,1.330212,574815,26873
1242.94,1.326016,582782,27510
1246.41,1.334964,591476,27351
1251.03,1.331477,604016,28156
1254.5,1.325233,612289,28955
1257.96,1.329485,619125,28993
1261.41,1.327575,624551,29376
1264.86,1.325989,629900,29736
1268.31,1.331783,634345,29549
1271.75,1.331549,638574,29762
1276.33,1.329421,642499,30092
1279.76,1.331069,645905,30137
1283.19,1.332205,648307,30170
1286.61,1.331912,650446,30290
1290.03,1.332005,652132,30362
1293.44,1.331615,653907,30472
1296.85,1.331641,655963,30566
1301.39,1.337028,657349,30253
1304.8,1.327568,657558,30929
1308.19,1.334024,658515,30517
1311.58,1.333376,658804,30576
1314.97,1.331740,659011,30701
1318.36,1.334063,658272,30503
1321.73,1.335896,658022,30363
1326.23,1.332589,657870,30588
1329.6,1.335279,656482,30335
1332.97,1.332063,654926,30488
1336.33,1.338058,653727,30015
1339.69,1.332220,652497,30364
1343.04,1.338464,649913,29812
1346.39,1.329969,647671,30296
1349.73,1.333550,645338,29939
1354.18,1.330217,641175,29975
1357.52,1.335417,638376,29489
1360.85,1.327174,635805,29933
1364.17,1.334405,633413,29328
1367.49,1.333298,631026,29292
1370.81,1.330667,628050,29331
1374.12,1.334690,625034,28921
1378.54,1.332783,620272,28827
1381.84,1.327661,616892,29010
1385.14,1.330391,613613,28675
1388.43,1.326947,611526,28805
1391.72,1.322566,610663,29056
1395.01,1.334655,610634,28257
1398.29,1.333725,611700,28367
1402.66,1.332021,614051,28588
1405.93,1.329368,616268,28867
1409.2,1.328416,617795,29002
1412.46,1.330508,618872,28913
1415.72,1.337556,619795,28490
1418.98,1.334554,620495,28720
1422.23,1.333850,621087,28794
1426.56,1.340035,621375,28400
1429.8,1.333301,621616,28855
1433.04,1.332757,622129,28915
1436.27,1.337351,621526,28583
1439.5,1.338585,621113,28483
1442.72,1.331613,620921,28935
1445.94,1.335002,620270,28680
1450.23,1.335925,618860,28554
1453.44,1.337060,617697,28426
1456.64,1.332566,616264,28655
1459.85,1.336966,614413,28281
1463.04,1.341630,612307,27883
1466.24,1.340013,610032,27883
1469.43,1.337162,607345,27943
1473.67,1.341426,603789,27508
1476.85,1.336992,601175,27670
1480.02,1.337478,597737,27481
1483.19,1.343159,594479,26976
1486.36,1.341844,591232,26910
1489.52,1.334397,587853,27219
1492.68,1.337246,583875,26858
1496.89,1.342002,578062,26301
1500.03,1.339473,574159,26276
1503.18,1.336632,570285,26270
1506.32,1.345135,565444,25542
1509.45,1.340883,560571,25571
1512.58,1.343759,555821,25187
1515.71,1.335544,550344,25415
1519.87,1.339369,543983,24901
1522.99,1.336859,538764,24805
1526.1,1.335703,533692,24637
1529.21,1.341529,527902,24045
1532.32,1.337455,521886,23995
1535.42,1.337148,515888,23736
1538.51,1.345794,509987,23002
1541.6,1.343546,503936,22847
1545.72,1.338387,494694,22696
1548.8,1.336863,488378,22485
1551.88,1.336934,481832,22180
1554.95,1.336458,474989,21889
1558.02,1.337416,467818,21511
1561.08,1.343155,460730,20907
1564.15,1.336034,454170,20950
1568.22,1.325258,444181,21004
1571.27,1.332056,436947,20341
1574.32,1.338067,429598,19724
1577.36,1.330732,422039,19707
1580.4,1.329749,414375,19393
1583.43,1.329580,406354,19025
1586.46,1.334711,398475,18437
1590.49,1.332227,388982,18101
1593.51,1.337877,380708,17487
1596.53,1.335408,372727,17218
1599.54,1.337676,365060,16776
1602.55,1.333089,357543,16605
1605.55,1.332828,349495,16241
1608.55,1.320790,341154,16299
1612.54,1.324736,330877,15665
1615.53,1.334723,322904,14940
1618.51,1.329649,315116,14751
1621.49,1.326377,307217,14490
1624.47,1.336459,299481,13801
1627.44,1.330003,292112,13663
1630.41,1.321433,284245,13560
1634.36,1.329209,274079,12843
1637.32,1.333233,266916,12392
1640.27,1.325516,259612,12269
1643.22,1.320040,251804,12051
1646.16,1.320009,244348,11695
1649.1,1.318176,236703,11377
1652.04,1.312664,228171,11107
1655.95,1.307915,215408,10601
1658.88,1.311403,204937,10005
1661.8,1.335497,193395,8932
1664.72,1.307623,179728,8851
1667.63,1.311294,163642,7991
1670.54,1.351099,146312,6519
1673.44,1.341656,128451,5849
1677.31,1.320816,105080,5020
1680.21,1.321770,88906,4238
1683.1,1.381376,75033,3118
1685.99,1.305843,63520,3141
1688.87,1.295199,53714,2722
1691.75,1.361709,45653,1985
1694.62,1.230860,39137,2300
1697.49,1.245081,33776,1921
1701.31,1.349838,28175,1259

File: Column 1_078084_20241121_164441.csv
Method:,Column 1,,
Host Date-Time:,21/11/24 @ 16:44:41,,
Header Version:,1,,
System Temp (C):,31.88,,
Detector Temp (C):,26.81,,
Humidity (%):,4.69,,
Lamp PD:,3808,,
Shift Vector Coefficients:,-10.5391,0.0761263,-0.000134223,,
Pixel to Wavelength Coefficients:,1775.68,-0.916766,-0.000235065,,
Serial Number:,5510004,,
Scan Config Name:,Column 1,,
Scan Config Type:,Slew,,
Section 1,,
Start wavelength (nm):,900,,
End wavelength (nm):,1700,,
Pattern Pixel Width (nm):,   7.03,,,,
Exposure (ms):,  0.635,,,,
Digital Resolution:,228,,
Num Repeats:,6,,
PGA Gain:,64,,
Total Measurement Time in sec:,  2.724,,
Wavelength (nm),Absorbance (AU),Reference Signal (unitless),Sample Signal (unitless)
901.51,1.330276,108485,5071
905.376,1.360345,121306,5291
909.237,1.334589,131909,6105
913.095,1.298730,143299,7203
916.948,1.326325,156982,7405
922.079,1.317502,179937,8662
925.923,1.311740,200504,9781
929.762,1.316557,222660,10742
933.597,1.309582,244426,11983
937.427,1.302665,263972,13149
941.254,1.306465,281845,13917
945.076,1.321844,297271,14168
950.165,1.312583,315605,15366
953.978,1.316184,328029,15839
957.786,1.309935,340470,16678
961.59,1.316664,352317,16993
965.389,1.307558,363056,17882
969.185,1.306891,373162,18408
972.976,1.314320,382632,18555
976.763,1.316905,391202,18858
981.806,1.311542,400190,19531
985.583,1.316830,406088,19579
989.355,1.306337,410162,20259
993.124,1.309772,412868,20232
996.888,1.307305,414263,20416
1000.65,1.315307,415476,20102
1004.4,1.312231,415479,20245
1009.41,1.320316,414358,19818
1013.15,1.309230,412923,20260
1016.89,1.306602,411526,20314
1020.63,1.310351,409066,20019
1024.36,1.316414,406777,19631
1028.09,1.317006,404427,19491
1031.82,1.310679,401911,19654
1036.78,1.308806,398410,19567
1040.49,1.304910,396204,19634
1044.2,1.299310,394236,19790
1047.91,1.306988,392042,19335
1051.61,1.315027,389823,18873
1055.31,1.311828,388234,18935
1059,1.306078,387599,19156
1063.92,1.308264,386688,19015
1067.61,1.314004,386598,18761
1071.29,1.316873,387377,18675
1074.96,1.319802,388536,18605
1078.63,1.317670,389855,18760
1082.3,1.307106,391215,19289
1085.96,1.312280,393215,19158
1090.84,1.318530,396270,19031
1094.49,1.311881,398760,19446
1098.14,1.319219,400987,19227
1101.79,1.315806,403477,19499
1105.43,1.312029,406116,19798
1109.06,1.318840,407701,19566
1112.7,1.318676,409859,19677
1117.53,1.319763,412494,19754
1121.15,1.324391,414909,19659
1124.77,1.316005,416559,20122
1128.38,1.317217,418532,20161
1131.99,1.319166,419956,20139
1135.6,1.319562,421946,20216
1139.2,1.320562,423881,20262
1143.99,1.321091,426786,20376
1147.58,1.330063,428617,20045
1151.17,1.324953,431169,20403
1154.75,1.320113,433579,20747
1158.33,1.317696,436264,20992
1161.91,1.319343,439132,21050
1165.48,1.321748,442389,21089
1169.04,1.327524,446101,20985
1173.79,1.315023,451929,21880
1177.34,1.327360,456026,21460
1180.9,1.313857,461306,22394
1184.44,1.325260,467657,22114
1187.99,1.323047,473969,22527
1191.52,1.316579,479856,23149
1195.06,1.317792,487372,23446
1199.76,1.318025,497347,23913
1203.29,1.321927,504311,24031
1206.81,1.324516,511507,24229
1210.33,1.325482,519078,24533
1213.84,1.321372,527163,25152
1217.35,1.320285,534208,25552
1220.85,1.323347,540472,25670
1225.51,1.325952,549929,25963
1229.01,1.328147,556888,26159
1232.5,1.323608,562180,26685
1235.98,1.333796,567975,26335
1239.46,1.328357,574815,26988
1242.94,1.324833,582782,27585
1246.41,1.325260,591476,27969
1251.03,1.321867,604016,28786
1254.5,1.322974,612289,29106
1257.96,1.333186,619125,28747
1261.41,1.327856,624551,29357
1264.86,1.319840,629900,30160
1268.31,1.330828,634345,29614
1271.75,1.331024,638574,29798
1276.33,1.327679,642499,30213
1279.76,1.330737,645905,30160
1283.19,1.328907,648307,30400
1286.61,1.334068,650446,30140
1290.03,1.332163,652132,30351
1293.44,1.333214,653907,30360
1296.85,1.331669,655963,30564
1301.39,1.332884,657349,30543
1304.8,1.338287,657558,30175
1308.19,1.331696,658515,30681
1311.58,1.332567,658804,30633
1314.97,1.327741,659011,30985
1318.36,1.329982,658272,30791
1321.73,1.329704,658022,30799
1326.23,1.333228,657870,30543
1329.6,1.325161,656482,31050
1332.97,1.337611,654926,30101
1336.33,1.333424,653727,30337
1339.69,1.331676,652497,30402
1343.04,1.333251,649913,30172
1346.39,1.335669,647671,29901
1349.73,1.333187,645338,29964
1354.18,1.332542,641175,29815
1357.52,1.328259,638376,29979
1360.85,1.329603,635805,29766
1364.17,1.330880,633413,29567
1367.49,1.328492,631026,29618
1370.81,1.327099,628050,29573
1374.12,1.329407,625034,29275
1378.54,1.327155,620272,29203
1381.84,1.330786,616892,28802
1385.14,1.328668,613613,28789
1388.43,1.327264,611526,28784
1391.72,1.329831,610663,28574
1395.01,1.325756,610634,28842
1398.29,1.333128,611700,28406
1402.66,1.333558,614051,28487
1405.93,1.328481,616268,28926
1409.2,1.326907,617795,29103
1412.46,1.329143,618872,29004
1415.72,1.333489,619795,28758
1418.98,1.335887,620495,28632
1422.23,1.338628,621087,28479
1426.56,1.331825,621375,28942
1429.8,1.340143,621616,28404
1433.04,1.334021,622129,28831
1436.27,1.333419,621526,28843
1439.5,1.329995,621113,29052
1442.72,1.330983,620921,28977
1445.94,1.333641,620270,28770
1450.23,1.333605,618860,28707
1453.44,1.338652,617697,28322
1456.64,1.336923,616264,28369
1459.85,1.332778,614413,28555
1463.04,1.334370,612307,28353
1466.24,1.334642,610032,28230
1469.43,1.341787,607345,27647
1473.67,1.336466,603789,27824
1476.85,1.335206,601175,27784
1480.02,1.336909,597737,27517
1483.19,1.338515,594479,27266
1486.36,1.349940,591232,26413
1489.52,1.338468,587853,26965
1492.68,1.336213,583875,26922
1496.89,1.340996,578062,26362
1500.03,1.333808,574159,26621
1503.18,1.342910,570285,25893
1506.32,1.340669,565444,25806
1509.45,1.338562,560571,25708
1512.58,1.336271,555821,25625
1515.71,1.342486,550344,25012
1519.87,1.337263,543983,25022
1522.99,1.334694,538764,24929
1526.1,1.333260,533692,24776
1529.21,1.331495,527902,24607
1532.32,1.345234,521886,23569
1535.42,1.344287,515888,23349
1538.51,1.344775,509987,23056
1541.6,1.337506,503936,23167
1545.72,1.345215,494694,22342
1548.8,1.340510,488378,22297
1551.88,1.341639,481832,21941
1554.95,1.331722,474989,22129
1558.02,1.340333,467818,21367
1561.08,1.335046,460730,21301
1564.15,1.336761,454170,20915
1568.22,1.342854,444181,20170
1571.27,1.329927,436947,20441
1574.32,1.334515,429598,19886
1577.36,1.339930,422039,19294
1580.4,1.335838,414375,19123
1583.43,1.338692,406354,18630
1586.46,1.335583,398475,18400
1590.49,1.342939,388982,17660
1593.51,1.335301,380708,17591
1596.53,1.325286,372727,17624
1599.54,1.332018,365060,16996
1602.55,1.336160,357543,16488
1605.55,1.331147,349495,16304
1608.55,1.339297,341154,15619
1612.54,1.320186,330877,15830
1615.53,1.341136,322904,14721
1618.51,1.326569,315116,14856
1621.49,1.331169,307217,14331
1624.47,1.322341,299481,14257
1627.44,1.323692,292112,13863
1630.41,1.329711,284245,13304
1634.36,1.325103,274079,12965
1637.32,1.334110,266916,12367
1640.27,1.319574,259612,12438
1643.22,1.324459,251804,11929
1646.16,1.317417,244348,11765
1649.1,1.317147,236703,11404
1652.04,1.335502,228171,10538
1655.95,1.330448,215408,10065
1658.88,1.325745,204937,9680
1661.8,1.314520,193395,9374
1664.72,1.304543,179728,8914
1667.63,1.307991,163642,8052
1670.54,1.332516,146312,6804
1673.44,1.330297,128451,6004
1677.31,1.310557,105080,5140
1680.21,1.284853,88906,4614
1683.1,1.310823,75033,3668
1685.99,1.397052,63520,2546
1688.87,1.268739,53714,2893
1691.75,1.304018,45653,2267
1694.62,1.338039,39137,1797
1697.49,1.378466,33776,1413
1701.31,1.405324,28175,1108

File: Column 1_078087_20241121_164450.csv
Method:,Column 1,,
Host Date-Time:,21/11/24 @ 16:44:50,,
Header Version:,1,,
System Temp (C):,31.98,,
Detector Temp (C):,26.91,,
Humidity (%):,4.44,,
Lamp PD:,3808,,
Shift Vector Coefficients:,-10.5391,0.0761263,-0.000134223,,
Pixel to Wavelength Coefficients:,1775.68,-0.916766,-0.000235065,,
Serial Number:,5510004,,
Scan Config Name:,Column 1,,
Scan Config Type:,Slew,,
Section 1,,
Start wavelength (nm):,900,,
End wavelength (nm):,1700,,
Pattern Pixel Width (nm):,   7.03,,,,
Exposure (ms):,  0.635,,,,
Digital Resolution:,228,,
Num Repeats:,6,,
PGA Gain:,64,,
Total Measurement Time in sec:,  2.804,,
Wavelength (nm),Absorbance (AU),Reference Signal (unitless),Sample Signal (unitless)
901.51,1.311504,108485,5295
905.376,1.297699,121306,6112
909.237,1.306027,131909,6520
913.095,1.328874,143299,6720
916.948,1.297893,156982,7906
922.079,1.293842,179937,9147
925.923,1.302992,200504,9980
929.762,1.311573,222660,10866
933.597,1.308062,244426,12025
937.427,1.325517,263972,12475
941.254,1.305374,281845,13952
945.076,1.320467,297271,14213
950.165,1.315021,315605,15280
953.978,1.309545,328029,16083
957.786,1.314200,340470,16515
961.59,1.309742,352317,17266
965.389,1.306975,363056,17906
969.185,1.304961,373162,18490
972.976,1.307286,382632,18858
976.763,1.306079,391202,19334
981.806,1.304615,400190,19845
985.583,1.305402,406088,20101
989.355,1.303666,410162,20384
993.124,1.315477,412868,19968
996.888,1.312570,414263,20170
1000.65,1.304131,415476,20626
1004.4,1.315223,415479,20106
1009.41,1.312153,414358,20194
1013.15,1.312781,412923,20095
1016.89,1.303322,411526,20468
1020.63,1.316490,409066,19738
1024.36,1.303017,406777,20246
1028.09,1.314850,404427,19588
1031.82,1.310281,401911,19672
1036.78,1.303051,398410,19828
1040.49,1.303122,396204,19715
1044.2,1.311890,394236,19225
1047.91,1.305173,392042,19416
1051.61,1.309925,389823,19096
1055.31,1.311439,388234,18952
1059,1.307918,387599,19075
1063.92,1.310830,386688,18903
1067.61,1.307114,386598,19061
1071.29,1.311971,387377,18887
1074.96,1.312258,388536,18931
1078.63,1.306766,389855,19237
1082.3,1.309092,391215,19201
1085.96,1.321189,393215,18769
1090.84,1.314441,396270,19211
1094.49,1.314547,398760,19327
1098.14,1.315889,400987,19375
1101.79,1.308365,403477,19836
1105.43,1.315310,406116,19649
1109.06,1.317820,407701,19612
1112.7,1.319427,409859,19643
1117.53,1.313282,412494,20051
1121.15,1.319471,414909,19883
1124.77,1.321501,416559,19869
1128.38,1.326932,418532,19715
1131.99,1.315729,419956,20299
1135.6,1.318489,421946,20266
1139.2,1.319620,423881,20306
1143.99,1.319071,426786,20471
1147.58,1.316036,428617,20703
1151.17,1.324528,431169,20423
1154.75,1.317691,433579,20863
1158.33,1.316807,436264,21035
1161.91,1.324699,439132,20792
1165.48,1.319468,442389,21200
1169.04,1.319141,446101,21394
1173.79,1.320777,451929,21592
1177.34,1.311699,456026,22248
1180.9,1.321270,461306,22015
1184.44,1.311345,467657,22834
1187.99,1.321123,473969,22627
1191.52,1.321503,479856,22888
1195.06,1.319183,487372,23371
1199.76,1.324281,497347,23571
1203.29,1.330708,504311,23550
1206.81,1.323478,511507,24287
1210.33,1.320396,519078,24822
1213.84,1.325658,527163,24905
1217.35,1.319453,534208,25601
1220.85,1.328128,540472,25389
1225.51,1.316308,549929,26546
1229.01,1.324510,556888,26379
1232.5,1.328091,562180,26411
1235.98,1.323577,567975,26962
1239.46,1.324178,574815,27249
1242.94,1.323811,582782,27650
1246.41,1.318481,591476,28409
1251.03,1.325412,604016,28552
1254.5,1.320549,612289,29269
1257.96,1.321986,619125,29498
1261.41,1.321891,624551,29763
1264.86,1.326252,629900,29718
1268.31,1.327687,634345,29829
1271.75,1.330267,638574,29850
1276.33,1.326760,642499,30277
1279.76,1.324547,645905,30593
1283.19,1.325974,648307,30606
1286.61,1.327532,650446,30597
1290.03,1.327650,652132,30668
1293.44,1.331629,653907,30471
1296.85,1.326556,655963,30926
1301.39,1.332927,657349,30540
1304.8,1.331022,657558,30684
1308.19,1.332929,658515,30594
1311.58,1.326765,658804,31045
1314.97,1.333995,659011,30542
1318.36,1.331635,658272,30674
1321.73,1.333258,658022,30548
1326.23,1.335067,657870,30414
1329.6,1.330920,656482,30641
1332.97,1.328714,654926,30724
1336.33,1.330798,653727,30521
1339.69,1.332162,652497,30368
1343.04,1.331226,649913,30313
1346.39,1.332889,647671,30093
1349.73,1.330270,645338,30166
1354.18,1.331581,641175,29881
1357.52,1.332072,638376,29717
1360.85,1.325667,635805,30037
1364.17,1.336126,633413,29212
1367.49,1.326239,631026,29772
1370.81,1.327760,628050,29528
1374.12,1.327867,625034,29379
1378.54,1.329316,620272,29058
1381.84,1.331737,616892,28739
1385.14,1.330255,613613,28684
1388.43,1.327128,611526,28793
1391.72,1.327693,610663,28715
1395.01,1.323698,610634,28979
1398.29,1.332151,611700,28470
1402.66,1.332081,614051,28584
1405.93,1.326743,616268,29042
1409.2,1.328536,617795,28994
1412.46,1.332480,618872,28782
1415.72,1.326419,619795,29230
1418.98,1.330835,620495,28967
1422.23,1.334938,621087,28722
1426.56,1.331555,621375,28960
1429.8,1.332444,621616,28912
1433.04,1.334684,622129,28787
1436.27,1.336532,621526,28637
1439.5,1.330743,621113,29002
1442.72,1.336746,620921,28595
1445.94,1.327272,620270,29195
1450.23,1.332713,618860,28766
1453.44,1.336815,617697,28442
1456.64,1.337352,616264,28341
1459.85,1.339445,614413,28120
1463.04,1.341147,612307,27914
1466.24,1.335396,610032,28181
1469.43,1.338985,607345,27826
1473.67,1.334954,603789,27921
1476.85,1.339100,601175,27536
1480.02,1.332106,597737,27823
1483.19,1.341007,594479,27110
1486.36,1.340748,591232,26978
1489.52,1.333759,587853,27259
1492.68,1.337974,583875,26813
1496.89,1.336799,578062,26618
1500.03,1.340101,574159,26238
1503.18,1.334422,570285,26404
1506.32,1.339107,565444,25899
1509.45,1.334058,560571,25976
1512.58,1.340187,555821,25395
1515.71,1.338149,550344,25263
1519.87,1.336622,543983,25059
1522.99,1.335863,538764,24862
1526.1,1.335509,533692,24648
1529.21,1.339582,527902,24153
1532.32,1.334389,521886,24165
1535.42,1.331350,515888,24055
1538.51,1.341192,509987,23247
1541.6,1.332510,503936,23435
1545.72,1.339115,494694,22658
1548.8,1.335860,488378,22537
1551.88,1.338130,481832,22119
1554.95,1.334972,474989,21964
1558.02,1.343987,467818,21188
1561.08,1.333033,460730,21400
1564.15,1.335910,454170,20956
1568.22,1.334262,444181,20573
1571.27,1.334798,436947,20213
1574.32,1.329003,429598,20140
1577.36,1.330556,422039,19715
1580.4,1.332805,414375,19257
1583.43,1.331387,406354,18946
1586.46,1.326567,398475,18786
1590.49,1.326010,388982,18362
1593.51,1.336191,380708,17555
1596.53,1.332943,372727,17316
1599.54,1.326735,365060,17204
1602.55,1.325853,357543,16884
1605.55,1.324433,349495,16558
1608.55,1.313838,341154,16562
1612.54,1.337081,330877,15226
1615.53,1.323305,322904,15338
1618.51,1.331508,315116,14688
1621.49,1.326317,307217,14492
1624.47,1.331982,299481,13944
1627.44,1.315930,292112,14113
1630.41,1.323198,284245,13505
1634.36,1.339232,274079,12550
1637.32,1.323290,266916,12679
1640.27,1.327431,259612,12215
1643.22,1.315843,251804,12168
1646.16,1.326029,244348,11534
1649.1,1.303317,236703,11773
1652.04,1.305682,228171,11287
1655.95,1.314769,215408,10435
1658.88,1.321015,204937,9786
1661.8,1.315959,193395,9343
1664.72,1.321432,179728,8574
1667.63,1.318362,163642,7862
1670.54,1.299406,146312,7343
1673.44,1.294357,128451,6522
1677.31,1.296998,105080,5303
1680.21,1.274070,88906,4730
1683.1,1.268656,75033,4042
1685.99,1.318896,63520,3048
1688.87,1.302764,53714,2675
1691.75,1.362366,45653,1982
1694.62,1.218940,39137,2364
1697.49,1.188561,33776,2188
1701.31,1.233962,28175,1644