Folder: textile_sorting_NIRSCAN_/samples/unknown (part 12)

File: Column 1_078065_20241121_164345.csv
Method:,Column 1,,
Host Date-Time:,21/11/24 @ 16:43:45,,
Header Version:,1,,
System Temp (C):,31.43,,
Detector Temp (C):,26.12,,
Humidity (%):,5.32,,
Lamp PD:,3809,,
Shift Vector Coefficients:,-10.5391,0.0761263,-0.000134223,,
Pixel to Wavelength Coefficients:,1775.68,-0.916766,-0.000235065,,
Serial Number:,5510004,,
Scan Config Name:,Column 1,,
Scan Config Type:,Slew,,
Section 1,,
Start wavelength (nm):,900,,
End wavelength (nm):,1700,,
Pattern Pixel Width (nm):,   7.03,,,,
Exposure (ms):,  0.635,,,,
Digital Resolution:,228,,
Num Repeats:,6,,
PGA Gain:,64,,
Total Measurement Time in sec:,  2.705,,
Wavelength (nm),Absorbance (AU),Reference Signal (unitless),Sample Signal (unitless)
901.51,1.309866,108485,5315
905.376,1.300407,121306,6074
909.237,1.325020,131909,6241
913.095,1.318402,143299,6884
916.948,1.316582,156982,7573
922.079,1.304950,179937,8916
925.923,1.305568,200504,9921
929.762,1.309221,222660,10925
933.597,1.320296,244426,11691
937.427,1.317823,263972,12698
941.254,1.318135,281845,13548
945.076,1.305658,297271,14706
950.165,1.318645,315605,15153
953.978,1.312444,328029,15976
957.786,1.299896,340470,17068
961.59,1.311506,352317,17196
965.389,1.311093,363056,17737
969.185,1.315204,373162,18059
972.976,1.309780,382632,18750
976.763,1.310641,391202,19132
981.806,1.304265,400190,19861
985.583,1.314374,406088,19690
989.355,1.303922,410162,20372
993.124,1.305841,412868,20416
996.888,1.306201,414263,20468
1000.65,1.312185,415476,20247
1004.4,1.306562,415479,20511
1009.41,1.315305,414358,20048
1013.15,1.314622,412923,20010
1016.89,1.304490,411526,20413
1020.63,1.308489,409066,20105
1024.36,1.308761,406777,19980
1028.09,1.306071,404427,19988
1031.82,1.299984,401911,20144
1036.78,1.311522,398410,19445
1040.49,1.313420,396204,19253
1044.2,1.302040,394236,19666
1047.91,1.303521,392042,19490
1051.61,1.307046,389823,19223
1055.31,1.309039,388234,19057
1059,1.317122,387599,18675
1063.92,1.310302,386688,18926
1067.61,1.313888,386598,18766
1071.29,1.309952,387377,18975
1074.96,1.318380,388536,18666
1078.63,1.314809,389855,18884
1082.3,1.309997,391215,19161
1085.96,1.315305,393215,19025
1090.84,1.315777,396270,19152
1094.49,1.314300,398760,19338
1098.14,1.311784,400987,19559
1101.79,1.316855,403477,19452
1105.43,1.315509,406116,19640
1109.06,1.305873,407701,20159
1112.7,1.313367,409859,19919
1117.53,1.309615,412494,20221
1121.15,1.319449,414909,19884
1124.77,1.310132,416559,20396
1128.38,1.317691,418532,20139
1131.99,1.313914,419956,20384
1135.6,1.311158,421946,20611
1139.2,1.311337,423881,20697
1143.99,1.320112,426786,20422
1147.58,1.319977,428617,20516
1151.17,1.313775,431169,20935
1154.75,1.319444,433579,20779
1158.33,1.317365,436264,21008
1161.91,1.318333,439132,21099
1165.48,1.314235,442389,21457
1169.04,1.320463,446101,21329
1173.79,1.319632,451929,21649
1177.34,1.309460,456026,22363
1180.9,1.318165,461306,22173
1184.44,1.320126,467657,22377
1187.99,1.318635,473969,22757
1191.52,1.316654,479856,23145
1195.06,1.320934,487372,23277
1199.76,1.318953,497347,23862
1203.29,1.321042,504311,24080
1206.81,1.324229,511507,24245
1210.33,1.317797,519078,24971
1213.84,1.329037,527163,24712
1217.35,1.329597,534208,25010
1220.85,1.325756,540472,25528
1225.51,1.329934,549929,25726
1229.01,1.322965,556888,26473
1232.5,1.320301,562180,26889
1235.98,1.322660,567975,27019
1239.46,1.321334,574815,27428
1242.94,1.347586,582782,26177
1246.41,1.325276,591476,27968
1251.03,1.320677,604016,28865
1254.5,1.319008,612289,29373
1257.96,1.328079,619125,29087
1261.41,1.325864,624551,29492
1264.86,1.326515,629900,29700
1268.31,1.330447,634345,29640
1271.75,1.323010,638574,30353
1276.33,1.327506,642499,30225
1279.76,1.323823,645905,30644
1283.19,1.330180,648307,30311
1286.61,1.327532,650446,30597
1290.03,1.333251,652132,30275
1293.44,1.325108,653907,30932
1296.85,1.330633,655963,30637
1301.39,1.326588,657349,30989
1304.8,1.328989,657558,30828
1308.19,1.326127,658515,31077
1311.58,1.335155,658804,30451
1314.97,1.329891,659011,30832
1318.36,1.327058,658272,30999
1321.73,1.340338,658022,30054
1326.23,1.330775,657870,30716
1329.6,1.332724,656482,30514
1332.97,1.332919,654926,30428
1336.33,1.337277,653727,30069
1339.69,1.327299,652497,30710
1343.04,1.328570,649913,30499
1346.39,1.330041,647671,30291
1349.73,1.335542,645338,29802
1354.18,1.326768,641175,30214
1357.52,1.328868,638376,29937
1360.85,1.324887,635805,30091
1364.17,1.334775,633413,29303
1367.49,1.330328,631026,29493
1370.81,1.332507,628050,29207
1374.12,1.328799,625034,29316
1378.54,1.329690,620272,29033
1381.84,1.328906,616892,28927
1385.14,1.319725,613613,29388
1388.43,1.326073,611526,28863
1391.72,1.327285,610663,28742
1395.01,1.315900,610634,29504
1398.29,1.322675,611700,29098
1402.66,1.329431,614051,28759
1405.93,1.325608,616268,29118
1409.2,1.330849,617795,28840
1412.46,1.328096,618872,29074
1415.72,1.328161,619795,29113
1418.98,1.336357,620495,28601
1422.23,1.330665,621087,29006
1426.56,1.332201,621375,28917
1429.8,1.339532,621616,28444
1433.04,1.326509,622129,29334
1436.27,1.333569,621526,28833
1439.5,1.331942,621113,28922
1442.72,1.331373,620921,28951
1445.94,1.336033,620270,28612
1450.23,1.333998,618860,28681
1453.44,1.334911,617697,28567
1456.64,1.338518,616264,28265
1459.85,1.335785,614413,28358
1463.04,1.333804,612307,28390
1466.24,1.337219,610032,28063
1469.43,1.332525,607345,28243
1473.67,1.337622,603789,27750
1476.85,1.336600,601175,27695
1480.02,1.330781,597737,27908
1483.19,1.335183,594479,27476
1486.36,1.333928,591232,27405
1489.52,1.338243,587853,26979
1492.68,1.338980,583875,26751
1496.89,1.340206,578062,26410
1500.03,1.333677,574159,26629
1503.18,1.338355,570285,26166
1506.32,1.334039,565444,26203
1509.45,1.341733,560571,25521
1512.58,1.343155,555821,25222
1515.71,1.338975,550344,25215
1519.87,1.335860,543983,25103
1522.99,1.339775,538764,24639
1526.1,1.334225,533692,24721
1529.21,1.341240,527902,24061
1532.32,1.332918,521886,24247
1535.42,1.341026,515888,23525
1538.51,1.338938,509987,23368
1541.6,1.335448,503936,23277
1545.72,1.334995,494694,22874
1548.8,1.333305,488378,22670
1551.88,1.332570,481832,22404
1554.95,1.337252,474989,21849
1558.02,1.333777,467818,21692
1561.08,1.335883,460730,21260
1564.15,1.338800,454170,20817
1568.22,1.338697,444181,20364
1571.27,1.338704,436947,20032
1574.32,1.328378,429598,20169
1577.36,1.337081,422039,19421
1580.4,1.336247,414375,19105
1583.43,1.333939,406354,18835
1586.46,1.339734,398475,18225
1590.49,1.326246,388982,18352
1593.51,1.330465,380708,17788
1596.53,1.334375,372727,17259
1599.54,1.330105,365060,17071
1602.55,1.325699,357543,16890
1605.55,1.330109,349495,16343
1608.55,1.327340,341154,16055
1612.54,1.328076,330877,15545
1615.53,1.322739,322904,15358
1618.51,1.326013,315116,14875
1621.49,1.320128,307217,14700
1624.47,1.318308,299481,14390
1627.44,1.316238,292112,14103
1630.41,1.322813,284245,13517
1634.36,1.323465,274079,13014
1637.32,1.314205,266916,12947
1640.27,1.317449,259612,12499
1643.22,1.314667,251804,12201
1646.16,1.312279,244348,11905
1649.1,1.316576,236703,11419
1652.04,1.314859,228171,11051
1655.95,1.305668,215408,10656
1658.88,1.327093,204937,9650
1661.8,1.301648,193395,9656
1664.72,1.317700,179728,8648
1667.63,1.325210,163642,7739
1670.54,1.292250,146312,7465
1673.44,1.303917,128451,6380
1677.31,1.322463,105080,5001
1680.21,1.300473,88906,4451
1683.1,1.315585,75033,3628
1685.99,1.321468,63520,3030
1688.87,1.365161,53714,2317
1691.75,1.250721,45653,2563
1694.62,1.336351,39137,1804
1697.49,1.342783,33776,1534
1701.31,1.186701,28175,1833

File: Column 1_078066_20241121_164348.csv
Method:,Column 1,,
Host Date-Time:,21/11/24 @ 16:43:48,,
Header Version:,1,,
System Temp (C):,31.41,,
Detector Temp (C):,26.15,,
Humidity (%):,5.27,,
Lamp PD:,3809,,
Shift Vector Coefficients:,-10.5391,0.0761263,-0.000134223,,
Pixel to Wavelength Coefficients:,1775.68,-0.916766,-0.000235065,,
Serial Number:,5510004,,
Scan Config Name:,Column 1,,
Scan Config Type:,Slew,,
Section 1,,
Start wavelength (nm):,900,,
End wavelength (nm):,1700,,
Pattern Pixel Width (nm):,   7.03,,,,
Exposure (ms):,  0.635,,,,
Digital Resolution:,228,,
Num Repeats:,6,,
PGA Gain:,64,,
Total Measurement Time in sec:,  2.708,,
Wavelength (nm),Absorbance (AU),Reference Signal (unitless),Sample Signal (unitless)
901.51,1.319283,108485,5201
905.376,1.310023,121306,5941
909.237,1.283065,131909,6874
913.095,1.312637,143299,6976
916.948,1.320847,156982,7499
922.079,1.312666,179937,8759
925.923,1.314859,200504,9711
929.762,1.307040,222660,10980
933.597,1.305218,244426,12104
937.427,1.313941,263972,12812
941.254,1.327663,281845,13254
945.076,1.304449,297271,14747
950.165,1.320282,315605,15096
953.978,1.311412,328029,16014
957.786,1.315755,340470,16456
961.59,1.300189,352317,17650
965.389,1.314782,363056,17587
969.185,1.302641,373162,18589
972.976,1.310638,382632,18713
976.763,1.308444,391202,19229
981.806,1.303850,400190,19880
985.583,1.303032,406088,20211
989.355,1.313666,410162,19920
993.124,1.307140,412868,20355
996.888,1.304147,414263,20565
1000.65,1.309662,415476,20365
1004.4,1.314727,415479,20129
1009.41,1.304458,414358,20555
1013.15,1.307390,412923,20346
1016.89,1.317842,411526,19795
1020.63,1.307303,409066,20160
1024.36,1.298748,406777,20446
1028.09,1.306201,404427,19982
1031.82,1.303991,401911,19959
1036.78,1.312372,398410,19407
1040.49,1.307884,396204,19500
1044.2,1.306859,394236,19449
1047.91,1.313460,392042,19049
1051.61,1.317913,389823,18748
1055.31,1.314913,388234,18801
1059,1.310682,387599,18954
1063.92,1.312142,386688,18846
1067.61,1.307410,386598,19048
1071.29,1.310044,387377,18971
1074.96,1.315204,388536,18803
1078.63,1.309983,389855,19095
1082.3,1.312726,391215,19041
1085.96,1.319065,393215,18861
1090.84,1.319375,396270,18994
1094.49,1.311435,398760,19466
1098.14,1.313653,400987,19475
1101.79,1.309549,403477,19782
1105.43,1.318905,406116,19487
1109.06,1.309964,407701,19970
1112.7,1.317926,409859,19711
1117.53,1.313455,412494,20043
1121.15,1.321003,414909,19813
1124.77,1.316589,416559,20095
1128.38,1.320959,418532,19988
1131.99,1.324329,419956,19901
1135.6,1.322839,421946,20064
1139.2,1.321291,423881,20228
1143.99,1.317103,426786,20564
1147.58,1.321227,428617,20457
1151.17,1.319685,431169,20652
1154.75,1.323433,433579,20589
1158.33,1.322501,436264,20761
1161.91,1.318745,439132,21079
1165.48,1.317302,442389,21306
1169.04,1.319324,446101,21385
1173.79,1.321522,451929,21555
1177.34,1.316330,456026,22012
1180.9,1.315159,461306,22327
1184.44,1.320553,467657,22355
1187.99,1.313758,473969,23014
1191.52,1.323767,479856,22769
1195.06,1.319853,487372,23335
1199.76,1.322994,497347,23641
1203.29,1.317700,504311,24266
1206.81,1.325647,511507,24166
1210.33,1.321763,519078,24744
1213.84,1.322895,527163,25064
1217.35,1.327328,534208,25141
1220.85,1.324092,540472,25626
1225.51,1.326320,549929,25941
1229.01,1.328263,556888,26152
1232.5,1.319027,562180,26968
1235.98,1.318867,567975,27256
1239.46,1.331312,574815,26805
1242.94,1.317465,582782,28057
1246.41,1.320350,591476,28287
1251.03,1.326021,604016,28512
1254.5,1.328575,612289,28733
1257.96,1.327423,619125,29131
1261.41,1.323411,624551,29659
1264.86,1.327936,629900,29603
1268.31,1.328124,634345,29799
1271.75,1.333714,638574,29614
1276.33,1.331940,642499,29918
1279.76,1.327467,645905,30388
1283.19,1.323625,648307,30772
1286.61,1.326781,650446,30650
1290.03,1.334444,652132,30192
1293.44,1.329539,653907,30618
1296.85,1.331570,655963,30571
1301.39,1.328682,657349,30840
1304.8,1.334390,657558,30447
1308.19,1.332901,658515,30596
1311.58,1.333759,658804,30549
1314.97,1.334963,659011,30474
1318.36,1.335103,658272,30430
1321.73,1.330961,658022,30710
1326.23,1.339790,657870,30085
1329.6,1.333365,656482,30469
1332.97,1.336042,654926,30210
1336.33,1.333553,653727,30328
1339.69,1.339038,652497,29891
1343.04,1.327191,649913,30596
1346.39,1.330873,647671,30233
1349.73,1.335250,645338,29822
1354.18,1.328439,641175,30098
1357.52,1.329987,638376,29860
1360.85,1.331021,635805,29669
1364.17,1.330806,633413,29572
1367.49,1.330446,631026,29485
1370.81,1.325911,628050,29654
1374.12,1.321687,625034,29800
1378.54,1.330859,620272,28955
1381.84,1.331390,616892,28762
1385.14,1.322393,613613,29208
1388.43,1.327732,611526,28753
1391.72,1.320062,610663,29224
1395.01,1.326434,610634,28797
1398.29,1.332960,611700,28417
1402.66,1.331247,614051,28639
1405.93,1.336665,616268,28386
1409.2,1.333932,617795,28636
1412.46,1.331967,618872,28816
1415.72,1.333203,619795,28777
1418.98,1.337239,620495,28543
1422.23,1.336650,621087,28609
1426.56,1.331375,621375,28972
1429.8,1.333723,621616,28827
1433.04,1.337621,622129,28593
1436.27,1.332471,621526,28906
1439.5,1.336547,621113,28617
1442.72,1.331253,620921,28959
1445.94,1.333867,620270,28755
1450.23,1.339760,618860,28303
1453.44,1.339404,617697,28273
1456.64,1.336433,616264,28401
1459.85,1.337980,614413,28215
1463.04,1.341412,612307,27897
1466.24,1.336940,610032,28081
1469.43,1.329980,607345,28409
1473.67,1.339646,603789,27621
1476.85,1.337809,601175,27618
1480.02,1.342644,597737,27156
1483.19,1.334188,594479,27539
1486.36,1.346028,591232,26652
1489.52,1.337487,587853,27026
1492.68,1.340704,583875,26645
1496.89,1.332707,578062,26870
1500.03,1.338350,574159,26344
1503.18,1.340518,570285,26036
1506.32,1.335832,565444,26095
1509.45,1.337011,560571,25800
1512.58,1.346821,555821,25010
1515.71,1.332768,550344,25578
1519.87,1.346207,543983,24512
1522.99,1.340834,538764,24579
1526.1,1.341881,533692,24289
1529.21,1.340662,527902,24093
1532.32,1.344185,521886,23626
1535.42,1.330232,515888,24117
1538.51,1.338826,509987,23374
1541.6,1.333085,503936,23404
1545.72,1.335355,494694,22855
1548.8,1.337559,488378,22449
1551.88,1.336543,481832,22200
1554.95,1.340985,474989,21662
1558.02,1.336106,467818,21576
1561.08,1.334395,460730,21333
1564.15,1.338050,454170,20853
1568.22,1.337972,444181,20398
1571.27,1.342296,436947,19867
1574.32,1.335586,429598,19837
1577.36,1.335875,422039,19475
1580.4,1.336110,414375,19111
1583.43,1.324564,406354,19246
1586.46,1.330958,398475,18597
1590.49,1.328381,388982,18262
1593.51,1.330099,380708,17803
1596.53,1.329969,372727,17435
1599.54,1.341629,365060,16624
1602.55,1.341301,357543,16294
1605.55,1.325299,349495,16525
1608.55,1.326233,341154,16096
1612.54,1.323684,330877,15703
1615.53,1.343058,322904,14656
1618.51,1.332781,315116,14645
1621.49,1.330140,307217,14365
1624.47,1.321793,299481,14275
1627.44,1.332458,292112,13586
1630.41,1.327594,284245,13369
1634.36,1.325405,274079,12956
1637.32,1.323118,266916,12684
1640.27,1.334276,259612,12024
1643.22,1.307396,251804,12407
1646.16,1.322952,244348,11616
1649.1,1.330684,236703,11054
1652.04,1.315842,228171,11026
1655.95,1.319414,215408,10324
1658.88,1.309238,204937,10055
1661.8,1.322846,193395,9196
1664.72,1.322700,179728,8549
1667.63,1.326559,163642,7715
1670.54,1.324296,146312,6934
1673.44,1.339434,128451,5879
1677.31,1.348223,105080,4713
1680.21,1.345137,88906,4016
1683.1,1.307051,75033,3700
1685.99,1.285979,63520,3288
1688.87,1.388653,53714,2195
1691.75,1.265543,45653,2477
1694.62,1.339492,39137,1791
1697.49,1.277944,33776,1781
1701.31,1.425378,28175,1058

File: Column 1_078067_20241121_164351.csv
Method:,Column 1,,
Host Date-Time:,21/11/24 @ 16:43:51,,
Header Version:,1,,
System Temp (C):,31.31,,
Detector Temp (C):,26.24,,
Humidity (%):,5.27,,
Lamp PD:,3809,,
Shift Vector Coefficients:,-10.5391,0.0761263,-0.000134223,,
Pixel to Wavelength Coefficients:,1775.68,-0.916766,-0.000235065,,
Serial Number:,5510004,,
Scan Config Name:,Column 1,,
Scan Config Type:,Slew,,
Section 1,,
Start wavelength (nm):,900,,
End wavelength (nm):,1700,,
Pattern Pixel Width (nm):,   7.03,,,,
Exposure (ms):,  0.635,,,,
Digital Resolution:,228,,
Num Repeats:,6,,
PGA Gain:,64,,
Total Measurement Time in sec:,  2.707,,
Wavelength (nm),Absorbance (AU),Reference Signal (unitless),Sample Signal (unitless)
901.51,1.313394,108485,5272
905.376,1.336315,121306,5592
909.237,1.318528,131909,6335
913.095,1.302910,143299,7134
916.948,1.315208,156982,7597
922.079,1.297944,179937,9061
925.923,1.324537,200504,9497
929.762,1.314701,222660,10788
933.597,1.327374,244426,11502
937.427,1.311305,263972,12890
941.254,1.309911,281845,13807
945.076,1.306397,297271,14681
950.165,1.305964,315605,15602
953.978,1.317915,328029,15776
957.786,1.315966,340470,16448
961.59,1.303970,352317,17497
965.389,1.311853,363056,17706
969.185,1.309897,373162,18281
972.976,1.312219,382632,18645
976.763,1.307046,391202,19291
981.806,1.313436,400190,19446
985.583,1.300184,406088,20344
989.355,1.316510,410162,19790
993.124,1.310589,412868,20194
996.888,1.313648,414263,20120
1000.65,1.308193,415476,20434
1004.4,1.311503,415479,20279
1009.41,1.301972,414358,20673
1013.15,1.303501,412923,20529
1016.89,1.314803,411526,19934
1020.63,1.311372,409066,19972
1024.36,1.306939,406777,20064
1028.09,1.320586,404427,19331
1031.82,1.307816,401911,19784
1036.78,1.310028,398410,19512
1040.49,1.308754,396204,19461
1044.2,1.308178,394236,19390
1047.91,1.307798,392042,19299
1051.61,1.307906,389823,19185
1055.31,1.315305,388234,18784
1059,1.315706,387599,18736
1063.92,1.318058,386688,18591
1067.61,1.310086,386598,18931
1071.29,1.316037,387377,18711
1074.96,1.311799,388536,18951
1078.63,1.318249,389855,18735
1082.3,1.306993,391215,19294
1085.96,1.319803,393215,18829
1090.84,1.312209,396270,19310
1094.49,1.311658,398760,19456
1098.14,1.321370,400987,19132
1101.79,1.307993,403477,19853
1105.43,1.319909,406116,19442
1109.06,1.305916,407701,20157
1112.7,1.314546,409859,19865
1117.53,1.331235,412494,19239
1121.15,1.310756,414909,20286
1124.77,1.313466,416559,20240
1128.38,1.316012,418532,20217
1131.99,1.314810,419956,20342
1135.6,1.320853,421946,20156
1139.2,1.317784,423881,20392
1143.99,1.319092,426786,20470
1147.58,1.312818,428617,20857
1151.17,1.318509,431169,20708
1154.75,1.316258,433579,20932
1158.33,1.324956,436264,20644
1161.91,1.320541,439132,20992
1165.48,1.317649,442389,21289
1169.04,1.326202,446101,21049
1173.79,1.318630,451929,21699
1177.34,1.314794,456026,22090
1180.9,1.322238,461306,21966
1184.44,1.319776,467657,22395
1187.99,1.319533,473969,22710
1191.52,1.317010,479856,23126
1195.06,1.320300,487372,23311
1199.76,1.321655,497347,23714
1203.29,1.328262,504311,23683
1206.81,1.326402,511507,24124
1210.33,1.323222,519078,24661
1213.84,1.318395,527163,25325
1217.35,1.324418,534208,25310
1220.85,1.325569,540472,25539
1225.51,1.324799,549929,26032
1229.01,1.325895,556888,26295
1232.5,1.328091,562180,26411
1235.98,1.323336,567975,26977
1239.46,1.317393,574815,27678
1242.94,1.324345,582782,27616
1246.41,1.324562,591476,28014
1251.03,1.326829,604016,28459
1254.5,1.327127,612289,28829
1257.96,1.334730,619125,28645
1261.41,1.325040,624551,29548
1264.86,1.324633,629900,29829
1268.31,1.327541,634345,29839
1271.75,1.327251,638574,30058
1276.33,1.325628,642499,30356
1279.76,1.328740,645905,30299
1283.19,1.329264,648307,30375
1286.61,1.333161,650446,30203
1290.03,1.326957,652132,30717
1293.44,1.331572,653907,30475
1296.85,1.331925,655963,30546
1301.39,1.329951,657349,30750
1304.8,1.335947,657558,30338
1308.19,1.332461,658515,30627
1311.58,1.328194,658804,30943
1314.97,1.329637,659011,30850
1318.36,1.335460,658272,30405
1321.73,1.331102,658022,30700
1326.23,1.340007,657870,30070
1329.6,1.330127,656482,30697
1332.97,1.335094,654926,30276
1336.33,1.332037,653727,30434
1339.69,1.329127,652497,30581
1343.04,1.336415,649913,29953
1346.39,1.333481,647671,30052
1349.73,1.330183,645338,30172
1354.18,1.332192,641175,29839
1357.52,1.331546,638376,29753
1360.85,1.330348,635805,29715
1364.17,1.336185,633413,29208
1367.49,1.337874,631026,28985
1370.81,1.335461,628050,29009
1374.12,1.330848,625034,29178
1378.54,1.323866,620272,29425
1381.84,1.322956,616892,29326
1385.14,1.328955,613613,28770
1388.43,1.327928,611526,28740
1391.72,1.327950,610663,28698
1395.01,1.330784,610634,28510
1398.29,1.328006,611700,28743
1402.66,1.326676,614051,28942
1405.93,1.335031,616268,28493
1409.2,1.330939,617795,28834
1412.46,1.331064,618872,28876
1415.72,1.331576,619795,28885
1418.98,1.334781,620495,28705
1422.23,1.328424,621087,29156
1426.56,1.332171,621375,28919
1429.8,1.338952,621616,28482
1433.04,1.333208,622129,28885
1436.27,1.332426,621526,28909
1439.5,1.334654,621113,28742
1442.72,1.333297,620921,28823
1445.94,1.331337,620270,28923
1450.23,1.333091,618860,28741
1453.44,1.338131,617697,28356
1456.64,1.336601,616264,28390
1459.85,1.338612,614413,28174
1463.04,1.333116,612307,28435
1466.24,1.330858,610032,28477
1469.43,1.331174,607345,28331
1473.67,1.336731,603789,27807
1476.85,1.346882,601175,27047
1480.02,1.332700,597737,27785
1483.19,1.340463,594479,27144
1486.36,1.338901,591232,27093
1489.52,1.340907,587853,26814
1492.68,1.352283,583875,25944
1496.89,1.333921,578062,26795
1500.03,1.335049,574159,26545
1503.18,1.340118,570285,26060
1506.32,1.336299,565444,26067
1509.45,1.336489,560571,25831
1512.58,1.340324,555821,25387
1515.71,1.339613,550344,25178
1519.87,1.343029,543983,24692
1522.99,1.332504,538764,25055
1526.1,1.340025,533692,24393
1529.21,1.341077,527902,24070
1532.32,1.336190,521886,24065
1535.42,1.347011,515888,23203
1538.51,1.342671,509987,23168
1541.6,1.334535,503936,23326
1545.72,1.338426,494694,22694
1548.8,1.339848,488378,22331
1551.88,1.338464,481832,22102
1554.95,1.342149,474989,21604
1558.02,1.340069,467818,21380
1561.08,1.337090,460730,21201
1564.15,1.342046,454170,20662
1568.22,1.338612,444181,20368
1571.27,1.332719,436947,20310
1574.32,1.332923,429598,19959
1577.36,1.335118,422039,19509
1580.4,1.333708,414375,19217
1583.43,1.325151,406354,19220
1586.46,1.333887,398475,18472
1590.49,1.335164,388982,17979
1593.51,1.329538,380708,17826
1596.53,1.325262,372727,17625
1599.54,1.330818,365060,17043
1602.55,1.329002,357543,16762
1605.55,1.331893,349495,16276
1608.55,1.330299,341154,15946
1612.54,1.325986,330877,15620
1615.53,1.328862,322904,15143
1618.51,1.326013,315116,14875
1621.49,1.322557,307217,14618
1624.47,1.317223,299481,14426
1627.44,1.313200,292112,14202
1630.41,1.324035,284245,13479
1634.36,1.322332,274079,13048
1637.32,1.337636,266916,12267
1640.27,1.325268,259612,12276
1643.22,1.319283,251804,12072
1646.16,1.326971,244348,11509
1649.1,1.321702,236703,11285
1652.04,1.325722,228171,10778
1655.95,1.304040,215408,10696
1658.88,1.318669,204937,9839
1661.8,1.324029,193395,9171
1664.72,1.319713,179728,8608
1667.63,1.323921,163642,7762
1670.54,1.309943,146312,7167
1673.44,1.290182,128451,6585
1677.31,1.287681,105080,5418
1680.21,1.290443,88906,4555
1683.1,1.271134,75033,4019
1685.99,1.297354,63520,3203
1688.87,1.375787,53714,2261
1691.75,1.303443,45653,2270
1694.62,1.252540,39137,2188
1697.49,1.355714,33776,1489
1701.31,1.287300,28175,1454