Folder: textile_sorting_NIRSCAN_/samples/unknown (part 11)

File: Column 1_078058_20241121_164325.csv
Method:,Column 1,,
Host Date-Time:,21/11/24 @ 16:43:25,,
Header Version:,1,,
System Temp (C):,31.1,,
Detector Temp (C):,25.86,,
Humidity (%):,5.37,,
Lamp PD:,3810,,
Shift Vector Coefficients:,-10.5391,0.0761263,-0.000134223,,
Pixel to Wavelength Coefficients:,1775.68,-0.916766,-0.000235065,,
Serial Number:,5510004,,
Scan Config Name:,Column 1,,
Scan Config Type:,Slew,,
Section 1,,
Start wavelength (nm):,900,,
End wavelength (nm):,1700,,
Pattern Pixel Width (nm):,   7.03,,,,
Exposure (ms):,  0.635,,,,
Digital Resolution:,228,,
Num Repeats:,6,,
PGA Gain:,64,,
Total Measurement Time in sec:,  2.707,,
Wavelength (nm),Absorbance (AU),Reference Signal (unitless),Sample Signal (unitless)
901.51,1.296827,108485,5477
905.376,1.310608,121306,5933
909.237,1.296409,131909,6666
913.095,1.315698,143299,6927
916.948,1.290432,156982,8043
922.079,1.294935,179937,9124
925.923,1.300865,200504,10029
929.762,1.321027,222660,10632
933.597,1.318442,244426,11741
937.427,1.305914,263972,13051
941.254,1.308968,281845,13837
945.076,1.326064,297271,14031
950.165,1.311595,315605,15401
953.978,1.298165,328029,16510
957.786,1.319971,340470,16297
961.59,1.314369,352317,17083
965.389,1.317383,363056,17482
969.185,1.304374,373162,18515
972.976,1.304531,382632,18978
976.763,1.313556,391202,19004
981.806,1.308506,400190,19668
985.583,1.305467,406088,20098
989.355,1.315479,410162,19837
993.124,1.310374,412868,20204
996.888,1.309951,414263,20292
1000.65,1.306623,415476,20508
1004.4,1.311802,415479,20265
1009.41,1.315413,414358,20043
1013.15,1.314080,412923,20035
1016.89,1.306901,411526,20300
1020.63,1.320513,409066,19556
1024.36,1.311137,406777,19871
1028.09,1.314495,404427,19604
1031.82,1.313250,401911,19538
1036.78,1.316690,398410,19215
1040.49,1.310140,396204,19399
1044.2,1.315588,394236,19062
1047.91,1.308428,392042,19271
1051.61,1.311840,389823,19012
1055.31,1.320726,388234,18551
1059,1.313140,387599,18847
1063.92,1.313943,386688,18768
1067.61,1.315139,386598,18712
1071.29,1.314693,387377,18769
1074.96,1.314627,388536,18828
1078.63,1.309461,389855,19118
1082.3,1.316805,391215,18863
1085.96,1.317181,393215,18943
1090.84,1.321621,396270,18896
1094.49,1.322278,398760,18986
1098.14,1.312117,400987,19544
1101.79,1.317681,403477,19415
1105.43,1.317459,406116,19552
1109.06,1.320731,407701,19481
1112.7,1.315246,409859,19833
1117.53,1.319125,412494,19783
1121.15,1.320280,414909,19846
1124.77,1.322463,416559,19825
1128.38,1.320438,418532,20012
1131.99,1.325028,419956,19869
1135.6,1.323641,421946,20027
1139.2,1.308200,423881,20847
1143.99,1.313422,426786,20739
1147.58,1.318793,428617,20572
1151.17,1.319013,431169,20684
1154.75,1.317421,433579,20876
1158.33,1.325229,436264,20631
1161.91,1.325033,439132,20776
1165.48,1.327929,442389,20791
1169.04,1.313394,446101,21679
1173.79,1.313933,451929,21935
1177.34,1.318149,456026,21920
1180.9,1.319872,461306,22086
1184.44,1.318131,467657,22480
1187.99,1.315649,473969,22914
1191.52,1.317913,479856,23078
1195.06,1.320430,487372,23304
1199.76,1.323435,497347,23617
1203.29,1.325556,504311,23831
1206.81,1.326078,511507,24142
1210.33,1.323099,519078,24668
1213.84,1.332106,527163,24538
1217.35,1.320285,534208,25552
1220.85,1.325893,540472,25520
1225.51,1.322702,549929,26158
1229.01,1.324987,556888,26350
1232.5,1.324863,562180,26608
1235.98,1.319361,567975,27225
1239.46,1.330826,574815,26835
1242.94,1.326695,582782,27467
1246.41,1.322582,591476,28142
1251.03,1.325899,604016,28520
1254.5,1.320563,612289,29268
1257.96,1.323372,619125,29404
1261.41,1.326114,624551,29475
1264.86,1.324400,629900,29845
1268.31,1.324611,634345,30041
1271.75,1.328858,638574,29947
1276.33,1.327161,642499,30249
1279.76,1.326396,645905,30463
1283.19,1.330969,648307,30256
1286.61,1.334630,650446,30101
1290.03,1.329481,652132,30539
1293.44,1.326712,653907,30818
1296.85,1.334964,655963,30333
1301.39,1.335251,657349,30377
1304.8,1.337180,657558,30252
1308.19,1.331994,658515,30660
1311.58,1.329501,658804,30850
1314.97,1.334465,659011,30509
1318.36,1.328658,658272,30885
1321.73,1.327973,658022,30922
1326.23,1.333612,657870,30516
1329.6,1.337676,656482,30168
1332.97,1.334549,654926,30314
1336.33,1.331324,653727,30484
1339.69,1.334270,652497,30221
1343.04,1.331929,649913,30264
1346.39,1.326173,647671,30562
1349.73,1.330875,645338,30124
1354.18,1.327646,641175,30153
1357.52,1.333609,638376,29612
1360.85,1.331666,635805,29625
1364.17,1.332425,633413,29462
1367.49,1.334575,631026,29206
1370.81,1.329603,628050,29403
1374.12,1.332877,625034,29042
1378.54,1.319548,620272,29719
1381.84,1.325943,616892,29125
1385.14,1.328020,613613,28832
1388.43,1.331966,611526,28474
1391.72,1.329238,610663,28613
1395.01,1.328202,610634,28680
1398.29,1.332869,611700,28423
1402.66,1.326286,614051,28968
1405.93,1.330121,616268,28817
1409.2,1.333280,617795,28679
1412.46,1.329562,618872,28976
1415.72,1.328639,619795,29081
1418.98,1.334191,620495,28744
1422.23,1.335967,621087,28654
1426.56,1.336396,621375,28639
1429.8,1.339547,621616,28443
1433.04,1.331917,622129,28971
1436.27,1.334837,621526,28749
1439.5,1.335667,621113,28675
1442.72,1.340514,620921,28348
1445.94,1.335714,620270,28633
1450.23,1.335697,618860,28569
1453.44,1.332092,617697,28753
1456.64,1.335623,616264,28454
1459.85,1.340450,614413,28055
1463.04,1.335613,612307,28272
1466.24,1.339655,610032,27906
1469.43,1.341505,607345,27665
1473.67,1.334643,603789,27941
1476.85,1.338501,601175,27574
1480.02,1.334046,597737,27699
1483.19,1.347073,594479,26734
1486.36,1.339832,591232,27035
1489.52,1.337905,587853,27000
1492.68,1.337327,583875,26853
1496.89,1.337681,578062,26564
1500.03,1.337330,574159,26406
1503.18,1.344085,570285,25823
1506.32,1.342355,565444,25706
1509.45,1.335918,560571,25865
1512.58,1.336983,555821,25583
1515.71,1.342121,550344,25033
1519.87,1.337177,543983,25027
1522.99,1.342942,538764,24460
1526.1,1.336762,533692,24577
1529.21,1.342758,527902,23977
1532.32,1.346933,521886,23477
1535.42,1.334685,515888,23871
1538.51,1.336861,509987,23480
1541.6,1.333605,503936,23376
1545.72,1.341691,494694,22524
1548.8,1.343128,488378,22163
1551.88,1.333774,481832,22342
1554.95,1.332114,474989,22109
1558.02,1.338994,467818,21433
1561.08,1.329294,460730,21585
1564.15,1.343646,454170,20586
1568.22,1.337760,444181,20408
1571.27,1.337384,436947,20093
1574.32,1.338310,429598,19713
1577.36,1.335162,422039,19507
1580.4,1.336315,414375,19102
1583.43,1.337574,406354,18678
1586.46,1.338377,398475,18282
1590.49,1.333188,388982,18061
1593.51,1.334414,380708,17627
1596.53,1.336772,372727,17164
1599.54,1.335352,365060,16866
1602.55,1.329651,357543,16737
1605.55,1.325589,349495,16514
1608.55,1.325666,341154,16117
1612.54,1.335231,330877,15291
1615.53,1.318406,322904,15512
1618.51,1.317056,315116,15185
1621.49,1.333143,307217,14266
1624.47,1.333323,299481,13901
1627.44,1.334316,292112,13528
1630.41,1.320601,284245,13586
1634.36,1.325673,274079,12948
1637.32,1.321205,266916,12740
1640.27,1.323010,259612,12340
1643.22,1.319355,251804,12070
1646.16,1.307418,244348,12039
1649.1,1.326384,236703,11164
1652.04,1.326448,228171,10760
1655.95,1.314270,215408,10447
1658.88,1.319465,204937,9821
1661.8,1.313225,193395,9402
1664.72,1.328943,179728,8427
1667.63,1.319136,163642,7848
1670.54,1.322983,146312,6955
1673.44,1.338622,128451,5890
1677.31,1.344004,105080,4759
1680.21,1.296491,88906,4492
1683.1,1.318588,75033,3603
1685.99,1.341112,63520,2896
1688.87,1.304553,53714,2664
1691.75,1.328447,45653,2143
1694.62,1.222445,39137,2345
1697.49,1.485639,33776,1104
1701.31,1.326666,28175,1328

File: Column 1_078062_20241121_164336.csv
Method:,Column 1,,
Host Date-Time:,21/11/24 @ 16:43:36,,
Header Version:,1,,
System Temp (C):,31.28,,
Detector Temp (C):,26.01,,
Humidity (%):,5.37,,
Lamp PD:,3809,,
Shift Vector Coefficients:,-10.5391,0.0761263,-0.000134223,,
Pixel to Wavelength Coefficients:,1775.68,-0.916766,-0.000235065,,
Serial Number:,5510004,,
Scan Config Name:,Column 1,,
Scan Config Type:,Slew,,
Section 1,,
Start wavelength (nm):,900,,
End wavelength (nm):,1700,,
Pattern Pixel Width (nm):,   7.03,,,,
Exposure (ms):,  0.635,,,,
Digital Resolution:,228,,
Num Repeats:,6,,
PGA Gain:,64,,
Total Measurement Time in sec:,  2.708,,
Wavelength (nm),Absorbance (AU),Reference Signal (unitless),Sample Signal (unitless)
901.51,1.322299,108485,5165
905.376,1.333991,121306,5622
909.237,1.316135,131909,6370
913.095,1.314446,143299,6947
916.948,1.298388,156982,7897
922.079,1.319512,179937,8622
925.923,1.299741,200504,10055
929.762,1.304831,222660,11036
933.597,1.318627,244426,11736
937.427,1.320671,263972,12615
941.254,1.306434,281845,13918
945.076,1.321721,297271,14172
950.165,1.320081,315605,15103
953.978,1.318825,328029,15743
957.786,1.314542,340470,16502
961.59,1.311936,352317,17179
965.389,1.306369,363056,17931
969.185,1.299058,373162,18743
972.976,1.305470,382632,18937
976.763,1.307114,391202,19288
981.806,1.314980,400190,19377
985.583,1.312548,406088,19773
989.355,1.313775,410162,19915
993.124,1.314065,412868,20033
996.888,1.312721,414263,20163
1000.65,1.301653,415476,20744
1004.4,1.306456,415479,20516
1009.41,1.310908,414358,20252
1013.15,1.309423,412923,20251
1016.89,1.304618,411526,20407
1020.63,1.305304,409066,20253
1024.36,1.304564,406777,20174
1028.09,1.308380,404427,19882
1031.82,1.309333,401911,19715
1036.78,1.318479,398410,19136
1040.49,1.302176,396204,19758
1044.2,1.311010,394236,19264
1047.91,1.310348,392042,19186
1051.61,1.309857,389823,19099
1055.31,1.305747,388234,19202
1059,1.303659,387599,19263
1063.92,1.316309,386688,18666
1067.61,1.308163,386598,19015
1071.29,1.321103,387377,18494
1074.96,1.314051,388536,18853
1078.63,1.312630,389855,18979
1082.3,1.307466,391215,19273
1085.96,1.304885,393215,19487
1090.84,1.317504,396270,19076
1094.49,1.308655,398760,19591
1098.14,1.319264,400987,19225
1101.79,1.317838,403477,19408
1105.43,1.318571,406116,19502
1109.06,1.317289,407701,19636
1112.7,1.314633,409859,19861
1117.53,1.318555,412494,19809
1121.15,1.311678,414909,20243
1124.77,1.317216,416559,20066
1128.38,1.326030,418532,19756
1131.99,1.318498,419956,20170
1135.6,1.319626,421946,20213
1139.2,1.316253,423881,20464
1143.99,1.315774,426786,20627
1147.58,1.325473,428617,20258
1151.17,1.318111,431169,20727
1154.75,1.312045,433579,21136
1158.33,1.324514,436264,20665
1161.91,1.315379,439132,21243
1165.48,1.321378,442389,21107
1169.04,1.308494,446101,21925
1173.79,1.319131,451929,21674
1177.34,1.319379,456026,21858
1180.9,1.320718,461306,22043
1184.44,1.313634,467657,22714
1187.99,1.324244,473969,22465
1191.52,1.315529,479856,23205
1195.06,1.321363,487372,23254
1199.76,1.323453,497347,23616
1203.29,1.320609,504311,24104
1206.81,1.321675,511507,24388
1210.33,1.325429,519078,24536
1213.84,1.325014,527163,24942
1217.35,1.327328,534208,25141
1220.85,1.319222,540472,25915
1225.51,1.324899,549929,26026
1229.01,1.323030,556888,26469
1232.5,1.325173,562180,26589
1235.98,1.320751,567975,27138
1239.46,1.333326,574815,26681
1242.94,1.324345,582782,27616
1246.41,1.322258,591476,28163
1251.03,1.328005,604016,28382
1254.5,1.327338,612289,28815
1257.96,1.329695,619125,28979
1261.41,1.326586,624551,29443
1264.86,1.325872,629900,29744
1268.31,1.328955,634345,29742
1271.75,1.322666,638574,30377
1276.33,1.323573,642499,30500
1279.76,1.329357,645905,30256
1283.19,1.331256,648307,30236
1286.61,1.325098,650446,30769
1290.03,1.330891,652132,30440
1293.44,1.330192,653907,30572
1296.85,1.330194,655963,30668
1301.39,1.328203,657349,30874
1304.8,1.336778,657558,30280
1308.19,1.328298,658515,30922
1311.58,1.329318,658804,30863
1314.97,1.328822,659011,30908
1318.36,1.330348,658272,30765
1321.73,1.332391,658022,30609
1326.23,1.331610,657870,30657
1329.6,1.336296,656482,30264
1332.97,1.339057,654926,30001
1336.33,1.334111,653727,30289
1339.69,1.332491,652497,30345
1343.04,1.328669,649913,30492
1346.39,1.331290,647671,30204
1349.73,1.337104,645338,29695
1354.18,1.325950,641175,30271
1357.52,1.331794,638376,29736
1360.85,1.327029,635805,29943
1364.17,1.329823,633413,29639
1367.49,1.334798,631026,29191
1370.81,1.329160,628050,29433
1374.12,1.329793,625034,29249
1378.54,1.319241,620272,29740
1381.84,1.336967,616892,28395
1385.14,1.326261,613613,28949
1388.43,1.327339,611526,28779
1391.72,1.326469,610663,28796
1395.01,1.329081,610634,28622
1398.29,1.330446,611700,28582
1402.66,1.331140,614051,28646
1405.93,1.330679,616268,28780
1409.2,1.336381,617795,28475
1412.46,1.332646,618872,28771
1415.72,1.332298,619795,28837
1418.98,1.326479,620495,29259
1422.23,1.333579,621087,28812
1426.56,1.331450,621375,28967
1429.8,1.328973,621616,29144
1433.04,1.332007,622129,28965
1436.27,1.327853,621526,29215
1439.5,1.333386,621113,28826
1442.72,1.338191,620921,28500
1445.94,1.332345,620270,28856
1450.23,1.336930,618860,28488
1453.44,1.338023,617697,28363
1456.64,1.332324,616264,28671
1459.85,1.338365,614413,28190
1463.04,1.336813,612307,28194
1466.24,1.334165,610032,28261
1469.43,1.327328,607345,28583
1473.67,1.337497,603789,27758
1476.85,1.332014,601175,27989
1480.02,1.345549,597737,26975
1483.19,1.338276,594479,27281
1486.36,1.333643,591232,27423
1489.52,1.344452,587853,26596
1492.68,1.340786,583875,26640
1496.89,1.338630,578062,26506
1500.03,1.337692,574159,26384
1503.18,1.338056,570285,26184
1506.32,1.339409,565444,25881
1509.45,1.337668,560571,25761
1512.58,1.335560,555821,25667
1515.71,1.335749,550344,25403
1519.87,1.338115,543983,24973
1522.99,1.340976,538764,24571
1526.1,1.335104,533692,24671
1529.21,1.339277,527902,24170
1532.32,1.335396,521886,24109
1535.42,1.339827,515888,23590
1538.51,1.339235,509987,23352
1541.6,1.337037,503936,23192
1545.72,1.332854,494694,22987
1548.8,1.338179,488378,22417
1551.88,1.337738,481832,22139
1554.95,1.341948,474989,21614
1558.02,1.337942,467818,21485
1561.08,1.340710,460730,21025
1564.15,1.337904,454170,20860
1568.22,1.334220,444181,20575
1571.27,1.337579,436947,20084
1574.32,1.340031,429598,19635
1577.36,1.337573,422039,19399
1580.4,1.333166,414375,19241
1583.43,1.331410,406354,18945
1586.46,1.336552,398475,18359
1590.49,1.331987,388982,18111
1593.51,1.337877,380708,17487
1596.53,1.328105,372727,17510
1599.54,1.334323,365060,16906
1602.55,1.329365,357543,16748
1605.55,1.332507,349495,16253
1608.55,1.331171,341154,15914
1612.54,1.326570,330877,15599
1615.53,1.336529,322904,14878
1618.51,1.336863,315116,14508
1621.49,1.325150,307217,14531
1624.47,1.329931,299481,14010
1627.44,1.326647,292112,13769
1630.41,1.329123,284245,13322
1634.36,1.329581,274079,12832
1637.32,1.319946,266916,12777
1640.27,1.323890,259612,12315
1643.22,1.318277,251804,12100
1646.16,1.315722,244348,11811
1649.1,1.317070,236703,11406
1652.04,1.311804,228171,11129
1655.95,1.327310,215408,10138
1658.88,1.322660,204937,9749
1661.8,1.317262,193395,9315
1664.72,1.329871,179728,8409
1667.63,1.318638,163642,7857
1670.54,1.322546,146312,6962
1673.44,1.328853,128451,6024
1677.31,1.357348,105080,4615
1680.21,1.339017,88906,4073
1683.1,1.362035,75033,3260
1685.99,1.392471,63520,2573
1688.87,1.288864,53714,2762
1691.75,1.312335,45653,2224
1694.62,1.465483,39137,1340
1697.49,1.283589,33776,1758
1701.31,1.406109,28175,1106

File: Column 1_078063_20241121_164339.csv
Method:,Column 1,,
Host Date-Time:,21/11/24 @ 16:43:39,,
Header Version:,1,,
System Temp (C):,31.28,,
Detector Temp (C):,26.09,,
Humidity (%):,5.37,,
Lamp PD:,3809,,
Shift Vector Coefficients:,-10.5391,0.0761263,-0.000134223,,
Pixel to Wavelength Coefficients:,1775.68,-0.916766,-0.000235065,,
Serial Number:,5510004,,
Scan Config Name:,Column 1,,
Scan Config Type:,Slew,,
Section 1,,
Start wavelength (nm):,900,,
End wavelength (nm):,1700,,
Pattern Pixel Width (nm):,   7.03,,,,
Exposure (ms):,  0.635,,,,
Digital Resolution:,228,,
Num Repeats:,6,,
PGA Gain:,64,,
Total Measurement Time in sec:,  2.719,,
Wavelength (nm),Absorbance (AU),Reference Signal (unitless),Sample Signal (unitless)
901.51,1.285711,108485,5619
905.376,1.298766,121306,6097
909.237,1.307294,131909,6501
913.095,1.309535,143299,7026
916.948,1.308233,156982,7720
922.079,1.300299,179937,9012
925.923,1.299784,200504,10054
929.762,1.313295,222660,10823
933.597,1.317999,244426,11753
937.427,1.292416,263972,13463
941.254,1.302458,281845,14046
945.076,1.307522,297271,14643
950.165,1.306855,315605,15570
953.978,1.318687,328029,15748
957.786,1.299591,340470,17080
961.59,1.309113,352317,17291
965.389,1.296006,363056,18364
969.185,1.311468,373162,18215
972.976,1.303845,382632,19008
976.763,1.312005,391202,19072
981.806,1.309346,400190,19630
985.583,1.301916,406088,20263
989.355,1.305160,410162,20314
993.124,1.304418,412868,20483
996.888,1.308072,414263,20380
1000.65,1.303984,415476,20633
1004.4,1.306393,415479,20519
1009.41,1.310244,414358,20283
1013.15,1.303121,412923,20547
1016.89,1.304448,411526,20415
1020.63,1.308662,409066,20097
1024.36,1.305923,406777,20111
1028.09,1.308599,404427,19872
1031.82,1.300221,401911,20133
1036.78,1.313425,398410,19360
1040.49,1.302572,396204,19740
1044.2,1.313678,394236,19146
1047.91,1.299793,392042,19658
1051.61,1.298589,389823,19601
1055.31,1.305611,388234,19208
1059,1.313532,387599,18830
1063.92,1.310164,386688,18932
1067.61,1.308026,386598,19021
1071.29,1.302554,387377,19301
1074.96,1.313751,388536,18866
1078.63,1.317948,389855,18748
1082.3,1.309952,391215,19163
1085.96,1.312892,393215,19131
1090.84,1.312052,396270,19317
1094.49,1.320384,398760,19069
1098.14,1.306180,400987,19813
1101.79,1.319026,403477,19355
1105.43,1.310583,406116,19864
1109.06,1.317112,407701,19644
1112.7,1.312692,409859,19950
1117.53,1.316477,412494,19904
1121.15,1.314714,414909,20102
1124.77,1.321501,416559,19869
1128.38,1.313378,418532,20340
1131.99,1.309737,419956,20581
1135.6,1.308113,421946,20756
1139.2,1.317124,423881,20423
1143.99,1.310958,426786,20857
1147.58,1.321249,428617,20456
1151.17,1.322343,431169,20526
1154.75,1.313981,433579,21042
1158.33,1.323150,436264,20730
1161.91,1.323031,439132,20872
1165.48,1.314073,442389,21465
1169.04,1.311994,446101,21749
1173.79,1.313082,451929,21978
1177.34,1.318664,456026,21894
1180.9,1.315061,461306,22332
1184.44,1.312278,467657,22785
1187.99,1.316389,473969,22875
1191.52,1.314613,479856,23254
1195.06,1.319518,487372,23353
1199.76,1.318625,497347,23880
1203.29,1.317826,504311,24259
1206.81,1.315786,511507,24721
1210.33,1.324227,519078,24604
1213.84,1.320803,527163,25185
1217.35,1.320438,534208,25543
1220.85,1.321676,540472,25769
1225.51,1.321674,549929,26220
1229.01,1.321360,556888,26571
1232.5,1.314047,562180,27279
1235.98,1.320799,567975,27135
1239.46,1.320717,574815,27467
1242.94,1.316290,582782,28133
1246.41,1.320043,591476,28307
1251.03,1.322033,604016,28775
1254.5,1.321068,612289,29234
1257.96,1.320179,619125,29621
1261.41,1.323822,624551,29631
1264.86,1.329170,629900,29519
1268.31,1.325291,634345,29994
1271.75,1.325348,638574,30190
1276.33,1.324756,642499,30417
1279.76,1.329343,645905,30257
1283.19,1.324543,648307,30707
1286.61,1.326880,650446,30643
1290.03,1.326815,652132,30727
1293.44,1.323622,653907,31038
1296.85,1.323756,655963,31126
1301.39,1.330743,657349,30694
1304.8,1.327021,657558,30968
1308.19,1.330721,658515,30750
1311.58,1.332099,658804,30666
1314.97,1.334408,659011,30513
1318.36,1.327352,658272,30978
1321.73,1.325592,658022,31092
1326.23,1.333314,657870,30537
1329.6,1.332098,656482,30558
1332.97,1.330286,654926,30613
1336.33,1.328187,653727,30705
1339.69,1.330849,652497,30460
1343.04,1.333366,649913,30164
1346.39,1.331894,647671,30162
1349.73,1.331091,645338,30109
1354.18,1.329465,641175,30027
1357.52,1.327565,638376,30027
1360.85,1.328176,635805,29864
1364.17,1.328697,633413,29716
1367.49,1.327788,631026,29666
1370.81,1.328246,628050,29495
1374.12,1.325743,625034,29523
1378.54,1.326501,620272,29247
1381.84,1.330169,616892,28843
1385.14,1.330952,613613,28638
1388.43,1.322850,611526,29078
1391.72,1.319423,610663,29267
1395.01,1.329218,610634,28613
1398.29,1.321245,611700,29194
1402.66,1.330277,614051,28703
1405.93,1.330226,616268,28810
1409.2,1.326489,617795,29131
1412.46,1.331154,618872,28870
1415.72,1.329117,619795,29049
1418.98,1.328577,620495,29118
1422.23,1.327695,621087,29205
1426.56,1.331825,621375,28942
1429.8,1.331244,621616,28992
1433.04,1.333855,622129,28842
1436.27,1.331691,621526,28958
1439.5,1.333431,621113,28823
1442.72,1.326169,620921,29300
1445.94,1.330482,620270,28980
1450.23,1.329809,618860,28959
1453.44,1.337488,617697,28398
1456.64,1.334648,616264,28518
1459.85,1.333844,614413,28485
1463.04,1.331105,612307,28567
1466.24,1.332524,610032,28368
1469.43,1.337178,607345,27942
1473.67,1.337090,603789,27784
1476.85,1.333101,601175,27919
1480.02,1.335601,597737,27600
1483.19,1.334551,594479,27516
1486.36,1.334451,591232,27372
1489.52,1.336251,587853,27103
1492.68,1.341177,583875,26616
1496.89,1.342349,578062,26280
1500.03,1.335835,574159,26497
1503.18,1.339701,570285,26085
1506.32,1.336299,565444,26067
1509.45,1.335885,560571,25867
1512.58,1.335306,555821,25682
1515.71,1.335271,550344,25431
1519.87,1.331727,543983,25343
1522.99,1.333372,538764,25005
1526.1,1.334699,533692,24694
1529.21,1.332290,527902,24562
1532.32,1.331969,521886,24300
1535.42,1.338284,515888,23674
1538.51,1.329397,509987,23887
1541.6,1.328820,503936,23635
1545.72,1.331911,494694,23037
1548.8,1.330479,488378,22818
1551.88,1.335702,481832,22243
1554.95,1.332075,474989,22111
1558.02,1.339379,467818,21414
1561.08,1.326527,460730,21723
1564.15,1.341122,454170,20706
1568.22,1.334812,444181,20547
1571.27,1.337427,436947,20091
1574.32,1.325032,429598,20325
1577.36,1.338313,422039,19366
1580.4,1.334205,414375,19195
1583.43,1.323145,406354,19309
1586.46,1.336978,398475,18341
1590.49,1.333092,388982,18065
1593.51,1.329684,380708,17820
1596.53,1.328700,372727,17486
1599.54,1.332810,365060,16965
1602.55,1.342769,357543,16239
1605.55,1.334301,349495,16186
1608.55,1.324563,341154,16158
1612.54,1.330766,330877,15449
1615.53,1.327659,322904,15185
1618.51,1.332188,315116,14665
1621.49,1.318065,307217,14770
1624.47,1.320002,299481,14334
1627.44,1.325828,292112,13795
1630.41,1.326361,284245,13407
1634.36,1.321633,274079,13069
1637.32,1.307020,266916,13163
1640.27,1.315716,259612,12549
1643.22,1.316522,251804,12149
1646.16,1.313229,244348,11879
1649.1,1.317070,236703,11406
1652.04,1.314662,228171,11056
1655.95,1.307424,215408,10613
1658.88,1.295507,204937,10378
1661.8,1.306396,193395,9551
1664.72,1.292341,179728,9168
1667.63,1.297493,163642,8249
1670.54,1.333090,146312,6795
1673.44,1.281239,128451,6722
1677.31,1.303683,105080,5222
1680.21,1.322283,88906,4233
1683.1,1.293530,75033,3817
1685.99,1.326079,63520,2998
1688.87,1.255726,53714,2981
1691.75,1.366549,45653,1963
1694.62,1.353789,39137,1733
1697.49,1.293838,33776,1717
1701.31,1.284323,28175,1464