Folder: textile_sorting_NIRSCAN_/samples/unknown (part 2)

File: Column 1_078009_20241121_164102.csv
Method:,Column 1,,
Host Date-Time:,21/11/24 @ 16:41:2,,
Header Version:,1,,
System Temp (C):,29.25,,
Detector Temp (C):,24.92,,
Humidity (%):,7.44,,
Lamp PD:,3816,,
Shift Vector Coefficients:,-10.5391,0.0761263,-0.000134223,,
Pixel to Wavelength Coefficients:,1775.68,-0.916766,-0.000235065,,
Serial Number:,5510004,,
Scan Config Name:,Column 1,,
Scan Config Type:,Slew,,
Section 1,,
Start wavelength (nm):,900,,
End wavelength (nm):,1700,,
Pattern Pixel Width (nm):,   7.03,,,,
Exposure (ms):,  0.635,,,,
Digital Resolution:,228,,
Num Repeats:,6,,
PGA Gain:,64,,
Total Measurement Time in sec:,  2.721,,
Wavelength (nm),Absorbance (AU),Reference Signal (unitless),Sample Signal (unitless)
901.51,1.296193,108485,5485
905.376,1.311707,121306,5918
909.237,1.331329,131909,6151
913.095,1.308547,143299,7042
916.948,1.325856,156982,7413
922.079,1.323764,179937,8538
925.923,1.313742,200504,9736
929.762,1.307079,222660,10979
933.597,1.304179,244426,12133
937.427,1.324926,263972,12492
941.254,1.321708,281845,13437
945.076,1.311007,297271,14526
950.165,1.318932,315605,15143
953.978,1.318411,328029,15758
957.786,1.311840,340470,16605
961.59,1.311683,352317,17189
965.389,1.311510,363056,17720
969.185,1.309470,373162,18299
972.976,1.320378,382632,18298
976.763,1.301254,391202,19550
981.806,1.296958,400190,20198
985.583,1.304971,406088,20121
989.355,1.316993,410162,19768
993.124,1.315738,412868,19956
996.888,1.309267,414263,20324
1000.65,1.314228,415476,20152
1004.4,1.305885,415479,20543
1009.41,1.306640,414358,20452
1013.15,1.310303,412923,20210
1016.89,1.311698,411526,20077
1020.63,1.317746,409066,19681
1024.36,1.308153,406777,20008
1028.09,1.313765,404427,19637
1031.82,1.307114,401911,19816
1036.78,1.311165,398410,19461
1040.49,1.310184,396204,19397
1044.2,1.311258,394236,19253
1047.91,1.312481,392042,19092
1051.61,1.316640,389823,18803
1055.31,1.312770,388234,18894
1059,1.310476,387599,18963
1063.92,1.322071,386688,18420
1067.61,1.308552,386598,18998
1071.29,1.303207,387377,19272
1074.96,1.321696,388536,18524
1078.63,1.323262,389855,18520
1082.3,1.311564,391215,19092
1085.96,1.315214,393215,19029
1090.84,1.320565,396270,18942
1094.49,1.315965,398760,19264
1098.14,1.324743,400987,18984
1101.79,1.317056,403477,19443
1105.43,1.323093,406116,19300
1109.06,1.323257,407701,19368
1112.7,1.320024,409859,19616
1117.53,1.320621,412494,19715
1121.15,1.318773,414909,19915
1124.77,1.315401,416559,20150
1128.38,1.324537,418532,19824
1131.99,1.320094,419956,20096
1135.6,1.317953,421946,20291
1139.2,1.322581,423881,20168
1143.99,1.324236,426786,20229
1147.58,1.319384,428617,20544
1151.17,1.313256,431169,20960
1154.75,1.324172,433579,20554
1158.33,1.313291,436264,21206
1161.91,1.321722,439132,20935
1165.48,1.322408,442389,21057
1169.04,1.316874,446101,21506
1173.79,1.326018,451929,21333
1177.34,1.316054,456026,22026
1180.9,1.323307,461306,21912
1184.44,1.321778,467657,22292
1187.99,1.326531,473969,22347
1191.52,1.323119,479856,22803
1195.06,1.318366,487372,23415
1199.76,1.322076,497347,23691
1203.29,1.319476,504311,24167
1206.81,1.329202,511507,23969
1210.33,1.324174,519078,24607
1213.84,1.328177,527163,24761
1217.35,1.327345,534208,25140
1220.85,1.332823,540472,25116
1225.51,1.325116,549929,26013
1229.01,1.332602,556888,25892
1232.5,1.320285,562180,26890
1235.98,1.321648,567975,27082
1239.46,1.322253,574815,27370
1242.94,1.315766,582782,28167
1246.41,1.318359,591476,28417
1251.03,1.326859,604016,28457
1254.5,1.326931,612289,28842
1257.96,1.325474,619125,29262
1261.41,1.334745,624551,28895
1264.86,1.330658,629900,29418
1268.31,1.325914,634345,29951
1271.75,1.328018,638574,30005
1276.33,1.328758,642499,30138
1279.76,1.334381,645905,29908
1283.19,1.327737,648307,30482
1286.61,1.329624,650446,30450
1290.03,1.326688,652132,30736
1293.44,1.338120,653907,30019
1296.85,1.331527,655963,30574
1301.39,1.327950,657349,30892
1304.8,1.333449,657558,30513
1308.19,1.331512,658515,30694
1311.58,1.333035,658804,30600
1314.97,1.335348,659011,30447
1318.36,1.339248,658272,30141
1321.73,1.331668,658022,30660
1326.23,1.328857,657870,30852
1329.6,1.335179,656482,30342
1332.97,1.329309,654926,30682
1336.33,1.331510,653727,30471
1339.69,1.335925,652497,30106
1343.04,1.330797,649913,30343
1346.39,1.330600,647671,30252
1349.73,1.329752,645338,30202
1354.18,1.332673,641175,29806
1357.52,1.327131,638376,30057
1360.85,1.329355,635805,29783
1364.17,1.332587,633413,29451
1367.49,1.330888,631026,29455
1370.81,1.326380,628050,29622
1374.12,1.329169,625034,29291
1378.54,1.328376,620272,29121
1381.84,1.333039,616892,28653
1385.14,1.328955,613613,28770
1388.43,1.331875,611526,28480
1391.72,1.332988,610663,28367
1395.01,1.328581,610634,28655
1398.29,1.329960,611700,28614
1402.66,1.333832,614051,28469
1405.93,1.328752,616268,28908
1409.2,1.333084,617795,28692
1412.46,1.337396,618872,28458
1415.72,1.333988,619795,28725
1418.98,1.335356,620495,28667
1422.23,1.330769,621087,28999
1426.56,1.338814,621375,28480
1429.8,1.338160,621616,28534
1433.04,1.333840,622129,28843
1436.27,1.334973,621526,28740
1439.5,1.333447,621113,28822
1442.72,1.339183,620921,28435
1445.94,1.332646,620270,28836
1450.23,1.336489,618860,28517
1453.44,1.332652,617697,28716
1456.64,1.335059,616264,28491
1459.85,1.335096,614413,28403
1463.04,1.339966,612307,27990
1466.24,1.337575,610032,28040
1469.43,1.336572,607345,27981
1473.67,1.337231,603789,27775
1476.85,1.335253,601175,27781
1480.02,1.336657,597737,27533
1483.19,1.341873,594479,27056
1486.36,1.339414,591232,27061
1489.52,1.341507,587853,26777
1492.68,1.334345,583875,27038
1496.89,1.335903,578062,26673
1500.03,1.335442,574159,26521
1503.18,1.337874,570285,26195
1506.32,1.339761,565444,25860
1509.45,1.336674,560571,25820
1512.58,1.342330,555821,25270
1515.71,1.334213,550344,25493
1519.87,1.339595,543983,24888
1522.99,1.342516,538764,24484
1526.1,1.342669,533692,24245
1529.21,1.345575,527902,23822
1532.32,1.341108,521886,23794
1535.42,1.337569,515888,23713
1538.51,1.342708,509987,23166
1541.6,1.336813,503936,23204
1545.72,1.341229,494694,22548
1548.8,1.334187,488378,22624
1551.88,1.334708,481832,22294
1554.95,1.347143,474989,21357
1558.02,1.339075,467818,21429
1561.08,1.352562,460730,20459
1564.15,1.338404,454170,20836
1568.22,1.334664,444181,20554
1571.27,1.335787,436947,20167
1574.32,1.333729,429598,19922
1577.36,1.334184,422039,19551
1580.4,1.337635,414375,19044
1583.43,1.333432,406354,18857
1586.46,1.330025,398475,18637
1590.49,1.339827,388982,17787
1593.51,1.333380,380708,17669
1596.53,1.331766,372727,17363
1599.54,1.334863,365060,16885
1602.55,1.339094,357543,16377
1605.55,1.337777,349495,16057
1608.55,1.344219,341154,15443
1612.54,1.332146,330877,15400
1615.53,1.327458,322904,15192
1618.51,1.323771,315116,14952
1621.49,1.332595,307217,14284
1624.47,1.318007,299481,14400
1627.44,1.331979,292112,13601
1630.41,1.335230,284245,13136
1634.36,1.324601,274079,12980
1637.32,1.332568,266916,12411
1640.27,1.316200,259612,12535
1643.22,1.330397,251804,11767
1646.16,1.319304,244348,11714
1649.1,1.322858,236703,11255
1652.04,1.330300,228171,10665
1655.95,1.327910,215408,10124
1658.88,1.335133,204937,9473
1661.8,1.316843,193395,9324
1664.72,1.336166,179728,8288
1667.63,1.340749,163642,7467
1670.54,1.349968,146312,6536
1673.44,1.353625,128451,5690
1677.31,1.344187,105080,4757
1680.21,1.339230,88906,4071
1683.1,1.360306,75033,3273
1685.99,1.328840,63520,2979
1688.87,1.315783,53714,2596
1691.75,1.332929,45653,2121
1694.62,1.236370,39137,2271
1697.49,1.439410,33776,1228
1701.31,1.342993,28175,1279

File: Column 1_078010_20241121_164105.csv
Method:,Column 1,,
Host Date-Time:,21/11/24 @ 16:41:5,,
Header Version:,1,,
System Temp (C):,29.35,,
Detector Temp (C):,24.92,,
Humidity (%):,7.35,,
Lamp PD:,3815,,
Shift Vector Coefficients:,-10.5391,0.0761263,-0.000134223,,
Pixel to Wavelength Coefficients:,1775.68,-0.916766,-0.000235065,,
Serial Number:,5510004,,
Scan Config Name:,Column 1,,
Scan Config Type:,Slew,,
Section 1,,
Start wavelength (nm):,900,,
End wavelength (nm):,1700,,
Pattern Pixel Width (nm):,   7.03,,,,
Exposure (ms):,  0.635,,,,
Digital Resolution:,228,,
Num Repeats:,6,,
PGA Gain:,64,,
Total Measurement Time in sec:,  2.732,,
Wavelength (nm),Absorbance (AU),Reference Signal (unitless),Sample Signal (unitless)
901.51,1.309295,108485,5322
905.376,1.335152,121306,5607
909.237,1.287000,131909,6812
913.095,1.320109,143299,6857
916.948,1.314237,156982,7614
922.079,1.315352,179937,8705
925.923,1.303123,200504,9977
929.762,1.304359,222660,11048
933.597,1.319591,244426,11710
937.427,1.309422,263972,12946
941.254,1.305592,281845,13945
945.076,1.319063,297271,14259
950.165,1.318846,315605,15146
953.978,1.315089,328029,15879
957.786,1.302909,340470,16950
961.59,1.305836,352317,17422
965.389,1.308068,363056,17861
969.185,1.318875,373162,17907
972.976,1.309711,382632,18753
976.763,1.314219,391202,18975
981.806,1.303784,400190,19883
985.583,1.298054,406088,20444
989.355,1.314758,410162,19870
993.124,1.317876,412868,19858
996.888,1.303767,414263,20583
1000.65,1.305776,415476,20548
1004.4,1.305610,415479,20556
1009.41,1.308278,414358,20375
1013.15,1.312846,412923,20092
1016.89,1.311677,411526,20078
1020.63,1.307820,409066,20136
1024.36,1.313547,406777,19761
1028.09,1.316160,404427,19529
1031.82,1.316395,401911,19397
1036.78,1.309183,398410,19550
1040.49,1.312992,396204,19272
1044.2,1.300497,394236,19736
1047.91,1.307955,392042,19292
1051.61,1.313350,389823,18946
1055.31,1.306132,388234,19185
1059,1.310109,387599,18979
1063.92,1.306532,386688,19091
1067.61,1.317000,386598,18632
1071.29,1.318341,387377,18612
1074.96,1.322048,388536,18509
1078.63,1.316353,389855,18817
1082.3,1.307421,391215,19275
1085.96,1.306426,393215,19418
1090.84,1.305647,396270,19604
1094.49,1.317999,398760,19174
1098.14,1.311384,400987,19577
1101.79,1.317145,403477,19439
1105.43,1.311108,406116,19840
1109.06,1.312691,407701,19845
1112.7,1.316189,409859,19790
1117.53,1.318007,412494,19834
1121.15,1.316424,414909,20023
1124.77,1.316394,416559,20104
1128.38,1.312546,418532,20379
1131.99,1.310857,419956,20528
1135.6,1.317718,421946,20302
1139.2,1.319620,423881,20306
1143.99,1.323399,426786,20268
1147.58,1.316246,428617,20693
1151.17,1.322089,431169,20538
1154.75,1.315781,433579,20955
1158.33,1.327487,436264,20524
1161.91,1.320086,439132,21014
1165.48,1.322016,442389,21076
1169.04,1.313474,446101,21675
1173.79,1.314368,451929,21913
1177.34,1.309926,456026,22339
1180.9,1.320600,461306,22049
1184.44,1.316396,467657,22570
1187.99,1.323239,473969,22517
1191.52,1.314203,479856,23276
1195.06,1.324136,487372,23106
1199.76,1.315581,497347,24048
1203.29,1.325210,504311,23850
1206.81,1.318181,511507,24585
1210.33,1.321605,519078,24753
1213.84,1.329248,527163,24700
1217.35,1.319453,534208,25601
1220.85,1.321271,540472,25793
1225.51,1.331677,549929,25623
1229.01,1.321050,556888,26590
1232.5,1.323202,562180,26710
1235.98,1.327152,567975,26741
1239.46,1.324704,574815,27216
1242.94,1.323120,582782,27694
1246.41,1.323215,591476,28101
1251.03,1.329692,604016,28272
1254.5,1.329256,612289,28688
1257.96,1.326395,619125,29200
1261.41,1.324673,624551,29573
1264.86,1.330452,629900,29432
1268.31,1.327964,634345,29810
1271.75,1.327150,638574,30065
1276.33,1.332216,642499,29899
1279.76,1.334120,645905,29926
1283.19,1.331788,648307,30199
1286.61,1.329881,650446,30432
1290.03,1.330477,652132,30469
1293.44,1.329482,653907,30622
1296.85,1.334592,655963,30359
1301.39,1.328724,657349,30837
1304.8,1.329736,657558,30775
1308.19,1.326518,658515,31049
1311.58,1.327535,658804,30990
1314.97,1.331132,659011,30744
1318.36,1.328728,658272,30880
1321.73,1.331159,658022,30696
1326.23,1.338263,657870,30191
1329.6,1.339696,656482,30028
1332.97,1.331650,654926,30517
1336.33,1.335461,653727,30195
1339.69,1.333997,652497,30240
1343.04,1.329825,649913,30411
1346.39,1.333712,647671,30036
1349.73,1.330903,645338,30122
1354.18,1.326811,641175,30211
1357.52,1.326698,638376,30087
1360.85,1.328554,635805,29838
1364.17,1.331997,633413,29491
1367.49,1.333343,631026,29289
1370.81,1.336151,628050,28963
1374.12,1.327689,625034,29391
1378.54,1.329167,620272,29068
1381.84,1.327811,616892,29000
1385.14,1.324614,613613,29059
1388.43,1.322731,611526,29086
1391.72,1.331597,610663,28458
1395.01,1.326660,610634,28782
1398.29,1.330872,611700,28554
1402.66,1.331398,614051,28629
1405.93,1.331071,616268,28754
1409.2,1.331467,617795,28799
1412.46,1.327977,618872,29082
1415.72,1.328908,619795,29063
1418.98,1.330250,620495,29006
1422.23,1.331609,621087,28943
1426.56,1.331390,621375,28971
1429.8,1.328764,621616,29158
1433.04,1.334443,622129,28803
1436.27,1.334625,621526,28763
1439.5,1.339913,621113,28396
1442.72,1.333870,620921,28785
1445.94,1.336291,620270,28595
1450.23,1.334028,618860,28679
1453.44,1.336938,617697,28434
1456.64,1.341292,616264,28085
1459.85,1.327938,614413,28875
1463.04,1.332201,612307,28495
1466.24,1.341370,610032,27796
1469.43,1.331327,607345,28321
1473.67,1.335001,603789,27918
1476.85,1.331595,601175,28016
1480.02,1.337588,597737,27474
1483.19,1.338802,594479,27248
1486.36,1.336328,591232,27254
1489.52,1.341426,587853,26782
1492.68,1.339272,583875,26733
1496.89,1.338581,578062,26509
1500.03,1.336787,574159,26439
1503.18,1.337310,570285,26229
1506.32,1.336082,565444,26080
1509.45,1.340119,560571,25616
1512.58,1.339042,555821,25462
1515.71,1.341601,550344,25063
1519.87,1.341659,543983,24770
1522.99,1.335828,538764,24864
1526.1,1.337770,533692,24520
1529.21,1.335324,527902,24391
1532.32,1.341985,521886,23746
1535.42,1.336234,515888,23786
1538.51,1.340017,509987,23310
1541.6,1.336981,503936,23195
1545.72,1.337432,494694,22746
1548.8,1.333535,488378,22658
1551.88,1.333676,481832,22347
1554.95,1.338386,474989,21792
1558.02,1.335543,467818,21604
1561.08,1.335557,460730,21276
1564.15,1.340452,454170,20738
1568.22,1.335700,444181,20505
1571.27,1.344027,436947,19788
1574.32,1.334362,429598,19893
1577.36,1.330820,422039,19703
1580.4,1.335361,414375,19144
1583.43,1.335047,406354,18787
1586.46,1.341213,398475,18163
1590.49,1.331316,388982,18139
1593.51,1.331051,380708,17764
1596.53,1.339132,372727,17071
1599.54,1.338194,365060,16756
1602.55,1.331731,357543,16657
1605.55,1.336022,349495,16122
1608.55,1.326827,341154,16074
1612.54,1.325958,330877,15621
1615.53,1.317902,322904,15530
1618.51,1.327212,315116,14834
1621.49,1.316421,307217,14826
1624.47,1.321398,299481,14288
1627.44,1.331277,292112,13623
1630.41,1.322556,284245,13525
1634.36,1.318191,274079,13173
1637.32,1.331799,266916,12433
1640.27,1.323467,259612,12327
1643.22,1.318421,251804,12096
1646.16,1.316384,244348,11793
1649.1,1.327475,236703,11136
1652.04,1.314545,228171,11059
1655.95,1.316312,215408,10398
1658.88,1.330300,204937,9579
1661.8,1.333266,193395,8978
1664.72,1.313253,179728,8737
1667.63,1.322246,163642,7792
1670.54,1.340829,146312,6675
1673.44,1.366641,128451,5522
1677.31,1.305851,105080,5196
1680.21,1.338164,88906,4081
1683.1,1.351636,75033,3339
1685.99,1.387603,63520,2602
1688.87,1.358466,53714,2353
1691.75,1.327435,45653,2148
1694.62,1.321211,39137,1868
1697.49,1.290311,33776,1731
1701.31,1.318887,28175,1352

File: Column 1_078017_20241121_164125.csv
Method:,Column 1,,
Host Date-Time:,21/11/24 @ 16:41:25,,
Header Version:,1,,
System Temp (C):,29.61,,
Detector Temp (C):,24.86,,
Humidity (%):,7.11,,
Lamp PD:,3813,,
Shift Vector Coefficients:,-10.5391,0.0761263,-0.000134223,,
Pixel to Wavelength Coefficients:,1775.68,-0.916766,-0.000235065,,
Serial Number:,5510004,,
Scan Config Name:,Column 1,,
Scan Config Type:,Slew,,
Section 1,,
Start wavelength (nm):,900,,
End wavelength (nm):,1700,,
Pattern Pixel Width (nm):,   7.03,,,,
Exposure (ms):,  0.635,,,,
Digital Resolution:,228,,
Num Repeats:,6,,
PGA Gain:,64,,
Total Measurement Time in sec:,  2.705,,
Wavelength (nm),Absorbance (AU),Reference Signal (unitless),Sample Signal (unitless)
901.51,1.271044,108485,5812
905.376,1.313693,121306,5891
909.237,1.286936,131909,6813
913.095,1.293158,143299,7296
916.948,1.305261,156982,7773
922.079,1.299192,179937,9035
925.923,1.311385,200504,9789
929.762,1.318908,222660,10684
933.597,1.311398,244426,11933
937.427,1.285123,263972,13691
941.254,1.304690,281845,13974
945.076,1.312864,297271,14464
950.165,1.302112,315605,15741
953.978,1.304338,328029,16277
957.786,1.308531,340470,16732
961.59,1.311228,352317,17207
965.389,1.304701,363056,18000
969.185,1.298989,373162,18746
972.976,1.301566,382632,19108
976.763,1.313990,391202,18985
981.806,1.307580,400190,19710
985.583,1.305986,406088,20074
989.355,1.303730,410162,20381
993.124,1.306522,412868,20384
996.888,1.305120,414263,20519
1000.65,1.307237,415476,20479
1004.4,1.306965,415479,20492
1009.41,1.316867,414358,19976
1013.15,1.301307,412923,20633
1016.89,1.304086,411526,20432
1020.63,1.301844,409066,20415
1024.36,1.309392,406777,19951
1028.09,1.306114,404427,19986
1031.82,1.315009,401911,19459
1036.78,1.305622,398410,19711
1040.49,1.307929,396204,19498
1044.2,1.310221,394236,19299
1047.91,1.308924,392042,19249
1051.61,1.308563,389823,19156
1055.31,1.311095,388234,18967
1059,1.309423,387599,19009
1063.92,1.308927,386688,18986
1067.61,1.315093,386598,18714
1071.29,1.314092,387377,18795
1074.96,1.317775,388536,18692
1078.63,1.307806,389855,19191
1082.3,1.307489,391215,19272
1085.96,1.312099,393215,19166
1090.84,1.312366,396270,19303
1094.49,1.312038,398760,19439
1098.14,1.311185,400987,19586
1101.79,1.316230,403477,19480
1105.43,1.313061,406116,19751
1109.06,1.310051,407701,19966
1112.7,1.317463,409859,19732
1117.53,1.313000,412494,20064
1121.15,1.314865,414909,20095
1124.77,1.311753,416559,20320
1128.38,1.318662,418532,20094
1131.99,1.308747,419956,20628
1135.6,1.305610,421946,20876
1139.2,1.321248,423881,20230
1143.99,1.322843,426786,20294
1147.58,1.317907,428617,20614
1151.17,1.321012,431169,20589
1154.75,1.319464,433579,20778
1158.33,1.319375,436264,20911
1161.91,1.315604,439132,21232
1165.48,1.321604,442389,21096
1169.04,1.318817,446101,21410
1173.79,1.316176,451929,21822
1177.34,1.308277,456026,22424
1180.9,1.317343,461306,22215
1184.44,1.316434,467657,22568
1187.99,1.319151,473969,22730
1191.52,1.316992,479856,23127
1195.06,1.319109,487372,23375
1199.76,1.318698,497347,23876
1203.29,1.320249,504311,24124
1206.81,1.322852,511507,24322
1210.33,1.327060,519078,24444
1213.84,1.315933,527163,25469
1217.35,1.322057,534208,25448
1220.85,1.323483,540472,25662
1225.51,1.320830,549929,26271
1229.01,1.323194,556888,26459
1232.5,1.319349,562180,26948
1235.98,1.323867,567975,26944
1239.46,1.314485,574815,27864
1242.94,1.326331,582782,27490
1246.41,1.325415,591476,27959
1251.03,1.324424,604016,28617
1254.5,1.328364,612289,28747
1257.96,1.325474,619125,29262
1261.41,1.321352,624551,29800
1264.86,1.323702,629900,29893
1268.31,1.328168,634345,29796
1271.75,1.331753,638574,29748
1276.33,1.328816,642499,30134
1279.76,1.325570,645905,30521
1283.19,1.327438,648307,30503
1286.61,1.325027,650446,30774
1290.03,1.331619,652132,30389
1293.44,1.328618,653907,30683
1296.85,1.328639,655963,30778
1301.39,1.332373,657349,30579
1304.8,1.332752,657558,30562
1308.19,1.329212,658515,30857
1311.58,1.328966,658804,30888
1314.97,1.330455,659011,30792
1318.36,1.333153,658272,30567
1321.73,1.330819,658022,30720
1326.23,1.332759,657870,30576
1329.6,1.336727,656482,30234
1332.97,1.329493,654926,30669
1336.33,1.330357,653727,30552
1339.69,1.332592,652497,30338
1343.04,1.332345,649913,30235
1346.39,1.327967,647671,30436
1349.73,1.331769,645338,30062
1354.18,1.326495,641175,30233
1357.52,1.327840,638376,30008
1360.85,1.329385,635805,29781
1364.17,1.334242,633413,29339
1367.49,1.329255,631026,29566
1370.81,1.328467,628050,29480
1374.12,1.330551,625034,29198
1378.54,1.325344,620272,29325
1381.84,1.332872,616892,28664
1385.14,1.327508,613613,28866
1388.43,1.330322,611526,28582
1391.72,1.330896,610663,28504
1395.01,1.331439,610634,28467
1398.29,1.330628,611700,28570
1402.66,1.328209,614051,28840
1405.93,1.329699,616268,28845
1409.2,1.330383,617795,28871
1412.46,1.333280,618872,28729
1415.72,1.330225,619795,28975
1418.98,1.330985,620495,28957
1422.23,1.331264,621087,28966
1426.56,1.329625,621375,29089
1429.8,1.332489,621616,28909
1433.04,1.335636,622129,28724
1436.27,1.332892,621526,28878
1439.5,1.333175,621113,28840
1442.72,1.330998,620921,28976
1445.94,1.338758,620270,28433
1450.23,1.329479,618860,28981
1453.44,1.337549,617697,28394
1456.64,1.332036,616264,28690
1459.85,1.333037,614413,28538
1463.04,1.340230,612307,27973
1466.24,1.339002,610032,27948
1469.43,1.334250,607345,28131
1473.67,1.330082,603789,28236
1476.85,1.334347,601175,27839
1480.02,1.338237,597737,27433
1483.19,1.332253,594479,27662
1486.36,1.338484,591232,27119
1489.52,1.339323,587853,26912
1492.68,1.336826,583875,26884
1496.89,1.334180,578062,26779
1500.03,1.338350,574159,26344
1503.18,1.332322,570285,26532
1506.32,1.334055,565444,26202
1509.45,1.334192,560571,25968
1512.58,1.332996,555821,25819
1515.71,1.339079,550344,25209
1519.87,1.333634,543983,25232
1522.99,1.335985,538764,24855
1526.1,1.335368,533692,24656
1529.21,1.336786,527902,24309
1532.32,1.337889,521886,23971
1535.42,1.337954,515888,23692
1538.51,1.342821,509987,23160
1541.6,1.343965,503936,22825
1545.72,1.329823,494694,23148
1548.8,1.332348,488378,22720
1551.88,1.341046,481832,21971
1554.95,1.331898,474989,22120
1558.02,1.331481,467818,21807
1561.08,1.341227,460730,21000
1564.15,1.331785,454170,21156
1568.22,1.332514,444181,20656
1571.27,1.329884,436947,20443
1574.32,1.332706,429598,19969
1577.36,1.340178,422039,19283
1580.4,1.342682,414375,18824
1583.43,1.331869,406354,18925
1586.46,1.338069,398475,18295
1590.49,1.330527,388982,18172
1593.51,1.331467,380708,17747
1596.53,1.330642,372727,17408
1599.54,1.328734,365060,17125
1602.55,1.331992,357543,16647
1605.55,1.322967,349495,16614
1608.55,1.326259,341154,16095
1612.54,1.332654,330877,15382
1615.53,1.320370,322904,15442
1618.51,1.323684,315116,14955
1621.49,1.330987,307217,14337
1624.47,1.330055,299481,14006
1627.44,1.326300,292112,13780
1630.41,1.326426,284245,13405
1634.36,1.326781,274079,12915
1637.32,1.315448,266916,12910
1640.27,1.330894,259612,12118
1643.22,1.316987,251804,12136
1646.16,1.322578,244348,11626
1649.1,1.312337,236703,11531
1652.04,1.315961,228171,11023
1655.95,1.311990,215408,10502
1658.88,1.321815,204937,9768
1661.8,1.327499,193395,9098
1664.72,1.337741,179728,8258
1667.63,1.330404,163642,7647
1670.54,1.323483,146312,6947
1673.44,1.351645,128451,5716
1677.31,1.350070,105080,4693
1680.21,1.357533,88906,3903
1683.1,1.364975,75033,3238
1685.99,1.325066,63520,3005
1688.87,1.315950,53714,2595
1691.75,1.308446,45653,2244
1694.62,1.303668,39137,1945
1697.49,1.299695,33776,1694
1701.31,1.196768,28175,1791