Folder: textile_sorting_NIRSCAN_/samples/unknown (part 13)

File: Column 1_078072_20241121_164405.csv
Method:,Column 1,,
Host Date-Time:,21/11/24 @ 16:44:5,,
Header Version:,1,,
System Temp (C):,31.49,,
Detector Temp (C):,26.45,,
Humidity (%):,5.27,,
Lamp PD:,3808,,
Shift Vector Coefficients:,-10.5391,0.0761263,-0.000134223,,
Pixel to Wavelength Coefficients:,1775.68,-0.916766,-0.000235065,,
Serial Number:,5510004,,
Scan Config Name:,Column 1,,
Scan Config Type:,Slew,,
Section 1,,
Start wavelength (nm):,900,,
End wavelength (nm):,1700,,
Pattern Pixel Width (nm):,   7.03,,,,
Exposure (ms):,  0.635,,,,
Digital Resolution:,228,,
Num Repeats:,6,,
PGA Gain:,64,,
Total Measurement Time in sec:,  2.711,,
Wavelength (nm),Absorbance (AU),Reference Signal (unitless),Sample Signal (unitless)
901.51,1.309213,108485,5323
905.376,1.302270,121306,6048
909.237,1.328233,131909,6195
913.095,1.303702,143299,7121
916.948,1.298388,156982,7897
922.079,1.301457,179937,8988
925.923,1.279983,200504,10523
929.762,1.318502,222660,10694
933.597,1.315493,244426,11821
937.427,1.310094,263972,12926
941.254,1.313385,281845,13697
945.076,1.319155,297271,14256
950.165,1.307972,315605,15530
953.978,1.311874,328029,15997
957.786,1.306925,340470,16794
961.59,1.308511,352317,17315
965.389,1.307485,363056,17885
969.185,1.312805,373162,18159
972.976,1.309433,382632,18765
976.763,1.309462,391202,19184
981.806,1.305886,400190,19787
985.583,1.306138,406088,20067
989.355,1.313884,410162,19910
993.124,1.304545,412868,20477
996.888,1.313648,414263,20120
1000.65,1.307513,415476,20466
1004.4,1.306732,415479,20503
1009.41,1.305961,414358,20484
1013.15,1.306388,412923,20393
1016.89,1.315391,411526,19907
1020.63,1.310633,409066,20006
1024.36,1.313745,406777,19752
1028.09,1.312264,404427,19705
1031.82,1.311497,401911,19617
1036.78,1.307255,398410,19637
1040.49,1.300421,396204,19838
1044.2,1.314655,394236,19103
1047.91,1.306136,392042,19373
1051.61,1.308585,389823,19155
1055.31,1.315861,388234,18760
1059,1.318543,387599,18614
1063.92,1.305986,386688,19115
1067.61,1.321404,386598,18444
1071.29,1.308649,387377,19032
1074.96,1.318194,388536,18674
1078.63,1.323262,389855,18520
1082.3,1.311587,391215,19091
1085.96,1.307187,393215,19384
1090.84,1.317185,396270,19090
1094.49,1.315357,398760,19291
1098.14,1.314523,400987,19436
1101.79,1.312744,403477,19637
1105.43,1.318326,406116,19513
1109.06,1.314731,407701,19752
1112.7,1.326223,409859,19338
1117.53,1.322011,412494,19652
1121.15,1.324436,414909,19657
1124.77,1.317389,416559,20058
1128.38,1.331917,418532,19490
1131.99,1.327285,419956,19766
1135.6,1.316564,421946,20356
1139.2,1.323206,423881,20139
1143.99,1.321454,426786,20359
1147.58,1.322163,428617,20413
1151.17,1.325230,431169,20390
1154.75,1.318442,433579,20827
1158.33,1.318213,436264,20967
1161.91,1.321287,439132,20956
1165.48,1.319612,442389,21193
1169.04,1.320666,446101,21319
1173.79,1.317571,451929,21752
1177.34,1.308141,456026,22431
1180.9,1.315490,461306,22310
1184.44,1.314170,467657,22686
1187.99,1.323625,473969,22497
1191.52,1.321674,479856,22879
1195.06,1.318422,487372,23412
1199.76,1.323435,497347,23617
1203.29,1.322885,504311,23978
1206.81,1.323192,511507,24303
1210.33,1.323433,519078,24649
1213.84,1.321269,527163,25158
1217.35,1.323732,534208,25350
1220.85,1.331562,540472,25189
1225.51,1.323184,549929,26129
1229.01,1.322768,556888,26485
1232.5,1.324814,562180,26611
1235.98,1.328469,567975,26660
1239.46,1.320543,574815,27478
1242.94,1.324455,582782,27609
1246.41,1.319721,591476,28328
1251.03,1.324166,604016,28634
1254.5,1.322601,612289,29131
1257.96,1.320457,619125,29602
1261.41,1.325584,624551,29511
1264.86,1.322541,629900,29973
1268.31,1.328022,634345,29806
1271.75,1.326428,638574,30115
1276.33,1.333321,642499,29823
1279.76,1.328640,645905,30306
1283.19,1.324289,648307,30725
1286.61,1.332228,650446,30268
1290.03,1.324630,652132,30882
1293.44,1.321640,653907,31180
1296.85,1.327610,655963,30851
1301.39,1.330233,657349,30730
1304.8,1.331376,657558,30659
1308.19,1.328874,658515,30881
1311.58,1.333404,658804,30574
1314.97,1.331302,659011,30732
1318.36,1.328981,658272,30862
1321.73,1.329478,658022,30815
1326.23,1.332334,657870,30606
1329.6,1.334606,656482,30382
1332.97,1.336315,654926,30191
1336.33,1.327961,653727,30721
1339.69,1.336604,652497,30059
1343.04,1.334621,649913,30077
1346.39,1.326457,647671,30542
1349.73,1.330140,645338,30175
1354.18,1.328901,641175,30066
1357.52,1.327521,638376,30030
1360.85,1.326869,635805,29954
1364.17,1.335814,633413,29233
1367.49,1.331552,631026,29410
1370.81,1.324566,628050,29746
1374.12,1.327497,625034,29404
1378.54,1.327973,620272,29148
1381.84,1.331556,616892,28751
1385.14,1.328562,613613,28796
1388.43,1.329639,611526,28627
1391.72,1.327103,610663,28754
1395.01,1.325349,610634,28869
1398.29,1.326408,611700,28849
1402.66,1.328239,614051,28838
1405.93,1.329774,616268,28840
1409.2,1.329496,617795,28930
1412.46,1.330418,618872,28919
1415.72,1.327088,619795,29185
1418.98,1.336296,620495,28605
1422.23,1.333609,621087,28810
1426.56,1.336502,621375,28632
1429.8,1.332654,621616,28898
1433.04,1.335484,622129,28734
1436.27,1.328538,621526,29169
1439.5,1.334654,621113,28742
1442.72,1.330983,620921,28977
1445.94,1.334881,620270,28688
1450.23,1.337816,618860,28430
1453.44,1.337060,617697,28426
1456.64,1.334891,616264,28502
1459.85,1.335219,614413,28395
1463.04,1.340587,612307,27950
1466.24,1.337002,610032,28077
1469.43,1.341301,607345,27678
1473.67,1.341537,603789,27501
1476.85,1.331982,601175,27991
1480.02,1.339172,597737,27374
1483.19,1.340463,594479,27144
1486.36,1.339591,591232,27050
1489.52,1.337632,587853,27017
1492.68,1.335536,583875,26964
1496.89,1.332949,578062,26855
1500.03,1.337379,574159,26403
1503.18,1.346632,570285,25672
1506.32,1.339929,565444,25850
1509.45,1.340374,560571,25601
1512.58,1.344414,555821,25149
1515.71,1.335322,550344,25428
1519.87,1.338567,543983,24947
1522.99,1.339265,538764,24668
1526.1,1.340827,533692,24348
1529.21,1.335573,527902,24377
1532.32,1.334083,521886,24182
1535.42,1.335741,515888,23813
1538.51,1.338417,509987,23396
1541.6,1.341820,503936,22938
1545.72,1.332062,494694,23029
1548.8,1.346215,488378,22006
1551.88,1.335644,481832,22246
1554.95,1.344346,474989,21495
1558.02,1.340699,467818,21349
1561.08,1.331291,460730,21486
1564.15,1.335786,454170,20962
1568.22,1.335764,444181,20502
1571.27,1.337687,436947,20079
1574.32,1.341849,429598,19553
1577.36,1.338919,422039,19339
1580.4,1.341254,414375,18886
1583.43,1.326736,406354,19150
1586.46,1.324307,398475,18884
1590.49,1.337246,388982,17893
1593.51,1.331394,380708,17750
1596.53,1.317133,372727,17958
1599.54,1.325953,365060,17235
1602.55,1.331419,357543,16669
1605.55,1.330428,349495,16331
1608.55,1.323784,341154,16187
1612.54,1.322276,330877,15754
1615.53,1.320426,322904,15440
1618.51,1.335667,315116,14548
1621.49,1.330200,307217,14363
1624.47,1.317705,299481,14410
1627.44,1.332842,292112,13574
1630.41,1.320250,284245,13597
1634.36,1.322199,274079,13052
1637.32,1.329465,266916,12500
1640.27,1.316755,259612,12519
1643.22,1.331284,251804,11743
1646.16,1.326971,244348,11509
1649.1,1.326617,236703,11158
1652.04,1.317184,228171,10992
1655.95,1.322919,215408,10241
1658.88,1.309800,204937,10042
1661.8,1.308082,193395,9514
1664.72,1.304251,179728,8920
1667.63,1.322469,163642,7788
1670.54,1.321300,146312,6982
1673.44,1.303169,128451,6391
1677.31,1.316426,105080,5071
1680.21,1.312845,88906,4326
1683.1,1.307285,75033,3698
1685.99,1.341412,63520,2894
1688.87,1.301467,53714,2683
1691.75,1.268358,45653,2461
1694.62,1.325886,39137,1848
1697.49,1.250770,33776,1896
1701.31,1.284026,28175,1465

File: Column 1_078073_20241121_164408.csv
Method:,Column 1,,
Host Date-Time:,21/11/24 @ 16:44:8,,
Header Version:,1,,
System Temp (C):,31.54,,
Detector Temp (C):,26.45,,
Humidity (%):,5.22,,
Lamp PD:,3808,,
Shift Vector Coefficients:,-10.5391,0.0761263,-0.000134223,,
Pixel to Wavelength Coefficients:,1775.68,-0.916766,-0.000235065,,
Serial Number:,5510004,,
Scan Config Name:,Column 1,,
Scan Config Type:,Slew,,
Section 1,,
Start wavelength (nm):,900,,
End wavelength (nm):,1700,,
Pattern Pixel Width (nm):,   7.03,,,,
Exposure (ms):,  0.635,,,,
Digital Resolution:,228,,
Num Repeats:,6,,
PGA Gain:,64,,
Total Measurement Time in sec:,  2.706,,
Wavelength (nm),Absorbance (AU),Reference Signal (unitless),Sample Signal (unitless)
901.51,1.288735,108485,5580
905.376,1.319407,121306,5814
909.237,1.287702,131909,6801
913.095,1.307192,143299,7064
916.948,1.286615,156982,8114
922.079,1.330789,179937,8401
925.923,1.318407,200504,9632
929.762,1.300757,222660,11140
933.597,1.318775,244426,11732
937.427,1.311473,263972,12885
941.254,1.323489,281845,13382
945.076,1.310469,297271,14544
950.165,1.320887,315605,15075
953.978,1.321537,328029,15645
957.786,1.308817,340470,16721
961.59,1.301742,352317,17587
965.389,1.311338,363056,17727
969.185,1.309114,373162,18314
972.976,1.310035,382632,18739
976.763,1.312233,391202,19062
981.806,1.306391,400190,19764
985.583,1.308090,406088,19977
989.355,1.301583,410162,20482
993.124,1.309665,412868,20237
996.888,1.303367,414263,20602
1000.65,1.305016,415476,20584
1004.4,1.306308,415479,20523
1009.41,1.311144,414358,20241
1013.15,1.308373,412923,20300
1016.89,1.307415,411526,20276
1020.63,1.306464,409066,20199
1024.36,1.309871,406777,19929
1028.09,1.309123,404427,19848
1031.82,1.308365,401911,19759
1036.78,1.304170,398410,19777
1040.49,1.307595,396204,19513
1044.2,1.316751,394236,19011
1047.91,1.305016,392042,19423
1051.61,1.308971,389823,19138
1055.31,1.313990,388234,18841
1059,1.306713,387599,19128
1063.92,1.317754,386688,18604
1067.61,1.319877,386598,18509
1071.29,1.314392,387377,18782
1074.96,1.322353,388536,18496
1078.63,1.314602,389855,18893
1082.3,1.305241,391215,19372
1085.96,1.307837,393215,19355
1090.84,1.311063,396270,19361
1094.49,1.309720,398760,19543
1098.14,1.321461,400987,19128
1101.79,1.317368,403477,19429
1105.43,1.311437,406116,19825
1109.06,1.306627,407701,20124
1112.7,1.314590,409859,19863
1117.53,1.314844,412494,19979
1121.15,1.316966,414909,19998
1124.77,1.324153,416559,19748
1128.38,1.327571,418532,19686
1131.99,1.315430,419956,20313
1135.6,1.309622,421946,20684
1139.2,1.318018,423881,20381
1143.99,1.320410,426786,20408
1147.58,1.313547,428617,20822
1151.17,1.326788,431169,20317
1154.75,1.321833,433579,20665
1158.33,1.320831,436264,20841
1161.91,1.313035,439132,21358
1165.48,1.308505,442389,21742
1169.04,1.310220,446101,21838
1173.79,1.315440,451929,21859
1177.34,1.314381,456026,22111
1180.9,1.319243,461306,22118
1184.44,1.319272,467657,22421
1187.99,1.314759,473969,22961
1191.52,1.319666,479856,22985
1195.06,1.318775,487372,23393
1199.76,1.321398,497347,23728
1203.29,1.322904,504311,23977
1206.81,1.321996,511507,24370
1210.33,1.315248,519078,25118
1213.84,1.319580,527163,25256
1217.35,1.320268,534208,25553
1220.85,1.317316,540472,26029
1225.51,1.325952,549929,25963
1229.01,1.321540,556888,26560
1232.5,1.319687,562180,26927
1235.98,1.321632,567975,27083
1239.46,1.324816,574815,27209
1242.94,1.324597,582782,27600
1246.41,1.313511,591476,28736
1251.03,1.321475,604016,28812
1254.5,1.326044,612289,28901
1257.96,1.323032,619125,29427
1261.41,1.325452,624551,29520
1264.86,1.321109,629900,30072
1268.31,1.326683,634345,29898
1271.75,1.326977,638574,30077
1276.33,1.326588,642499,30289
1279.76,1.331155,645905,30131
1283.19,1.329422,648307,30364
1286.61,1.325762,650446,30722
1290.03,1.327324,652132,30691
1293.44,1.328944,653907,30660
1296.85,1.327624,655963,30850
1301.39,1.330219,657349,30731
1304.8,1.328834,657558,30839
1308.19,1.326364,658515,31060
1311.58,1.330474,658804,30781
1314.97,1.331245,659011,30736
1318.36,1.327941,658272,30936
1321.73,1.329929,658022,30783
1326.23,1.331766,657870,30646
1329.6,1.335709,656482,30305
1332.97,1.333033,654926,30420
1336.33,1.330172,653727,30565
1339.69,1.331505,652497,30414
1343.04,1.331327,649913,30306
1346.39,1.333929,647671,30021
1349.73,1.328502,645338,30289
1354.18,1.329017,641175,30058
1357.52,1.331575,638376,29751
1360.85,1.330027,635805,29737
1364.17,1.326466,633413,29869
1367.49,1.326268,631026,29770
1370.81,1.325092,628050,29710
1374.12,1.328873,625034,29311
1378.54,1.332196,620272,28866
1381.84,1.323727,616892,29274
1385.14,1.334194,613613,28425
1388.43,1.332928,611526,28411
1391.72,1.327390,610663,28735
1395.01,1.326102,610634,28819
1398.29,1.327131,611700,28801
1402.66,1.332051,614051,28586
1405.93,1.326325,616268,29070
1409.2,1.326176,617795,29152
1412.46,1.332767,618872,28763
1415.72,1.329820,619795,29002
1418.98,1.335917,620495,28630
1422.23,1.333579,621087,28812
1426.56,1.337824,621375,28545
1429.8,1.337384,621616,28585
1433.04,1.329078,622129,29161
1436.27,1.334172,621526,28793
1439.5,1.333718,621113,28804
1442.72,1.338542,620921,28477
1445.94,1.329928,620270,29017
1450.23,1.329135,618860,29004
1453.44,1.333348,617697,28670
1456.64,1.334115,616264,28553
1459.85,1.333113,614413,28533
1463.04,1.332979,612307,28444
1466.24,1.333535,610032,28302
1469.43,1.329582,607345,28435
1473.67,1.334332,603789,27961
1476.85,1.335316,601175,27777
1480.02,1.335397,597737,27613
1483.19,1.339903,594479,27179
1486.36,1.340137,591232,27016
1489.52,1.338903,587853,26938
1492.68,1.335632,583875,26958
1496.89,1.340173,578062,26412
1500.03,1.337182,574159,26415
1503.18,1.333108,570285,26484
1506.32,1.337483,565444,25996
1509.45,1.337870,560571,25749
1512.58,1.340255,555821,25391
1515.71,1.337411,550344,25306
1519.87,1.339944,543983,24868
1522.99,1.335863,538764,24862
1526.1,1.336815,533692,24574
1529.21,1.335537,527902,24379
1532.32,1.334892,521886,24137
1535.42,1.336746,515888,23758
1538.51,1.332737,509987,23704
1541.6,1.333661,503936,23373
1545.72,1.334881,494694,22880
1548.8,1.345407,488378,22047
1551.88,1.337620,481832,22145
1554.95,1.334616,474989,21982
1558.02,1.330685,467818,21847
1561.08,1.337049,460730,21203
1564.15,1.335392,454170,20981
1568.22,1.336803,444181,20453
1571.27,1.336693,436947,20125
1574.32,1.335061,429598,19861
1577.36,1.338111,422039,19375
1580.4,1.333550,414375,19224
1583.43,1.332535,406354,18896
1586.46,1.335324,398475,18411
1590.49,1.329954,388982,18196
1593.51,1.330831,380708,17773
1596.53,1.332016,372727,17353
1599.54,1.331073,365060,17033
1602.55,1.332488,357543,16628
1605.55,1.327169,349495,16454
1608.55,1.323060,341154,16214
1612.54,1.331610,330877,15419
1615.53,1.326716,322904,15218
1618.51,1.325197,315116,14903
1621.49,1.320897,307217,14674
1624.47,1.335390,299481,13835
1627.44,1.322910,292112,13888
1630.41,1.325423,284245,13436
1634.36,1.335408,274079,12661
1637.32,1.312197,266916,13007
1640.27,1.320343,259612,12416
1643.22,1.335520,251804,11629
1646.16,1.326104,244348,11532
1649.1,1.307617,236703,11657
1652.04,1.320436,228171,10910
1655.95,1.315603,215408,10415
1658.88,1.316205,204937,9895
1661.8,1.304174,193395,9600
1664.72,1.324788,179728,8508
1667.63,1.313801,163642,7945
1670.54,1.332133,146312,6810
1673.44,1.296158,128451,6495
1677.31,1.299215,105080,5276
1680.21,1.325785,88906,4199
1683.1,1.283076,75033,3910
1685.99,1.306673,63520,3135
1688.87,1.346093,53714,2421
1691.75,1.264843,45653,2481
1694.62,1.268717,39137,2108
1697.49,1.242826,33776,1931
1701.31,1.218904,28175,1702

File: Column 1_078074_20241121_164411.csv
Method:,Column 1,,
Host Date-Time:,21/11/24 @ 16:44:11,,
Header Version:,1,,
System Temp (C):,31.6,,
Detector Temp (C):,26.49,,
Humidity (%):,5.17,,
Lamp PD:,3808,,
Shift Vector Coefficients:,-10.5391,0.0761263,-0.000134223,,
Pixel to Wavelength Coefficients:,1775.68,-0.916766,-0.000235065,,
Serial Number:,5510004,,
Scan Config Name:,Column 1,,
Scan Config Type:,Slew,,
Section 1,,
Start wavelength (nm):,900,,
End wavelength (nm):,1700,,
Pattern Pixel Width (nm):,   7.03,,,,
Exposure (ms):,  0.635,,,,
Digital Resolution:,228,,
Num Repeats:,6,,
PGA Gain:,64,,
Total Measurement Time in sec:,  2.706,,
Wavelength (nm),Absorbance (AU),Reference Signal (unitless),Sample Signal (unitless)
901.51,1.304587,108485,5380
905.376,1.280152,121306,6364
909.237,1.310513,131909,6453
913.095,1.330233,143299,6699
916.948,1.320615,156982,7503
922.079,1.298616,179937,9047
925.923,1.307850,200504,9869
929.762,1.306289,222660,10999
933.597,1.314466,244426,11849
937.427,1.314043,263972,12809
941.254,1.315642,281845,13626
945.076,1.316513,297271,14343
950.165,1.296846,315605,15933
953.978,1.304258,328029,16280
957.786,1.314885,340470,16489
961.59,1.307609,352317,17351
965.389,1.317457,363056,17479
969.185,1.301824,373162,18624
972.976,1.317091,382632,18437
976.763,1.319631,391202,18740
981.806,1.308572,400190,19665
985.583,1.313493,406088,19730
989.355,1.301371,410162,20492
993.124,1.315651,412868,19960
996.888,1.308221,414263,20373
1000.65,1.314055,415476,20160
1004.4,1.313779,415479,20173
1009.41,1.313252,414358,20143
1013.15,1.316645,412923,19917
1016.89,1.315959,411526,19881
1020.63,1.314536,409066,19827
1024.36,1.311202,406777,19868
1028.09,1.308620,404427,19871
1031.82,1.305692,401911,19881
1036.78,1.314143,398410,19328
1040.49,1.315863,396204,19145
1044.2,1.321575,394236,18801
1047.91,1.319845,392042,18771
1051.61,1.316432,389823,18812
1055.31,1.306132,388234,19185
1059,1.308442,387599,19052
1063.92,1.316170,386688,18672
1067.61,1.316977,386598,18633
1071.29,1.303838,387377,19244
1074.96,1.311066,388536,18983
1078.63,1.311396,389855,19033
1082.3,1.315150,391215,18935
1085.96,1.321976,393215,18735
1090.84,1.319924,396270,18970
1094.49,1.312507,398760,19418
1098.14,1.317258,400987,19314
1101.79,1.320734,403477,19279
1105.43,1.317992,406116,19528
1109.06,1.322428,407701,19405
1112.7,1.317375,409859,19736
1117.53,1.321216,412494,19688
1121.15,1.320192,414909,19850
1124.77,1.328663,416559,19544
1128.38,1.314961,418532,20266
1131.99,1.321089,419956,20050
1135.6,1.328877,421946,19787
1139.2,1.321592,423881,20214
1143.99,1.314807,426786,20673
1147.58,1.323206,428617,20364
1151.17,1.321730,431169,20555
1154.75,1.320322,433579,20737
1158.33,1.318130,436264,20971
1161.91,1.321390,439132,20951
1165.48,1.316183,442389,21361
1169.04,1.321339,446101,21286
1173.79,1.318851,451929,21688
1177.34,1.322430,456026,21705
1180.9,1.318419,461306,22160
1184.44,1.321564,467657,22303
1187.99,1.316028,473969,22894
1191.52,1.316804,479856,23137
1195.06,1.313442,487372,23682
1199.76,1.323361,497347,23621
1203.29,1.322849,504311,23980
1206.81,1.323889,511507,24264
1210.33,1.323751,519078,24631
1213.84,1.323068,527163,25054
1217.35,1.320830,534208,25520
1220.85,1.322654,540472,25711
1225.51,1.324566,549929,26046
1229.01,1.326308,556888,26270
1232.5,1.320462,562180,26879
1235.98,1.325482,567975,26844
1239.46,1.326799,574815,27085
1242.94,1.323403,582782,27676
1246.41,1.325882,591476,27929
1251.03,1.330399,604016,28226
1254.5,1.324109,612289,29030
1257.96,1.330010,619125,28958
1261.41,1.329487,624551,29247
1264.86,1.327833,629900,29610
1268.31,1.332975,634345,29468
1271.75,1.329773,638574,29884
1276.33,1.329696,642499,30073
1279.76,1.330119,645905,30203
1283.19,1.329422,648307,30364
1286.61,1.329852,650446,30434
1290.03,1.333366,652132,30267
1293.44,1.332257,653907,30427
1296.85,1.331073,655963,30606
1301.39,1.329330,657349,30794
1304.8,1.334518,657558,30438
1308.19,1.336994,658515,30309
1311.58,1.332581,658804,30632
1314.97,1.332278,659011,30663
1318.36,1.337364,658272,30272
1321.73,1.339256,658022,30129
1326.23,1.336826,657870,30291
1329.6,1.333807,656482,30438
1332.97,1.336646,654926,30168
1336.33,1.328796,653727,30662
1339.69,1.330122,652497,30511
1343.04,1.333381,649913,30163
1346.39,1.327354,647671,30479
1349.73,1.332652,645338,30001
1354.18,1.330362,641175,29965
1357.52,1.336847,638376,29392
1360.85,1.334003,635805,29466
1364.17,1.328536,633413,29727
1367.49,1.331626,631026,29405
1370.81,1.334684,628050,29061
1374.12,1.327069,625034,29433
1378.54,1.322260,620272,29534
1381.84,1.329056,616892,28917
1385.14,1.326486,613613,28934
1388.43,1.323299,611526,29048
1391.72,1.331368,610663,28473
1395.01,1.335085,610634,28229
1398.29,1.333388,611700,28389
1402.66,1.328978,614051,28789
1405.93,1.331857,616268,28702
1409.2,1.327384,617795,29071
1412.46,1.330057,618872,28943
1415.72,1.332027,619795,28855
1418.98,1.331976,620495,28891
1422.23,1.335861,621087,28661
1426.56,1.330223,621375,29049
1429.8,1.326936,621616,29281
1433.04,1.337211,622129,28620
1436.27,1.334293,621526,28785
1439.5,1.328651,621113,29142
1442.72,1.333508,620921,28809
1445.94,1.331232,620270,28930
1450.23,1.338902,618860,28359
1453.44,1.336953,617697,28433
1456.64,1.334495,616264,28528
1459.85,1.332535,614413,28571
1463.04,1.339920,612307,27993
1466.24,1.342622,610032,27716
1469.43,1.336169,607345,28007
1473.67,1.337372,603789,27766
1476.85,1.337353,601175,27647
1480.02,1.335208,597737,27625
1483.19,1.336497,594479,27393
1486.36,1.338773,591232,27101
1489.52,1.340632,587853,26831
1492.68,1.341242,583875,26612
1496.89,1.338008,578062,26544
1500.03,1.335885,574159,26494
1503.18,1.339435,570285,26101
1506.32,1.343692,565444,25627
1509.45,1.339357,560571,25661
1512.58,1.337476,555821,25554
1515.71,1.338579,550344,25238
1519.87,1.335583,543983,25119
1522.99,1.337613,538764,24762
1526.1,1.334418,533692,24710
1529.21,1.344810,527902,23864
1532.32,1.342168,521886,23736
1535.42,1.334103,515888,23903
1538.51,1.332737,509987,23704
1541.6,1.343204,503936,22865
1545.72,1.338904,494694,22669
1548.8,1.343284,488378,22155
1551.88,1.338779,481832,22086
1554.95,1.334933,474989,21966
1558.02,1.337659,467818,21499
1561.08,1.340772,460730,21022
1564.15,1.338988,454170,20808
1568.22,1.340000,444181,20303
1571.27,1.340878,436947,19932
1574.32,1.332011,429598,20001
1577.36,1.333806,422039,19568
1580.4,1.334296,414375,19191
1583.43,1.340420,406354,18556
1586.46,1.330445,398475,18619
1590.49,1.340340,388982,17766
1593.51,1.335203,380708,17595
1596.53,1.330418,372727,17417
1599.54,1.328505,365060,17134
1602.55,1.331471,357543,16667
1605.55,1.327011,349495,16460
1608.55,1.322819,341154,16223
1612.54,1.326264,330877,15610
1615.53,1.333794,322904,14972
1618.51,1.335309,315116,14560
1621.49,1.318094,307217,14769
1624.47,1.325367,299481,14158
1627.44,1.325230,292112,13814
1630.41,1.330135,284245,13291
1634.36,1.330123,274079,12816
1637.32,1.323221,266916,12681
1640.27,1.326614,259612,12238
1643.22,1.330618,251804,11761
1646.16,1.326406,244348,11524
1649.1,1.323553,236703,11237
1652.04,1.320476,228171,10909
1655.95,1.313108,215408,10475
1658.88,1.309887,204937,10040
1661.8,1.314567,193395,9373
1664.72,1.318706,179728,8628
1667.63,1.315279,163642,7918
1670.54,1.324672,146312,6928
1673.44,1.294890,128451,6514
1677.31,1.306855,105080,5184
1680.21,1.358089,88906,3898
1683.1,1.331433,75033,3498
1685.99,1.339018,63520,2910
1688.87,1.287765,53714,2769
1691.75,1.380716,45653,1900
1694.62,1.399741,39137,1559
1697.49,1.376932,33776,1418
1701.31,1.306225,28175,1392