Folder: textile_sorting_NIRSCAN_/samples/unknown (part 16)

File: Column 1_078088_20241121_164453.csv
Method:,Column 1,,
Host Date-Time:,21/11/24 @ 16:44:53,,
Header Version:,1,,
System Temp (C):,31.95,,
Detector Temp (C):,26.91,,
Humidity (%):,4.4,,
Lamp PD:,3807,,
Shift Vector Coefficients:,-10.5391,0.0761263,-0.000134223,,
Pixel to Wavelength Coefficients:,1775.68,-0.916766,-0.000235065,,
Serial Number:,5510004,,
Scan Config Name:,Column 1,,
Scan Config Type:,Slew,,
Section 1,,
Start wavelength (nm):,900,,
End wavelength (nm):,1700,,
Pattern Pixel Width (nm):,   7.03,,,,
Exposure (ms):,  0.635,,,,
Digital Resolution:,228,,
Num Repeats:,6,,
PGA Gain:,64,,
Total Measurement Time in sec:,  2.721,,
Wavelength (nm),Absorbance (AU),Reference Signal (unitless),Sample Signal (unitless)
901.51,1.311914,108485,5290
905.376,1.325728,121306,5730
909.237,1.322938,131909,6271
913.095,1.317583,143299,6897
916.948,1.316009,156982,7583
922.079,1.308865,179937,8836
925.923,1.319400,200504,9610
929.762,1.309340,222660,10922
933.597,1.315934,244426,11809
937.427,1.308384,263972,12977
941.254,1.313829,281845,13683
945.076,1.316967,297271,14328
950.165,1.310553,315605,15438
953.978,1.324405,328029,15542
957.786,1.306434,340470,16813
961.59,1.311658,352317,17190
965.389,1.306030,363056,17945
969.185,1.316939,373162,17987
972.976,1.301339,382632,19118
976.763,1.302678,391202,19486
981.806,1.310054,400190,19598
985.583,1.310947,406088,19846
989.355,1.311882,410162,20002
993.124,1.294068,412868,20977
996.888,1.308157,414263,20376
1000.65,1.310302,415476,20335
1004.4,1.317497,415479,20001
1009.41,1.313661,414358,20124
1013.15,1.307817,412923,20326
1016.89,1.303895,411526,20441
1020.63,1.305604,409066,20239
1024.36,1.308891,406777,19974
1028.09,1.316249,404427,19525
1031.82,1.302536,401911,20026
1036.78,1.310140,398410,19507
1040.49,1.308152,396204,19488
1044.2,1.312206,394236,19211
1047.91,1.307663,392042,19305
1051.61,1.305265,389823,19302
1055.31,1.307560,388234,19122
1059,1.308191,387599,19063
1063.92,1.321223,386688,18456
1067.61,1.316139,386598,18669
1071.29,1.308467,387377,19040
1074.96,1.310175,388536,19022
1078.63,1.323591,389855,18506
1082.3,1.318073,391215,18808
1085.96,1.311397,393215,19197
1090.84,1.308335,396270,19483
1094.49,1.312552,398760,19416
1098.14,1.317978,400987,19282
1101.79,1.316141,403477,19484
1105.43,1.325869,406116,19177
1109.06,1.315523,407701,19716
1112.7,1.315925,409859,19802
1117.53,1.321128,412494,19692
1121.15,1.331227,414909,19352
1124.77,1.324527,416559,19731
1128.38,1.320113,418532,20027
1131.99,1.318067,419956,20190
1135.6,1.325205,421946,19955
1139.2,1.319299,423881,20321
1143.99,1.321688,426786,20348
1147.58,1.324787,428617,20290
1151.17,1.318279,431169,20719
1154.75,1.320783,433579,20715
1158.33,1.320831,436264,20841
1161.91,1.319054,439132,21064
1165.48,1.321275,442389,21112
1169.04,1.315684,446101,21565
1173.79,1.315857,451929,21838
1177.34,1.321431,456026,21755
1180.9,1.318517,461306,22155
1184.44,1.322051,467657,22278
1187.99,1.318520,473969,22763
1191.52,1.321579,479856,22884
1195.06,1.312709,487372,23722
1199.76,1.325370,497347,23512
1203.29,1.319278,504311,24178
1206.81,1.316894,511507,24658
1210.33,1.324916,519078,24565
1213.84,1.316445,527163,25439
1217.35,1.322791,534208,25405
1220.85,1.322283,540472,25733
1225.51,1.323649,549929,26101
1229.01,1.319989,556888,26655
1232.5,1.322146,562180,26775
1235.98,1.325854,567975,26821
1239.46,1.318179,574815,27628
1242.94,1.321790,582782,27779
1246.41,1.322783,591476,28129
1251.03,1.323833,604016,28656
1254.5,1.324933,612289,28975
1257.96,1.327647,619125,29116
1261.41,1.329546,624551,29243
1264.86,1.330172,629900,29451
1268.31,1.326262,634345,29927
1271.75,1.334169,638574,29583
1276.33,1.331476,642499,29950
1279.76,1.327895,645905,30358
1283.19,1.325251,648307,30657
1286.61,1.328812,650446,30507
1290.03,1.330321,652132,30480
1293.44,1.329937,653907,30590
1296.85,1.327188,655963,30881
1301.39,1.329556,657349,30778
1304.8,1.331759,657558,30632
1308.19,1.330876,658515,30739
1311.58,1.337801,658804,30266
1314.97,1.338268,659011,30243
1318.36,1.331140,658272,30709
1321.73,1.332718,658022,30586
1326.23,1.333200,657870,30545
1329.6,1.328799,656482,30791
1332.97,1.331778,654926,30508
1336.33,1.334700,653727,30248
1339.69,1.331291,652497,30429
1343.04,1.336400,649913,29954
1346.39,1.331664,647671,30178
1349.73,1.325174,645338,30522
1354.18,1.331291,641175,29901
1357.52,1.335093,638376,29511
1360.85,1.332825,635805,29546
1364.17,1.326699,633413,29853
1367.49,1.328213,631026,29637
1370.81,1.320526,628050,30024
1374.12,1.328029,625034,29368
1378.54,1.320250,620272,29671
1381.84,1.327033,616892,29052
1385.14,1.333095,613613,28497
1388.43,1.325743,611526,28885
1391.72,1.329800,610663,28576
1395.01,1.327022,610634,28758
1398.29,1.329763,611700,28627
1402.66,1.326301,614051,28967
1405.93,1.326340,616268,29069
1409.2,1.326146,617795,29154
1412.46,1.331320,618872,28859
1415.72,1.334351,619795,28701
1418.98,1.335189,620495,28678
1422.23,1.332375,621087,28892
1426.56,1.323620,621375,29494
1429.8,1.334658,621616,28765
1433.04,1.336544,622129,28664
1436.27,1.333389,621526,28845
1439.5,1.326081,621113,29315
1442.72,1.335639,620921,28668
1445.94,1.337355,620270,28525
1450.23,1.335242,618860,28599
1453.44,1.332848,617697,28703
1456.64,1.329726,616264,28843
1459.85,1.336275,614413,28326
1463.04,1.335121,612307,28304
1466.24,1.334765,610032,28222
1469.43,1.333186,607345,28200
1473.67,1.336794,603789,27803
1476.85,1.330635,601175,28078
1480.02,1.335947,597737,27578
1483.19,1.340159,594479,27163
1486.36,1.334928,591232,27342
1489.52,1.337905,587853,27000
1492.68,1.339094,583875,26744
1496.89,1.335740,578062,26683
1500.03,1.336705,574159,26444
1503.18,1.340351,570285,26046
1506.32,1.333475,565444,26237
1509.45,1.340696,560571,25582
1512.58,1.334850,555821,25709
1515.71,1.348166,550344,24687
1519.87,1.332877,543983,25276
1522.99,1.337665,538764,24759
1526.1,1.338266,533692,24492
1529.21,1.334363,527902,24445
1532.32,1.335973,521886,24077
1535.42,1.332091,515888,24014
1538.51,1.334923,509987,23585
1541.6,1.334182,503936,23345
1545.72,1.339575,494694,22634
1548.8,1.327123,488378,22995
1551.88,1.332745,481832,22395
1554.95,1.340344,474989,21694
1558.02,1.339501,467818,21408
1561.08,1.337172,460730,21197
1564.15,1.340996,454170,20712
1568.22,1.333883,444181,20591
1571.27,1.338574,436947,20038
1574.32,1.339125,429598,19676
1577.36,1.336299,422039,19456
1580.4,1.334047,414375,19202
1583.43,1.329922,406354,19010
1586.46,1.326128,398475,18805
1590.49,1.324899,388982,18409
1593.51,1.330001,380708,17807
1596.53,1.336393,372727,17179
1599.54,1.328100,365060,17150
1602.55,1.327941,357543,16803
1605.55,1.322470,349495,16633
1608.55,1.325990,341154,16105
1612.54,1.335970,330877,15265
1615.53,1.322032,322904,15383
1618.51,1.326949,315116,14843
1621.49,1.329475,307217,14387
1624.47,1.317525,299481,14416
1627.44,1.321318,292112,13939
1630.41,1.330201,284245,13289
1634.36,1.317006,274079,13209
1637.32,1.326936,266916,12573
1640.27,1.320203,259612,12420
1643.22,1.330951,251804,11752
1646.16,1.329127,244348,11452
1649.1,1.317871,236703,11385
1652.04,1.321751,228171,10877
1655.95,1.314853,215408,10433
1658.88,1.292878,204937,10441
1661.8,1.317216,193395,9316
1664.72,1.301726,179728,8972
1667.63,1.308639,163642,8040
1670.54,1.300413,146312,7326
1673.44,1.302693,128451,6398
1677.31,1.322463,105080,5001
1680.21,1.325992,88906,4197
1683.1,1.274279,75033,3990
1685.99,1.310569,63520,3107
1688.87,1.233711,53714,3136
1691.75,1.384619,45653,1883
1694.62,1.338765,39137,1794
1697.49,1.260264,33776,1855
1701.31,1.368157,28175,1207

File: Column 1_078089_20241121_164456.csv
Method:,Column 1,,
Host Date-Time:,21/11/24 @ 16:44:56,,
Header Version:,1,,
System Temp (C):,32.04,,
Detector Temp (C):,26.98,,
Humidity (%):,4.4,,
Lamp PD:,3808,,
Shift Vector Coefficients:,-10.5391,0.0761263,-0.000134223,,
Pixel to Wavelength Coefficients:,1775.68,-0.916766,-0.000235065,,
Serial Number:,5510004,,
Scan Config Name:,Column 1,,
Scan Config Type:,Slew,,
Section 1,,
Start wavelength (nm):,900,,
End wavelength (nm):,1700,,
Pattern Pixel Width (nm):,   7.03,,,,
Exposure (ms):,  0.635,,,,
Digital Resolution:,228,,
Num Repeats:,6,,
PGA Gain:,64,,
Total Measurement Time in sec:,  2.705,,
Wavelength (nm),Absorbance (AU),Reference Signal (unitless),Sample Signal (unitless)
901.51,1.314880,108485,5254
905.376,1.332911,121306,5636
909.237,1.305827,131909,6523
913.095,1.309103,143299,7033
916.948,1.322820,156982,7465
922.079,1.313162,179937,8749
925.923,1.301559,200504,10013
929.762,1.310295,222660,10898
933.597,1.318146,244426,11749
937.427,1.313568,263972,12823
941.254,1.324497,281845,13351
945.076,1.308027,297271,14626
950.165,1.312329,315605,15375
953.978,1.320096,328029,15697
957.786,1.312652,340470,16574
961.59,1.306434,352317,17398
965.389,1.302895,363056,18075
969.185,1.315805,373162,18034
972.976,1.312079,382632,18651
976.763,1.308219,391202,19239
981.806,1.301823,400190,19973
985.583,1.313669,406088,19722
989.355,1.304391,410162,20350
993.124,1.310009,412868,20221
996.888,1.311667,414263,20212
1000.65,1.311628,415476,20273
1004.4,1.310070,415479,20346
1009.41,1.306237,414358,20471
1013.15,1.311120,412923,20172
1016.89,1.314106,411526,19966
1020.63,1.301865,409066,20414
1024.36,1.309435,406777,19949
1028.09,1.300179,404427,20261
1031.82,1.319000,401911,19281
1036.78,1.312349,398410,19408
1040.49,1.315591,396204,19157
1044.2,1.311958,394236,19222
1047.91,1.312481,392042,19092
1051.61,1.316363,389823,18815
1055.31,1.306766,388234,19157
1059,1.312082,387599,18893
1063.92,1.308219,386688,19017
1067.61,1.315581,386598,18693
1071.29,1.317129,387377,18664
1074.96,1.320292,388536,18584
1078.63,1.314625,389855,18892
1082.3,1.315494,391215,18920
1085.96,1.314325,393215,19068
1090.84,1.318142,396270,19048
1094.49,1.315334,398760,19292
1098.14,1.319897,400987,19197
1101.79,1.316141,403477,19484
1105.43,1.317726,406116,19540
1109.06,1.313786,407701,19795
1112.7,1.308942,409859,20123
1117.53,1.317964,412494,19836
1121.15,1.315038,414909,20087
1124.77,1.319211,416559,19974
1128.38,1.318381,418532,20107
1131.99,1.313148,419956,20420
1135.6,1.316308,421946,20368
1139.2,1.329374,423881,19855
1143.99,1.317567,426786,20542
1147.58,1.314675,428617,20768
1151.17,1.320865,431169,20596
1154.75,1.321329,433579,20689
1158.33,1.318110,436264,20972
1161.91,1.318477,439132,21092
1165.48,1.324911,442389,20936
1169.04,1.315080,446101,21595
1173.79,1.330520,451929,21113
1177.34,1.313067,456026,22178
1180.9,1.321586,461306,21999
1184.44,1.324554,467657,22150
1187.99,1.324553,473969,22449
1191.52,1.321560,479856,22885
1195.06,1.325887,487372,23013
1199.76,1.322149,497347,23687
1203.29,1.325811,504311,23817
1206.81,1.321141,511507,24418
1210.33,1.321429,519078,24763
1213.84,1.320131,527163,25224
1217.35,1.317794,534208,25699
1220.85,1.319742,540472,25884
1225.51,1.323899,549929,26086
1229.01,1.326126,556888,26281
1232.5,1.323690,562180,26680
1235.98,1.318453,567975,27282
1239.46,1.323159,574815,27313
1242.94,1.325810,582782,27523
1246.41,1.320074,591476,28305
1251.03,1.325594,604016,28540
1254.5,1.322124,612289,29163
1257.96,1.320633,619125,29590
1261.41,1.321206,624551,29810
1264.86,1.329950,629900,29466
1268.31,1.325204,634345,30000
1271.75,1.330107,638574,29861
1276.33,1.325513,642499,30364
1279.76,1.331487,645905,30108
1283.19,1.330553,648307,30285
1286.61,1.330138,650446,30414
1290.03,1.324222,652132,30911
1293.44,1.334618,653907,30262
1296.85,1.331783,655963,30556
1301.39,1.333254,657349,30517
1304.8,1.333777,657558,30490
1308.19,1.330593,658515,30759
1311.58,1.330502,658804,30779
1314.97,1.335848,659011,30412
1318.36,1.328124,658272,30923
1321.73,1.332363,658022,30611
1326.23,1.338651,657870,30164
1329.6,1.327855,656482,30858
1332.97,1.337409,654926,30115
1336.33,1.335648,653727,30182
1339.69,1.333351,652497,30285
1343.04,1.331470,649913,30296
1346.39,1.330529,647671,30257
1349.73,1.334000,645338,29908
1354.18,1.327704,641175,30149
1357.52,1.331604,638376,29749
1360.85,1.327754,635805,29893
1364.17,1.325943,633413,29905
1367.49,1.327788,631026,29666
1370.81,1.329278,628050,29425
1374.12,1.328059,625034,29366
1378.54,1.329227,620272,29064
1381.84,1.332509,616892,28688
1385.14,1.326006,613613,28966
1388.43,1.325803,611526,28881
1391.72,1.326319,610663,28806
1395.01,1.332004,610634,28430
1398.29,1.332716,611700,28433
1402.66,1.332021,614051,28588
1405.93,1.326788,616268,29039
1409.2,1.329992,617795,28897
1412.46,1.333220,618872,28733
1415.72,1.335123,619795,28650
1418.98,1.335962,620495,28627
1422.23,1.332615,621087,28876
1426.56,1.337702,621375,28553
1429.8,1.335701,621616,28696
1433.04,1.335878,622129,28708
1436.27,1.336486,621526,28640
1439.5,1.336016,621113,28652
1442.72,1.332815,620921,28855
1445.94,1.330722,620270,28964
1450.23,1.336778,618860,28498
1453.44,1.331579,617697,28787
1456.64,1.335547,616264,28459
1459.85,1.344244,614413,27811
1463.04,1.339346,612307,28030
1466.24,1.335674,610032,28163
1469.43,1.339406,607345,27799
1473.67,1.338264,603789,27709
1476.85,1.342330,601175,27332
1480.02,1.334250,597737,27686
1483.19,1.337656,594479,27320
1486.36,1.336583,591232,27238
1489.52,1.337053,587853,27053
1492.68,1.336535,583875,26902
1496.89,1.335398,578062,26704
1500.03,1.335131,574159,26540
1503.18,1.333584,570285,26455
1506.32,1.335749,565444,26100
1509.45,1.335549,560571,25887
1512.58,1.336475,555821,25613
1515.71,1.334281,550344,25489
1519.87,1.337524,543983,25007
1522.99,1.337262,538764,24782
1526.1,1.326995,533692,25136
1529.21,1.337072,527902,24293
1532.32,1.347488,521886,23447
1535.42,1.334867,515888,23861
1538.51,1.341659,509987,23222
1541.6,1.340780,503936,22993
1545.72,1.337928,494694,22720
1548.8,1.339887,488378,22329
1551.88,1.341244,481832,21961
1554.95,1.327659,474989,22337
1558.02,1.340211,467818,21373
1561.08,1.337275,460730,21192
1564.15,1.339594,454170,20779
1568.22,1.339871,444181,20309
1571.27,1.336348,436947,20141
1574.32,1.334275,429598,19897
1577.36,1.336344,422039,19454
1580.4,1.330286,414375,19369
1583.43,1.330585,406354,18981
1586.46,1.339186,398475,18248
1590.49,1.328928,388982,18239
1593.51,1.334389,380708,17628
1596.53,1.326545,372727,17573
1599.54,1.330640,365060,17050
1602.55,1.323902,357543,16960
1605.55,1.334006,349495,16197
1608.55,1.327827,341154,16037
1612.54,1.334947,330877,15301
1615.53,1.322852,322904,15354
1618.51,1.335846,315116,14542
1621.49,1.325479,307217,14520
1624.47,1.304292,299481,14862
1627.44,1.328924,292112,13697
1630.41,1.312431,284245,13844
1634.36,1.326613,274079,12920
1637.32,1.324971,266916,12630
1640.27,1.321780,259612,12375
1643.22,1.322860,251804,11973
1646.16,1.300582,244348,12230
1649.1,1.306352,236703,11691
1652.04,1.322431,228171,10860
1655.95,1.312735,215408,10484
1658.88,1.316336,204937,9892
1661.8,1.306215,193395,9555
1664.72,1.330336,179728,8400
1667.63,1.320855,163642,7817
1670.54,1.262244,146312,7999
1673.44,1.297028,128451,6482
1677.31,1.284168,105080,5462
1680.21,1.306467,88906,4390
1683.1,1.313555,75033,3645
1685.99,1.347761,63520,2852
1688.87,1.250944,53714,3014
1691.75,1.254123,45653,2543
1694.62,1.434829,39137,1438
1697.49,1.359816,33776,1475
1701.31,1.293921,28175,1432

File: Column 1_078090_20241121_164459.csv
Method:,Column 1,,
Host Date-Time:,21/11/24 @ 16:44:59,,
Header Version:,1,,
System Temp (C):,32.04,,
Detector Temp (C):,27.1,,
Humidity (%):,4.4,,
Lamp PD:,3807,,
Shift Vector Coefficients:,-10.5391,0.0761263,-0.000134223,,
Pixel to Wavelength Coefficients:,1775.68,-0.916766,-0.000235065,,
Serial Number:,5510004,,
Scan Config Name:,Column 1,,
Scan Config Type:,Slew,,
Section 1,,
Start wavelength (nm):,900,,
End wavelength (nm):,1700,,
Pattern Pixel Width (nm):,   7.03,,,,
Exposure (ms):,  0.635,,,,
Digital Resolution:,228,,
Num Repeats:,6,,
PGA Gain:,64,,
Total Measurement Time in sec:,  2.729,,
Wavelength (nm),Absorbance (AU),Reference Signal (unitless),Sample Signal (unitless)
901.51,1.323057,108485,5156
905.376,1.315244,121306,5870
909.237,1.309572,131909,6467
913.095,1.333487,143299,6649
916.948,1.322878,156982,7464
922.079,1.310391,179937,8805
925.923,1.316293,200504,9679
929.762,1.312613,222660,10840
933.597,1.313039,244426,11888
937.427,1.320086,263972,12632
941.254,1.315037,281845,13645
945.076,1.333588,297271,13790
950.165,1.320167,315605,15100
953.978,1.320926,328029,15667
957.786,1.312128,340470,16594
961.59,1.309893,352317,17260
965.389,1.305861,363056,17952
969.185,1.306207,373162,18437
972.976,1.305654,382632,18929
976.763,1.308128,391202,19243
981.806,1.312031,400190,19509
985.583,1.312284,406088,19785
989.355,1.310560,410162,20063
993.124,1.314282,412868,20023
996.888,1.313109,414263,20145
1000.65,1.306390,415476,20519
1004.4,1.310668,415479,20318
1009.41,1.320667,414358,19802
1013.15,1.311206,412923,20168
1016.89,1.316724,411526,19846
1020.63,1.309592,409066,20054
1024.36,1.316436,406777,19630
1028.09,1.311559,404427,19737
1031.82,1.306566,401911,19841
1036.78,1.317097,398410,19197
1040.49,1.319760,396204,18974
1044.2,1.309277,394236,19341
1047.91,1.320841,392042,18728
1051.61,1.319839,389823,18665
1055.31,1.313483,388234,18863
1059,1.313925,387599,18813
1063.92,1.316659,386688,18651
1067.61,1.308186,386598,19014
1071.29,1.310433,387377,18954
1074.96,1.320129,388536,18591
1078.63,1.313523,389855,18940
1082.3,1.314394,391215,18968
1085.96,1.321721,393215,18746
1090.84,1.314419,396270,19212
1094.49,1.318747,398760,19141
1098.14,1.314613,400987,19432
1101.79,1.317995,403477,19401
1105.43,1.310802,406116,19854
1109.06,1.313567,407701,19805
1112.7,1.316276,409859,19786
1117.53,1.315801,412494,19935
1121.15,1.316445,414909,20022
1124.77,1.321391,416559,19874
1128.38,1.324800,418532,19812
1131.99,1.319986,419956,20101
1135.6,1.318961,421946,20244
1139.2,1.321012,423881,20241
1143.99,1.333063,426786,19822
1147.58,1.317423,428617,20637
1151.17,1.321624,431169,20560
1154.75,1.322085,433579,20653
1158.33,1.320893,436264,20838
1161.91,1.326583,439132,20702
1165.48,1.322759,442389,21040
1169.04,1.326615,446101,21029
1173.79,1.327446,451929,21263
1177.34,1.322370,456026,21708
1180.9,1.315879,461306,22290
1184.44,1.317899,467657,22492
1187.99,1.328010,473969,22271
1191.52,1.318289,479856,23058
1195.06,1.319927,487372,23331
1199.76,1.324927,497347,23536
1203.29,1.326286,504311,23791
1206.81,1.328550,511507,24005
1210.33,1.324174,519078,24607
1213.84,1.333453,527163,24462
1217.35,1.322484,534208,25423
1220.85,1.328059,540472,25393
1225.51,1.324899,549929,26026
1229.01,1.322604,556888,26495
1232.5,1.333584,562180,26079
1235.98,1.323046,567975,26995
1239.46,1.325518,574815,27165
1242.94,1.322384,582782,27741
1246.41,1.322490,591476,28148
1251.03,1.325731,604016,28531
1254.5,1.319748,612289,29323
1257.96,1.325044,619125,29291
1261.41,1.330304,624551,29192
1264.86,1.335244,629900,29109
1268.31,1.329847,634345,29681
1271.75,1.325161,638574,30203
1276.33,1.328772,642499,30137
1279.76,1.326952,645905,30424
1283.19,1.329121,648307,30385
1286.61,1.334356,650446,30120
1290.03,1.334904,652132,30160
1293.44,1.333801,653907,30319
1296.85,1.334263,655963,30382
1301.39,1.330870,657349,30685
1304.8,1.330004,657558,30756
1308.19,1.333455,658515,30557
1311.58,1.340753,658804,30061
1314.97,1.329215,659011,30880
1318.36,1.332485,658272,30614
1321.73,1.333371,658022,30540
1326.23,1.335252,657870,30401
1329.6,1.332539,656482,30527
1332.97,1.327515,654926,30809
1336.33,1.340889,653727,29820
1339.69,1.332477,652497,30346
1343.04,1.333885,649913,30128
1346.39,1.336861,647671,29819
1349.73,1.328717,645338,30274
1354.18,1.332134,641175,29843
1357.52,1.334416,638376,29557
1360.85,1.328540,635805,29839
1364.17,1.323727,633413,30058
1367.49,1.330093,631026,29509
1370.81,1.327966,628050,29514
1374.12,1.333640,625034,28991
1378.54,1.339708,620272,28371
1381.84,1.332766,616892,28671
1385.14,1.332623,613613,28528
1388.43,1.332470,611526,28441
1391.72,1.327103,610663,28754
1395.01,1.331012,610634,28495
1398.29,1.329490,611700,28645
1402.66,1.331156,614051,28645
1405.93,1.328511,616268,28924
1409.2,1.334205,617795,28618
1412.46,1.331832,618872,28825
1415.72,1.335139,619795,28649
1418.98,1.329219,620495,29075
1422.23,1.332134,621087,28908
1426.56,1.331645,621375,28954
1429.8,1.335202,621616,28729
1433.04,1.341496,622129,28339
1436.27,1.340493,621526,28377
1439.5,1.337656,621113,28544
1442.72,1.335321,620921,28689
1445.94,1.332089,620270,28873
1450.23,1.331341,618860,28857
1453.44,1.340234,617697,28219
1456.64,1.333902,616264,28567
1459.85,1.346561,614413,27663
1463.04,1.338619,612307,28077
1466.24,1.338086,610032,28007
1469.43,1.336184,607345,28006
1473.67,1.335016,603789,27917
1476.85,1.336411,601175,27707
1480.02,1.339537,597737,27351
1483.19,1.340175,594479,27162
1486.36,1.341086,591232,26957
1489.52,1.341069,587853,26804
1492.68,1.338153,583875,26802
1496.89,1.339007,578062,26483
1500.03,1.337889,574159,26372
1503.18,1.342574,570285,25913
1506.32,1.343522,565444,25637
1509.45,1.337887,560571,25748
1512.58,1.338923,555821,25469
1515.71,1.341445,550344,25072
1519.87,1.338567,543983,24947
1522.99,1.337841,538764,24749
1526.1,1.346573,533692,24028
1529.21,1.343647,527902,23928
1532.32,1.338905,521886,23915
1535.42,1.341377,515888,23506
1538.51,1.344832,509987,23053
1541.6,1.334740,503936,23315
1545.72,1.334957,494694,22876
1548.8,1.346590,488378,21987
1551.88,1.343782,481832,21833
1554.95,1.340184,474989,21702
1558.02,1.347796,467818,21003
1561.08,1.342947,460730,20917
1564.15,1.334379,454170,21030
1568.22,1.329831,444181,20784
1571.27,1.329078,436947,20481
1574.32,1.338442,429598,19707
1577.36,1.338515,422039,19357
1580.4,1.339738,414375,18952
1583.43,1.338202,406354,18651
1586.46,1.340377,398475,18198
1590.49,1.333019,388982,18068
1593.51,1.332030,380708,17724
1596.53,1.342606,372727,16935
1599.54,1.335610,365060,16856
1602.55,1.333796,357543,16578
1605.55,1.343467,349495,15848
1608.55,1.329918,341154,15960
1612.54,1.326820,330877,15590
1615.53,1.325576,322904,15258
1618.51,1.329355,315116,14761
1621.49,1.337426,307217,14126
1624.47,1.332200,299481,13937
1627.44,1.333835,292112,13543
1630.41,1.339416,284245,13010
1634.36,1.329548,274079,12833
1637.32,1.321649,266916,12727
1640.27,1.336521,259612,11962
1643.22,1.321050,251804,12023
1646.16,1.315355,244348,11821
1649.1,1.330095,236703,11069
1652.04,1.328795,228171,10702
1655.95,1.329112,215408,10096
1658.88,1.315415,204937,9913
1661.8,1.300525,193395,9681
1664.72,1.331683,179728,8374
1667.63,1.311620,163642,7985
1670.54,1.316414,146312,7061
1673.44,1.323479,128451,6099
1677.31,1.322724,105080,4998
1680.21,1.326096,88906,4196
1683.1,1.304126,75033,3725
1685.99,1.333530,63520,2947
1688.87,1.297920,53714,2705
1691.75,1.306130,45653,2256
1694.62,1.331801,39137,1823
1697.49,1.302524,33776,1683
1701.31,1.350183,28175,1258