Folder: textile_sorting_NIRSCAN_/samples/unknown

Note: README.md
# Textile Sorting with NIRSCAN

This project focuses on sorting textiles using Near-Infrared (NIR) scanning technology.

## Table of Contents
- [Introduction](#introduction)
- [Features](#features)
- [Installation](#installation)
- [Usage](#usage)
- [Contributing](#contributing)
- [License](#license)

## Introduction
Textile sorting is a crucial step in recycling and waste management. This project utilizes NIR scanning to identify and sort different types of textiles efficiently.

![NIRSCAN](./images/nirscan_example.jpg)

## Features
- Accurate textile identification
- Efficient sorting mechanism
- Easy integration with existing systems

## Installation
To install the necessary dependencies, run:
```bash
pip install -r requirements.txt
```

## Usage
To start the textile sorting process, use the following command:
```bash
python sort_textiles.py
```

## Contributing
We welcome contributions! Please read our [contributing guidelines](CONTRIBUTING.md) for more details.

## License
This project is licensed under the MIT License. See the [LICENSE](LICENSE) file for details.

![Sorting Process](./images/sorting_process.jpg)

File: Column 1_078001_20241121_164039.csv
Method:,Column 1,,
Host Date-Time:,21/11/24 @ 16:40:39,,
Header Version:,1,,
System Temp (C):,29.05,,
Detector Temp (C):,26.96,,
Humidity (%):,7.83,,
Lamp PD:,3818,,
Shift Vector Coefficients:,-10.5391,0.0761263,-0.000134223,,
Pixel to Wavelength Coefficients:,1775.68,-0.916766,-0.000235065,,
Serial Number:,5510004,,
Scan Config Name:,Column 1,,
Scan Config Type:,Slew,,
Section 1,,
Start wavelength (nm):,900,,
End wavelength (nm):,1700,,
Pattern Pixel Width (nm):,   7.03,,,,
Exposure (ms):,  0.635,,,,
Digital Resolution:,228,,
Num Repeats:,6,,
PGA Gain:,64,,
Total Measurement Time in sec:,  2.706,,
Wavelength (nm),Absorbance (AU),Reference Signal (unitless),Sample Signal (unitless)
901.51,1.307178,108485,5348
905.376,1.319631,121306,5811
909.237,1.325090,131909,6240
913.095,1.313572,143299,6961
916.948,1.298608,156982,7893
922.079,1.298520,179937,9049
925.923,1.324034,200504,9508
929.762,1.307871,222660,10959
933.597,1.308243,244426,12020
937.427,1.302500,263972,13154
941.254,1.321256,281845,13451
945.076,1.311336,297271,14515
950.165,1.310637,315605,15435
953.978,1.307014,328029,16177
957.786,1.317182,340470,16402
961.59,1.313430,352317,17120
965.389,1.309432,363056,17805
969.185,1.306820,373162,18411
972.976,1.310545,382632,18717
976.763,1.309417,391202,19186
981.806,1.316686,400190,19301
985.583,1.303677,406088,20181
989.355,1.311687,410162,20011
993.124,1.306543,412868,20383
996.888,1.315248,414263,20046
1000.65,1.310558,415476,20323
1004.4,1.304935,415479,20588
1009.41,1.306682,414358,20450
1013.15,1.314470,412923,20017
1016.89,1.305726,411526,20355
1020.63,1.311785,409066,19953
1024.36,1.309305,406777,19955
1028.09,1.320878,404427,19318
1031.82,1.312850,401911,19556
1036.78,1.309450,398410,19538
1040.49,1.311575,396204,19335
1044.2,1.305210,394236,19523
1047.91,1.310756,392042,19168
1051.61,1.307340,389823,19210
1055.31,1.307106,388234,19142
1059,1.300894,387599,19386
1063.92,1.312995,386688,18809
1067.61,1.311350,386598,18876
1071.29,1.313768,387377,18809
1074.96,1.313222,388536,18889
1078.63,1.311647,389855,19022
1082.3,1.315839,391215,18905
1085.96,1.317227,393215,18941
1090.84,1.316140,396270,19136
1094.49,1.312686,398760,19410
1098.14,1.318091,400987,19277
1101.79,1.320960,403477,19269
1105.43,1.320133,406116,19432
1109.06,1.321110,407701,19464
1112.7,1.324721,409859,19405
1117.53,1.320070,412494,19740
1121.15,1.322650,414909,19738
1124.77,1.315639,416559,20139
1128.38,1.318727,418532,20091
1131.99,1.315558,419956,20307
1135.6,1.321327,421946,20134
1139.2,1.317933,423881,20385
1143.99,1.320069,426786,20424
1147.58,1.316729,428617,20670
1151.17,1.323254,431169,20483
1154.75,1.319130,433579,20794
1158.33,1.320810,436264,20842
1161.91,1.324469,439132,20803
1165.48,1.312821,442389,21527
1169.04,1.317864,446101,21457
1173.79,1.316773,451929,21792
1177.34,1.312226,456026,22221
1180.9,1.318439,461306,22159
1184.44,1.322012,467657,22280
1187.99,1.315119,473969,22942
1191.52,1.321978,479856,22863
1195.06,1.323422,487372,23144
1199.76,1.318698,497347,23876
1203.29,1.327877,504311,23704
1206.81,1.326402,511507,24124
1210.33,1.321903,519078,24736
1213.84,1.326619,527163,24850
1217.35,1.328972,534208,25046
1220.85,1.313478,540472,26260
1225.51,1.325550,549929,25987
1229.01,1.321834,556888,26542
1232.5,1.329590,562180,26320
1235.98,1.319968,567975,27187
1239.46,1.324528,574815,27227
1242.94,1.321805,582782,27778
1246.41,1.327752,591476,27809
1251.03,1.326814,604016,28460
1254.5,1.327413,612289,28810
1257.96,1.327527,619125,29124
1261.41,1.325422,624551,29522
1264.86,1.329936,629900,29467
1268.31,1.326219,634345,29930
1271.75,1.327656,638574,30030
1276.33,1.331693,642499,29935
1279.76,1.327938,645905,30355
1283.19,1.331659,648307,30208
1286.61,1.329410,650446,30465
1290.03,1.335048,652132,30150
1293.44,1.330079,653907,30580
1296.85,1.331271,655963,30592
1301.39,1.330361,657349,30721
1304.8,1.331206,657558,30671
1308.19,1.326266,658515,31067
1311.58,1.333177,658804,30590
1314.97,1.329440,659011,30864
1318.36,1.335975,658272,30369
1321.73,1.332902,658022,30573
1326.23,1.335095,657870,30412
1329.6,1.331913,656482,30571
1332.97,1.336056,654926,30209
1336.33,1.332494,653727,30402
1339.69,1.334155,652497,30229
1343.04,1.335705,649913,30002
1346.39,1.329239,647671,30347
1349.73,1.323158,645338,30664
1354.18,1.331393,641175,29894
1357.52,1.331444,638376,29760
1360.85,1.330831,635805,29682
1364.17,1.326655,633413,29856
1367.49,1.324856,631026,29867
1370.81,1.327422,628050,29551
1374.12,1.329555,625034,29265
1378.54,1.330349,620272,28989
1381.84,1.327362,616892,29030
1385.14,1.330724,613613,28653
1388.43,1.329806,611526,28616
1391.72,1.331231,610663,28482
1395.01,1.328459,610634,28663
1398.29,1.327644,611700,28767
1402.66,1.336341,614051,28305
1405.93,1.335352,616268,28472
1409.2,1.332660,617795,28720
1412.46,1.331907,618872,28820
1415.72,1.336414,619795,28565
1418.98,1.324938,620495,29363
1422.23,1.331024,621087,28982
1426.56,1.331165,621375,28986
1429.8,1.330885,621616,29016
1433.04,1.335666,622129,28722
1436.27,1.332111,621526,28930
1439.5,1.335228,621113,28704
1442.72,1.336124,620921,28636
1445.94,1.330033,620270,29010
1450.23,1.332456,618860,28783
1453.44,1.332924,617697,28698
1456.64,1.340751,616264,28120
1459.85,1.337857,614413,28223
1463.04,1.331272,612307,28556
1466.24,1.333582,610032,28299
1469.43,1.327647,607345,28562
1473.67,1.341742,603789,27488
1476.85,1.330434,601175,28091
1480.02,1.341478,597737,27229
1483.19,1.335594,594479,27450
1486.36,1.340394,591232,27000
1489.52,1.334141,587853,27235
1492.68,1.337052,583875,26870
1496.89,1.340502,578062,26392
1500.03,1.336016,574159,26486
1503.18,1.336054,570285,26305
1506.32,1.339006,565444,25905
1509.45,1.332390,560571,26076
1512.58,1.339572,555821,25431
1515.71,1.337737,550344,25287
1519.87,1.336864,543983,25045
1522.99,1.335531,538764,24881
1526.1,1.332017,533692,24847
1529.21,1.339654,527902,24149
1532.32,1.336063,521886,24072
1535.42,1.340970,515888,23528
1538.51,1.341716,509987,23219
1541.6,1.338444,503936,23117
1545.72,1.335679,494694,22838
1548.8,1.340685,488378,22288
1551.88,1.345197,481832,21762
1554.95,1.335209,474989,21952
1558.02,1.342493,467818,21261
1561.08,1.338280,460730,21143
1564.15,1.339072,454170,20804
1568.22,1.336124,444181,20485
1571.27,1.342931,436947,19838
1574.32,1.330580,429598,20067
1577.36,1.334406,422039,19541
1580.4,1.328474,414375,19450
1583.43,1.336042,406354,18744
1586.46,1.326266,398475,18799
1590.49,1.332443,388982,18092
1593.51,1.338299,380708,17470
1596.53,1.336090,372727,17191
1599.54,1.334375,365060,16904
1602.55,1.332567,357543,16625
1605.55,1.331227,349495,16301
1608.55,1.323382,341154,16202
1612.54,1.332964,330877,15371
1615.53,1.328002,322904,15173
1618.51,1.321396,315116,15034
1621.49,1.339367,307217,14063
1624.47,1.329435,299481,14026
1627.44,1.332170,292112,13595
1630.41,1.316275,284245,13722
1634.36,1.314482,274079,13286
1637.32,1.326763,266916,12578
1640.27,1.325480,259612,12270
1643.22,1.316272,251804,12156
1646.16,1.326971,244348,11509
1649.1,1.329899,236703,11074
1652.04,1.317579,228171,10982
1655.95,1.332828,215408,10010
1658.88,1.325476,204937,9686
1661.8,1.319553,193395,9266
1664.72,1.333919,179728,8331
1667.63,1.322469,163642,7788
1670.54,1.380235,146312,6096
1673.44,1.372899,128451,5443
1677.31,1.351274,105080,4680
1680.21,1.380964,88906,3698
1683.1,1.338441,75033,3442
1685.99,1.385273,63520,2616
1688.87,1.316285,53714,2593
1691.75,1.312725,45653,2222
1694.62,1.271611,39137,2094
1697.49,1.363364,33776,1463
1701.31,1.373588,28175,1192

File: Column 1_078005_20241121_164050.csv
Method:,Column 1,,
Host Date-Time:,21/11/24 @ 16:40:50,,
Header Version:,1,,
System Temp (C):,29.16,,
Detector Temp (C):,25.66,,
Humidity (%):,7.88,,
Lamp PD:,3817,,
Shift Vector Coefficients:,-10.5391,0.0761263,-0.000134223,,
Pixel to Wavelength Coefficients:,1775.68,-0.916766,-0.000235065,,
Serial Number:,5510004,,
Scan Config Name:,Column 1,,
Scan Config Type:,Slew,,
Section 1,,
Start wavelength (nm):,900,,
End wavelength (nm):,1700,,
Pattern Pixel Width (nm):,   7.03,,,,
Exposure (ms):,  0.635,,,,
Digital Resolution:,228,,
Num Repeats:,6,,
PGA Gain:,64,,
Total Measurement Time in sec:,  2.706,,
Wavelength (nm),Absorbance (AU),Reference Signal (unitless),Sample Signal (unitless)
901.51,1.320119,108485,5191
905.376,1.331834,121306,5650
909.237,1.325996,131909,6227
913.095,1.322268,143299,6823
916.948,1.289299,156982,8064
922.079,1.323459,179937,8544
925.923,1.312762,200504,9758
929.762,1.300212,222660,11154
933.597,1.309908,244426,11974
937.427,1.311103,263972,12896
941.254,1.312561,281845,13723
945.076,1.309544,297271,14575
950.165,1.311849,315605,15392
953.978,1.320262,328029,15691
957.786,1.308272,340470,16742
961.59,1.306060,352317,17413
965.389,1.320224,363056,17368
969.185,1.308545,373162,18338
972.976,1.297404,382632,19292
976.763,1.310164,391202,19153
981.806,1.299979,400190,20058
985.583,1.307482,406088,20005
989.355,1.308896,410162,20140
993.124,1.300450,412868,20671
996.888,1.311516,414263,20219
1000.65,1.307046,415476,20488
1004.4,1.311931,415479,20259
1009.41,1.314180,414358,20100
1013.15,1.316057,412923,19944
1016.89,1.311547,411526,20084
1020.63,1.311742,409066,19955
1024.36,1.305189,406777,20145
1028.09,1.304423,404427,20064
1031.82,1.309157,401911,19723
1036.78,1.311411,398410,19450
1040.49,1.301890,396204,19771
1044.2,1.306524,394236,19464
1047.91,1.308789,392042,19255
1051.61,1.312137,389823,18999
1055.31,1.308151,388234,19096
1059,1.305647,387599,19175
1063.92,1.318876,386688,18556
1067.61,1.307114,386598,19061
1071.29,1.307169,387377,19097
1074.96,1.319498,388536,18618
1078.63,1.316560,389855,18808
1082.3,1.310587,391215,19135
1085.96,1.320080,393215,18817
1090.84,1.313042,396270,19273
1094.49,1.320384,398760,19069
1098.14,1.318925,400987,19240
1101.79,1.314939,403477,19538
1105.43,1.318259,406116,19516
1109.06,1.319995,407701,19514
1112.7,1.310347,409859,20058
1117.53,1.318994,412494,19789
1121.15,1.317901,414909,19955
1124.77,1.323648,416559,19771
1128.38,1.317174,418532,20163
1131.99,1.310878,419956,20527
1135.6,1.317440,421946,20315
1139.2,1.323486,423881,20126
1143.99,1.329224,426786,19998
1147.58,1.322354,428617,20404
1151.17,1.320401,431169,20618
1154.75,1.320741,433579,20717
1158.33,1.315467,436264,21100
1161.91,1.321328,439132,20954
1165.48,1.320802,442389,21135
1169.04,1.324451,446101,21134
1173.79,1.325022,451929,21382
1177.34,1.315817,456026,22038
1180.9,1.319224,461306,22119
1184.44,1.319195,467657,22425
1187.99,1.313607,473969,23022
1191.52,1.319232,479856,23008
1195.06,1.328898,487372,22854
1199.76,1.326331,497347,23460
1203.29,1.320952,504311,24085
1206.81,1.324194,511507,24247
1210.33,1.319452,519078,24876
1213.84,1.329301,527163,24697
1217.35,1.328643,534208,25065
1220.85,1.322925,540472,25695
1225.51,1.322685,549929,26159
1229.01,1.327500,556888,26198
1232.5,1.322113,562180,26777
1235.98,1.323690,567975,26955
1239.46,1.322190,574815,27374
1242.94,1.328263,582782,27368
1246.41,1.323757,591476,28066
1251.03,1.326478,604016,28482
1254.5,1.327112,612289,28830
1257.96,1.326410,619125,29199
1261.41,1.329546,624551,29243
1264.86,1.324793,629900,29818
1268.31,1.328561,634345,29769
1271.75,1.325247,638574,30197
1276.33,1.326688,642499,30282
1279.76,1.324561,645905,30592
1283.19,1.330940,648307,30258
1286.61,1.337076,650446,29932
1290.03,1.328004,652132,30643
1293.44,1.331886,653907,30453
1296.85,1.328357,655963,30798
1301.39,1.331833,657349,30617
1304.8,1.330838,657558,30697
1308.19,1.334950,658515,30452
1311.58,1.330107,658804,30807
1314.97,1.330836,659011,30765
1318.36,1.327282,658272,30983
1321.73,1.333059,658022,30562
1326.23,1.334367,657870,30463
1329.6,1.333094,656482,30488
1332.97,1.335467,654926,30250
1336.33,1.335188,653727,30214
1339.69,1.337255,652497,30014
1343.04,1.335213,649913,30036
1346.39,1.337546,647671,29772
1349.73,1.332709,645338,29997
1354.18,1.333125,641175,29775
1357.52,1.326871,638376,30075
1360.85,1.329779,635805,29754
1364.17,1.330425,633413,29598
1367.49,1.333358,631026,29288
1370.81,1.333758,628050,29123
1374.12,1.331042,625034,29165
1378.54,1.326976,620272,29215
1381.84,1.325764,616892,29137
1385.14,1.334821,613613,28384
1388.43,1.331829,611526,28483
1391.72,1.326877,610663,28769
1395.01,1.329825,610634,28573
1398.29,1.327765,611700,28759
1402.66,1.331171,614051,28644
1405.93,1.328196,616268,28945
1409.2,1.334889,617795,28573
1412.46,1.331410,618872,28853
1415.72,1.334654,619795,28681
1418.98,1.330925,620495,28961
1422.23,1.331489,621087,28951
1426.56,1.331960,621375,28933
1429.8,1.330466,621616,29044
1433.04,1.337438,622129,28605
1436.27,1.332907,621526,28877
1439.5,1.336577,621113,28615
1442.72,1.330923,620921,28981
1445.94,1.337096,620270,28542
1450.23,1.333181,618860,28735
1453.44,1.333287,617697,28674
1456.64,1.334770,616264,28510
1459.85,1.337842,614413,28224
1463.04,1.336335,612307,28225
1466.24,1.340808,610032,27832
1469.43,1.335859,607345,28027
1473.67,1.335156,603789,27908
1476.85,1.335644,601175,27756
1480.02,1.336893,597737,27518
1483.19,1.336085,594479,27419
1486.36,1.337285,591232,27194
1489.52,1.344403,587853,26599
1492.68,1.335858,583875,26944
1496.89,1.340617,578062,26385
1500.03,1.343792,574159,26016
1503.18,1.338753,570285,26142
1506.32,1.343150,565444,25659
1509.45,1.337213,560571,25788
1512.58,1.341094,555821,25342
1515.71,1.340666,550344,25117
1519.87,1.335151,543983,25144
1522.99,1.339775,538764,24639
1526.1,1.333645,533692,24754
1529.21,1.339079,527902,24181
1532.32,1.341802,521886,23756
1535.42,1.334667,515888,23872
1538.51,1.345680,509987,23008
1541.6,1.337768,503936,23153
1545.72,1.327839,494694,23254
1548.8,1.338508,488378,22400
1551.88,1.344559,481832,21794
1554.95,1.333906,474989,22018
1558.02,1.333757,467818,21693
1561.08,1.337603,460730,21176
1564.15,1.337135,454170,20897
1568.22,1.343716,444181,20130
1571.27,1.343851,436947,19796
1574.32,1.336397,429598,19800
1577.36,1.326674,422039,19892
1580.4,1.345877,414375,18686
1583.43,1.337202,406354,18694
1586.46,1.338306,398475,18285
1590.49,1.329095,388982,18232
1593.51,1.335326,380708,17590
1596.53,1.336191,372727,17187
1599.54,1.336590,365060,16818
1602.55,1.325364,357543,16903
1605.55,1.340326,349495,15963
1608.55,1.324939,341154,16144
1612.54,1.327741,330877,15557
1615.53,1.328031,322904,15172
1618.51,1.336773,315116,14511
1621.49,1.328691,307217,14413
1624.47,1.331639,299481,13955
1627.44,1.323598,292112,13866
1630.41,1.318147,284245,13663
1634.36,1.321766,274079,13065
1637.32,1.320320,266916,12766
1640.27,1.322131,259612,12365
1643.22,1.318672,251804,12089
1646.16,1.325126,244348,11558
1649.1,1.324443,236703,11214
1652.04,1.323632,228171,10830
1655.95,1.302743,215408,10728
1658.88,1.324714,204937,9703
1661.8,1.326498,193395,9119
1664.72,1.315946,179728,8683
1667.63,1.352540,163642,7267
1670.54,1.331496,146312,6820
1673.44,1.344561,128451,5810
1677.31,1.346567,105080,4731
1680.21,1.437181,88906,3249
1683.1,1.339705,75033,3432
1685.99,1.423424,63520,2396
1688.87,1.337039,53714,2472
1691.75,1.399875,45653,1818
1694.62,1.365988,39137,1685
1697.49,1.473612,33776,1135
1701.31,1.243038,28175,1610

File: Column 1_078007_20241121_164056.csv
Method:,Column 1,,
Host Date-Time:,21/11/24 @ 16:40:56,,
Header Version:,1,,
System Temp (C):,29.22,,
Detector Temp (C):,25.26,,
Humidity (%):,7.69,,
Lamp PD:,3816,,
Shift Vector Coefficients:,-10.5391,0.0761263,-0.000134223,,
Pixel to Wavelength Coefficients:,1775.68,-0.916766,-0.000235065,,
Serial Number:,5510004,,
Scan Config Name:,Column 1,,
Scan Config Type:,Slew,,
Section 1,,
Start wavelength (nm):,900,,
End wavelength (nm):,1700,,
Pattern Pixel Width (nm):,   7.03,,,,
Exposure (ms):,  0.635,,,,
Digital Resolution:,228,,
Num Repeats:,6,,
PGA Gain:,64,,
Total Measurement Time in sec:,  2.706,,
Wavelength (nm),Absorbance (AU),Reference Signal (unitless),Sample Signal (unitless)
901.51,1.316868,108485,5230
905.376,1.324970,121306,5740
909.237,1.333594,131909,6119
913.095,1.309782,143299,7022
916.948,1.307277,156982,7737
922.079,1.294317,179937,9137
925.923,1.300389,200504,10040
929.762,1.307000,222660,10981
933.597,1.307593,244426,12038
937.427,1.316764,263972,12729
941.254,1.310761,281845,13780
945.076,1.318120,297271,14290
950.165,1.312046,315605,15385
953.978,1.316130,328029,15841
957.786,1.311945,340470,16601
961.59,1.311784,352317,17185
965.389,1.312393,363056,17684
969.185,1.315709,373162,18038
972.976,1.306503,382632,18892
976.763,1.301499,391202,19539
981.806,1.307844,400190,19698
985.583,1.303721,406088,20179
989.355,1.303751,410162,20380
993.124,1.316696,412868,19912
996.888,1.313130,414263,20144
1000.65,1.314465,415476,20141
1004.4,1.316695,415479,20038
1009.41,1.305707,414358,20496
1013.15,1.318590,412923,19828
1016.89,1.312630,411526,20034
1020.63,1.313180,409066,19889
1024.36,1.313701,406777,19754
1028.09,1.310812,404427,19771
1031.82,1.311320,401911,19625
1036.78,1.311924,398410,19427
1040.49,1.312362,396204,19300
1044.2,1.309569,394236,19328
1047.91,1.315769,392042,18948
1051.61,1.307883,389823,19186
1055.31,1.305159,388234,19228
1059,1.314387,387599,18793
1063.92,1.318666,386688,18565
1067.61,1.309398,386598,18961
1071.29,1.312155,387377,18879
1074.96,1.307557,388536,19137
1078.63,1.306901,389855,19231
1082.3,1.315655,391215,18913
1085.96,1.326333,393215,18548
1090.84,1.319924,396270,18970
1094.49,1.321844,398760,19005
1098.14,1.322711,400987,19073
1101.79,1.312191,403477,19662
1105.43,1.322823,406116,19312
1109.06,1.316780,407701,19659
1112.7,1.316101,409859,19794
1117.53,1.324049,412494,19560
1121.15,1.315730,414909,20055
1124.77,1.322573,416559,19820
1128.38,1.324296,418532,19835
1131.99,1.319705,419956,20114
1135.6,1.317675,421946,20304
1139.2,1.323055,423881,20146
1143.99,1.325590,426786,20166
1147.58,1.329500,428617,20071
1151.17,1.314584,431169,20896
1154.75,1.319569,433579,20773
1158.33,1.319665,436264,20897
1161.91,1.319219,439132,21056
1165.48,1.317160,442389,21313
1169.04,1.322054,446101,21251
1173.79,1.319191,451929,21671
1177.34,1.315955,456026,22031
1180.9,1.326929,461306,21730
1184.44,1.315627,467657,22610
1187.99,1.322854,473969,22537
1191.52,1.318365,479856,23054
1195.06,1.327154,487372,22946
1199.76,1.321197,497347,23739
1203.29,1.322324,504311,24009
1206.81,1.320253,511507,24468
1210.33,1.321622,519078,24752
1213.84,1.323449,527163,25032
1217.35,1.328539,534208,25071
1220.85,1.319826,540472,25879
1225.51,1.326822,549929,25911
1229.01,1.328978,556888,26109
1232.5,1.326793,562180,26490
1235.98,1.327054,567975,26747
1239.46,1.321065,574815,27445
1242.94,1.323701,582782,27657
1246.41,1.321534,591476,28210
1251.03,1.328358,604016,28359
1254.5,1.323526,612289,29069
1257.96,1.326529,619125,29191
1261.41,1.322417,624551,29727
1264.86,1.328450,629900,29568
1268.31,1.323326,634345,30130
1271.75,1.325190,638574,30201
1276.33,1.325299,642499,30379
1279.76,1.324674,645905,30584
1283.19,1.330582,648307,30283
1286.61,1.333032,650446,30212
1290.03,1.329908,652132,30509
1293.44,1.331843,653907,30456
1296.85,1.333092,655963,30464
1301.39,1.335408,657349,30366
1304.8,1.332497,657558,30580
1308.19,1.328200,658515,30929
1311.58,1.332652,658804,30627
1314.97,1.332973,659011,30614
1318.36,1.332032,658272,30646
1321.73,1.334981,658022,30427
1326.23,1.335667,657870,30372
1329.6,1.335981,656482,30286
1332.97,1.336588,654926,30172
1336.33,1.337913,653727,30025
1339.69,1.337313,652497,30010
1343.04,1.333122,649913,30181
1346.39,1.334552,647671,29978
1349.73,1.331697,645338,30067
1354.18,1.329957,641175,29993
1357.52,1.333491,638376,29620
1360.85,1.333002,635805,29534
1364.17,1.328843,633413,29706
1367.49,1.326268,631026,29770
1370.81,1.329883,628050,29384
1374.12,1.329392,625034,29276
1378.54,1.333446,620272,28783
1381.84,1.331269,616892,28770
1385.14,1.330149,613613,28691
1388.43,1.326887,611526,28809
1391.72,1.326756,610663,28777
1395.01,1.328232,610634,28678
1398.29,1.326468,611700,28845
1402.66,1.333040,614051,28521
1405.93,1.334407,616268,28534
1409.2,1.332010,617795,28763
1412.46,1.336878,618872,28492
1415.72,1.336429,619795,28564
1418.98,1.337437,620495,28530
1422.23,1.330500,621087,29017
1426.56,1.338189,621375,28521
1429.8,1.334628,621616,28767
1433.04,1.334006,622129,28832
1436.27,1.340830,621526,28355
1439.5,1.338250,621113,28505
1442.72,1.335412,620921,28683
1445.94,1.339553,620270,28381
1450.23,1.336367,618860,28525
1453.44,1.336159,617697,28485
1456.64,1.334465,616264,28530
1459.85,1.335326,614413,28388
1463.04,1.341770,612307,27874
1466.24,1.338117,610032,28005
1469.43,1.335209,607345,28069
1473.67,1.335592,603789,27880
1476.85,1.338942,601175,27546
1480.02,1.342261,597737,27180
1483.19,1.335879,594479,27432
1486.36,1.338020,591232,27148
1489.52,1.337841,587853,27004
1492.68,1.341847,583875,26575
1496.89,1.340272,578062,26406
1500.03,1.339109,574159,26298
1503.18,1.342457,570285,25920
1506.32,1.336015,565444,26084
1509.45,1.342125,560571,25498
1512.58,1.338753,555821,25479
1515.71,1.341012,550344,25097
1519.87,1.336570,543983,25062
1522.99,1.341772,538764,24526
1526.1,1.337080,533692,24559
1529.21,1.348502,527902,23662
1532.32,1.342278,521886,23730
1535.42,1.340343,515888,23562
1538.51,1.331694,509987,23761
1541.6,1.337731,503936,23155
1545.72,1.336669,494694,22786
1548.8,1.336651,488378,22496
1551.88,1.335039,481832,22277
1554.95,1.347754,474989,21327
1558.02,1.333497,467818,21706
1561.08,1.341103,460730,21006
1564.15,1.339322,454170,20792
1568.22,1.342187,444181,20201
1571.27,1.342493,436947,19858
1574.32,1.343273,429598,19489
1577.36,1.336366,422039,19453
1580.4,1.333731,414375,19216
1583.43,1.326781,406354,19148
1586.46,1.339924,398475,18217
1590.49,1.329381,388982,18220
1593.51,1.337355,380708,17508
1596.53,1.339386,372727,17061
1599.54,1.326735,365060,17204
1602.55,1.337929,357543,16421
1605.55,1.326958,349495,16462
1608.55,1.327043,341154,16066
1612.54,1.329952,330877,15478
1615.53,1.333939,322904,14967
1618.51,1.318718,315116,15127
1621.49,1.328299,307217,14426
1624.47,1.325398,299481,14157
1627.44,1.341926,292112,13293
1630.41,1.327984,284245,13357
1634.36,1.318323,274079,13169
1637.32,1.318893,266916,12808
1640.27,1.332941,259612,12061
1643.22,1.330618,251804,11761
1646.16,1.322616,244348,11625
1649.1,1.311847,236703,11544
1652.04,1.324154,228171,10817
1655.95,1.321142,215408,10283
1658.88,1.343231,204937,9298
1661.8,1.335351,193395,8935
1664.72,1.336323,179728,8285
1667.63,1.337908,163642,7516
1670.54,1.344225,146312,6623
1673.44,1.384462,128451,5300
1677.31,1.343093,105080,4769
1680.21,1.386757,88906,3649
1683.1,1.323558,75033,3562
1685.99,1.360274,63520,2771
1688.87,1.391432,53714,2181
1691.75,1.315667,45653,2207
1694.62,1.383609,39137,1618
1697.49,1.345338,33776,1525
1701.31,1.530786,28175,830