Folder: textile_sorting_NIRSCAN_/samples/unknown (part 6)

File: Column 1_078033_20241121_164212.csv
Method:,Column 1,,
Host Date-Time:,21/11/24 @ 16:42:12,,
Header Version:,1,,
System Temp (C):,30.25,,
Detector Temp (C):,25.12,,
Humidity (%):,6.04,,
Lamp PD:,3812,,
Shift Vector Coefficients:,-10.5391,0.0761263,-0.000134223,,
Pixel to Wavelength Coefficients:,1775.68,-0.916766,-0.000235065,,
Serial Number:,5510004,,
Scan Config Name:,Column 1,,
Scan Config Type:,Slew,,
Section 1,,
Start wavelength (nm):,900,,
End wavelength (nm):,1700,,
Pattern Pixel Width (nm):,   7.03,,,,
Exposure (ms):,  0.635,,,,
Digital Resolution:,228,,
Num Repeats:,6,,
PGA Gain:,64,,
Total Measurement Time in sec:,  2.707,,
Wavelength (nm),Absorbance (AU),Reference Signal (unitless),Sample Signal (unitless)
901.51,1.303620,108485,5392
905.376,1.286338,121306,6274
909.237,1.319077,131909,6327
913.095,1.293933,143299,7283
916.948,1.300262,156982,7863
922.079,1.307197,179937,8870
925.923,1.307718,200504,9872
929.762,1.298851,222660,11189
933.597,1.316449,244426,11795
937.427,1.323468,263972,12534
941.254,1.306621,281845,13912
945.076,1.308859,297271,14598
950.165,1.312640,315605,15364
953.978,1.304952,328029,16254
957.786,1.305840,340470,16836
961.59,1.305885,352317,17420
965.389,1.306369,363056,17931
969.185,1.306231,373162,18436
972.976,1.306618,382632,18887
976.763,1.300721,391202,19574
981.806,1.308219,400190,19681
985.583,1.304927,406088,20123
989.355,1.309630,410162,20106
993.124,1.311622,412868,20146
996.888,1.309973,414263,20291
1000.65,1.307916,415476,20447
1004.4,1.313843,415479,20170
1009.41,1.313014,414358,20154
1013.15,1.312781,412923,20095
1016.89,1.304129,411526,20430
1020.63,1.305025,409066,20266
1024.36,1.305383,406777,20136
1028.09,1.311801,404427,19726
1031.82,1.306479,401911,19845
1036.78,1.317391,398410,19184
1040.49,1.304247,396204,19664
1044.2,1.298718,394236,19817
1047.91,1.307281,392042,19322
1051.61,1.311474,389823,19028
1055.31,1.307992,388234,19103
1059,1.305014,387599,19203
1063.92,1.314290,386688,18753
1067.61,1.310752,386598,18902
1071.29,1.313330,387377,18828
1074.96,1.307762,388536,19128
1078.63,1.306134,389855,19265
1082.3,1.317242,391215,18844
1085.96,1.305398,393215,19464
1090.84,1.317072,396270,19095
1094.49,1.305607,398760,19729
1098.14,1.320123,400987,19187
1101.79,1.312412,403477,19652
1105.43,1.316926,406116,19576
1109.06,1.319929,407701,19517
1112.7,1.311496,409859,20005
1117.53,1.312697,412494,20078
1121.15,1.311936,414909,20231
1124.77,1.324285,416559,19742
1128.38,1.314297,418532,20297
1131.99,1.324394,419956,19898
1135.6,1.322753,421946,20068
1139.2,1.322990,423881,20149
1143.99,1.320303,426786,20413
1147.58,1.318708,428617,20576
1151.17,1.316751,431169,20792
1154.75,1.321455,433579,20683
1158.33,1.321102,436264,20828
1161.91,1.320521,439132,20993
1165.48,1.318650,442389,21240
1169.04,1.313394,446101,21679
1173.79,1.318230,451929,21719
1177.34,1.322810,456026,21686
1180.9,1.317988,461306,22182
1184.44,1.318498,467657,22461
1187.99,1.317663,473969,22808
1191.52,1.326024,479856,22651
1195.06,1.308464,487372,23955
1199.76,1.322755,497347,23654
1203.29,1.320681,504311,24100
1206.81,1.315698,511507,24726
1210.33,1.315853,519078,25083
1213.84,1.321269,527163,25158
1217.35,1.333802,534208,24769
1220.85,1.323703,540472,25649
1225.51,1.326236,549929,25946
1229.01,1.323851,556888,26419
1232.5,1.312966,562180,27347
1235.98,1.325579,567975,26838
1239.46,1.318383,574815,27615
1242.94,1.319824,582782,27905
1246.41,1.323788,591476,28064
1251.03,1.322667,604016,28733
1254.5,1.326269,612289,28886
1257.96,1.323904,619125,29368
1261.41,1.331302,624551,29125
1264.86,1.328391,629900,29572
1268.31,1.321370,634345,30266
1271.75,1.326558,638574,30106
1276.33,1.331679,642499,29936
1279.76,1.322168,645905,30761
1283.19,1.332061,648307,30180
1286.61,1.327504,650446,30599
1290.03,1.327353,652132,30689
1293.44,1.332357,653907,30420
1296.85,1.322989,655963,31181
1301.39,1.332572,657349,30565
1304.8,1.332582,657558,30574
1308.19,1.332631,658515,30615
1311.58,1.323489,658804,31280
1314.97,1.335519,659011,30435
1318.36,1.329559,658272,30821
1321.73,1.333300,658022,30545
1326.23,1.327774,657870,30929
1329.6,1.329067,656482,30772
1332.97,1.332562,654926,30453
1336.33,1.331795,653727,30451
1339.69,1.331148,652497,30439
1343.04,1.327432,649913,30579
1346.39,1.332010,647671,30154
1349.73,1.332695,645338,29998
1354.18,1.330638,641175,29946
1357.52,1.329071,638376,29923
1360.85,1.325378,635805,30057
1364.17,1.326888,633413,29840
1367.49,1.329181,631026,29571
1370.81,1.335896,628050,28980
1374.12,1.330744,625034,29185
1378.54,1.333582,620272,28774
1381.84,1.325705,616892,29141
1385.14,1.326456,613613,28936
1388.43,1.326359,611526,28844
1391.72,1.326093,610663,28821
1395.01,1.332554,610634,28394
1398.29,1.326408,611700,28849
1402.66,1.334153,614051,28448
1405.93,1.323599,616268,29253
1409.2,1.332146,617795,28754
1412.46,1.327081,618872,29142
1415.72,1.320839,619795,29608
1418.98,1.328696,620495,29110
1422.23,1.327472,621087,29220
1426.56,1.334746,621375,28748
1429.8,1.331364,621616,28984
1433.04,1.332817,622129,28911
1436.27,1.332456,621526,28907
1439.5,1.332528,621113,28883
1442.72,1.326436,620921,29282
1445.94,1.329853,620270,29022
1450.23,1.335819,618860,28561
1453.44,1.335306,617697,28541
1456.64,1.335227,616264,28480
1459.85,1.335387,614413,28384
1463.04,1.325681,612307,28926
1466.24,1.329564,610032,28562
1469.43,1.337925,607345,27894
1473.67,1.330636,603789,28200
1476.85,1.333303,601175,27906
1480.02,1.333216,597737,27752
1483.19,1.333952,594479,27554
1486.36,1.331195,591232,27578
1489.52,1.338339,587853,26973
1492.68,1.332982,583875,27123
1496.89,1.337648,578062,26566
1500.03,1.331124,574159,26786
1503.18,1.357822,570285,25019
1506.32,1.336165,565444,26075
1509.45,1.338005,560571,25741
1512.58,1.336967,555821,25584
1515.71,1.340701,550344,25115
1519.87,1.335808,543983,25106
1522.99,1.342445,538764,24488
1526.1,1.332366,533692,24827
1529.21,1.338451,527902,24216
1532.32,1.331148,521886,24346
1535.42,1.332543,515888,23989
1538.51,1.335605,509987,23548
1541.6,1.337468,503936,23169
1545.72,1.338273,494694,22702
1548.8,1.339906,488378,22328
1551.88,1.336719,481832,22191
1554.95,1.331486,474989,22141
1558.02,1.333357,467818,21713
1561.08,1.337787,460730,21167
1564.15,1.334648,454170,21017
1568.22,1.336400,444181,20472
1571.27,1.330224,436947,20427
1574.32,1.339722,429598,19649
1577.36,1.331548,422039,19670
1580.4,1.332647,414375,19264
1583.43,1.332489,406354,18898
1586.46,1.334287,398475,18455
1590.49,1.330814,388982,18160
1593.51,1.328759,380708,17858
1596.53,1.331241,372727,17384
1599.54,1.330563,365060,17053
1602.55,1.331262,357543,16675
1605.55,1.329870,349495,16352
1608.55,1.339687,341154,15605
1612.54,1.316389,330877,15969
1615.53,1.316701,322904,15573
1618.51,1.315485,315116,15240
1621.49,1.324135,307217,14565
1624.47,1.317494,299481,14417
1627.44,1.322191,292112,13911
1630.41,1.319229,284245,13629
1634.36,1.313469,274079,13317
1637.32,1.337424,266916,12273
1640.27,1.332150,259612,12083
1643.22,1.317273,251804,12128
1646.16,1.302183,244348,12185
1649.1,1.305944,236703,11702
1652.04,1.305720,228171,11286
1655.95,1.306933,215408,10625
1658.88,1.311273,204937,10008
1661.8,1.314937,193395,9365
1664.72,1.309936,179728,8804
1667.63,1.317975,163642,7869
1670.54,1.355586,146312,6452
1673.44,1.333127,128451,5965
1677.31,1.326038,105080,4960
1680.21,1.257231,88906,4917
1683.1,1.267261,75033,4055
1685.99,1.343820,63520,2878
1688.87,1.195173,53714,3427
1691.75,1.393944,45653,1843
1694.62,1.259140,39137,2155
1697.49,1.198601,33776,2138
1701.31,1.379087,28175,1177

File: Column 1_078035_20241121_164218.csv
Method:,Column 1,,
Host Date-Time:,21/11/24 @ 16:42:18,,
Header Version:,1,,
System Temp (C):,30.31,,
Detector Temp (C):,25.19,,
Humidity (%):,5.95,,
Lamp PD:,3811,,
Shift Vector Coefficients:,-10.5391,0.0761263,-0.000134223,,
Pixel to Wavelength Coefficients:,1775.68,-0.916766,-0.000235065,,
Serial Number:,5510004,,
Scan Config Name:,Column 1,,
Scan Config Type:,Slew,,
Section 1,,
Start wavelength (nm):,900,,
End wavelength (nm):,1700,,
Pattern Pixel Width (nm):,   7.03,,,,
Exposure (ms):,  0.635,,,,
Digital Resolution:,228,,
Num Repeats:,6,,
PGA Gain:,64,,
Total Measurement Time in sec:,  2.707,,
Wavelength (nm),Absorbance (AU),Reference Signal (unitless),Sample Signal (unitless)
901.51,1.309050,108485,5325
905.376,1.313472,121306,5894
909.237,1.332389,131909,6136
913.095,1.316451,143299,6915
916.948,1.300151,156982,7865
922.079,1.300637,179937,9005
925.923,1.300692,200504,10033
929.762,1.309499,222660,10918
933.597,1.313039,244426,11888
937.427,1.311575,263972,12882
941.254,1.321450,281845,13445
945.076,1.300083,297271,14896
950.165,1.315589,315605,15260
953.978,1.311575,328029,16008
957.786,1.307805,340470,16760
961.59,1.303945,352317,17498
965.389,1.309432,363056,17805
969.185,1.303436,373162,18555
972.976,1.308924,382632,18787
976.763,1.318197,391202,18802
981.806,1.305908,400190,19786
985.583,1.306657,406088,20043
989.355,1.309392,410162,20117
993.124,1.315020,412868,19989
996.888,1.304824,414263,20533
1000.65,1.306411,415476,20518
1004.4,1.316218,415479,20060
1009.41,1.307554,414358,20409
1013.15,1.302867,412923,20559
1016.89,1.310208,411526,20146
1020.63,1.313945,409066,19854
1024.36,1.310307,406777,19909
1028.09,1.312330,404427,19702
1031.82,1.308431,401911,19756
1036.78,1.310987,398410,19469
1040.49,1.314324,396204,19213
1044.2,1.308784,394236,19363
1047.91,1.312436,392042,19094
1051.61,1.313809,389823,18926
1055.31,1.317926,388234,18671
1059,1.313233,387599,18843
1063.92,1.315705,386688,18692
1067.61,1.317093,386598,18628
1071.29,1.313745,387377,18810
1074.96,1.312717,388536,18911
1078.63,1.317647,389855,18761
1082.3,1.314325,391215,18971
1085.96,1.320911,393215,18781
1090.84,1.318096,396270,19050
1094.49,1.314255,398760,19340
1098.14,1.312673,400987,19519
1101.79,1.316364,403477,19474
1105.43,1.322149,406116,19342
1109.06,1.320575,407701,19488
1112.7,1.316211,409859,19789
1117.53,1.320973,412494,19699
1121.15,1.319340,414909,19889
1124.77,1.321282,416559,19879
1128.38,1.323509,418532,19871
1131.99,1.323021,419956,19961
1135.6,1.316842,421946,20343
1139.2,1.317635,423881,20399
1143.99,1.321262,426786,20368
1147.58,1.319554,428617,20536
1151.17,1.315375,431169,20858
1154.75,1.320385,433579,20734
1158.33,1.324577,436264,20662
1161.91,1.318395,439132,21096
1165.48,1.322759,442389,21040
1169.04,1.328498,446101,20938
1173.79,1.322773,451929,21493
1177.34,1.319677,456026,21843
1180.9,1.316698,461306,22248
1184.44,1.320553,467657,22355
1187.99,1.316541,473969,22867
1191.52,1.317988,479856,23074
1195.06,1.323741,487372,23127
1199.76,1.320283,497347,23789
1203.29,1.319440,504311,24169
1206.81,1.323031,511507,24312
1210.33,1.324333,519078,24598
1213.84,1.325676,527163,24904
1217.35,1.320949,534208,25513
1220.85,1.323770,540472,25645
1225.51,1.323034,549929,26138
1229.01,1.328612,556888,26131
1232.5,1.330167,562180,26285
1235.98,1.326892,567975,26757
1239.46,1.324831,574815,27208
1242.94,1.331273,582782,27179
1246.41,1.327955,591476,27796
1251.03,1.326356,604016,28490
1254.5,1.324753,612289,28987
1257.96,1.323283,619125,29410
1261.41,1.328197,624551,29334
1264.86,1.324225,629900,29857
1268.31,1.329043,634345,29736
1271.75,1.327598,638574,30034
1276.33,1.323089,642499,30534
1279.76,1.333366,645905,29978
1283.19,1.335805,648307,29921
1286.61,1.333449,650446,30183
1290.03,1.328018,652132,30642
1293.44,1.339177,653907,29946
1296.85,1.331584,655963,30570
1301.39,1.338970,657349,30118
1304.8,1.333221,657558,30529
1308.19,1.330749,658515,30748
1311.58,1.330840,658804,30755
1314.97,1.331740,659011,30701
1318.36,1.331890,658272,30656
1321.73,1.336067,658022,30351
1326.23,1.330874,657870,30709
1329.6,1.329674,656482,30729
1332.97,1.339143,654926,29995
1336.33,1.339203,653727,29936
1339.69,1.334385,652497,30213
1343.04,1.332144,649913,30249
1346.39,1.332067,647671,30150
1349.73,1.326129,645338,30455
1354.18,1.330188,641175,29977
1357.52,1.336537,638376,29413
1360.85,1.333620,635805,29492
1364.17,1.331747,633413,29508
1367.49,1.326721,631026,29739
1370.81,1.328629,628050,29469
1374.12,1.329422,625034,29274
1378.54,1.328152,620272,29136
1381.84,1.330199,616892,28841
1385.14,1.335005,613613,28372
1388.43,1.329730,611526,28621
1391.72,1.333065,610663,28362
1395.01,1.330221,610634,28547
1398.29,1.328082,611700,28738
1402.66,1.330868,614051,28664
1405.93,1.334361,616268,28537
1409.2,1.331950,617795,28767
1412.46,1.337198,618872,28471
1415.72,1.335776,619795,28607
1418.98,1.333980,620495,28758
1422.23,1.335800,621087,28665
1426.56,1.336244,621375,28649
1429.8,1.333376,621616,28850
1433.04,1.339859,622129,28446
1436.27,1.332682,621526,28892
1439.5,1.339562,621113,28419
1442.72,1.335412,620921,28683
1445.94,1.334049,620270,28743
1450.23,1.337541,618860,28448
1453.44,1.341343,617697,28147
1456.64,1.336632,616264,28388
1459.85,1.337150,614413,28269
1463.04,1.332444,612307,28479
1466.24,1.335751,610032,28158
1469.43,1.334760,607345,28098
1473.67,1.336528,603789,27820
1476.85,1.338060,601175,27602
1480.02,1.338474,597737,27418
1483.19,1.341087,594479,27105
1486.36,1.336089,591232,27269
1489.52,1.337230,587853,27042
1492.68,1.342894,583875,26511
1496.89,1.340897,578062,26368
1500.03,1.338169,574159,26355
1503.18,1.339235,570285,26113
1506.32,1.343827,565444,25619
1509.45,1.338681,560571,25701
1512.58,1.336933,555821,25586
1515.71,1.343738,550344,24940
1519.87,1.342186,543983,24740
1522.99,1.335635,538764,24875
1526.1,1.338196,533692,24496
1529.21,1.342360,527902,23999
1532.32,1.344848,521886,23590
1535.42,1.339864,515888,23588
1538.51,1.338436,509987,23395
1541.6,1.339234,503936,23075
1545.72,1.336707,494694,22784
1548.8,1.338780,488378,22386
1551.88,1.332977,481832,22383
1554.95,1.341727,474989,21625
1558.02,1.335583,467818,21602
1561.08,1.335291,460730,21289
1564.15,1.340179,454170,20751
1568.22,1.331024,444181,20727
1571.27,1.335895,436947,20162
1574.32,1.340718,429598,19604
1577.36,1.334250,422039,19548
1580.4,1.334205,414375,19195
1583.43,1.334331,406354,18818
1586.46,1.339138,398475,18250
1590.49,1.335454,388982,17967
1593.51,1.329587,380708,17824
1596.53,1.330093,372727,17430
1599.54,1.336487,365060,16822
1602.55,1.330898,357543,16689
1605.55,1.333283,349495,16224
1608.55,1.325047,341154,16140
1612.54,1.331864,330877,15410
1615.53,1.319976,322904,15456
1618.51,1.323452,315116,14963
1621.49,1.334301,307217,14228
1624.47,1.323745,299481,14211
1627.44,1.324194,292112,13847
1630.41,1.334932,284245,13145
1634.36,1.317269,274079,13201
1637.32,1.336999,266916,12285
1640.27,1.332941,259612,12061
1643.22,1.337955,251804,11564
1646.16,1.325690,244348,11543
1649.1,1.328763,236703,11103
1652.04,1.326933,228171,10748
1655.95,1.315227,215408,10424
1658.88,1.333851,204937,9501
1661.8,1.314984,193395,9364
1664.72,1.340431,179728,8207
1667.63,1.328307,163642,7684
1670.54,1.346065,146312,6595
1673.44,1.339656,128451,5876
1677.31,1.308786,105080,5161
1680.21,1.333402,88906,4126
1683.1,1.371053,75033,3193
1685.99,1.354978,63520,2805
1688.87,1.402320,53714,2127
1691.75,1.266772,45653,2470
1694.62,1.306580,39137,1932
1697.49,1.334649,33776,1563
1701.31,1.394868,28175,1135

File: Column 1_078037_20241121_164223.csv
Method:,Column 1,,
Host Date-Time:,21/11/24 @ 16:42:23,,
Header Version:,1,,
System Temp (C):,30.43,,
Detector Temp (C):,25.22,,
Humidity (%):,5.85,,
Lamp PD:,3811,,
Shift Vector Coefficients:,-10.5391,0.0761263,-0.000134223,,
Pixel to Wavelength Coefficients:,1775.68,-0.916766,-0.000235065,,
Serial Number:,5510004,,
Scan Config Name:,Column 1,,
Scan Config Type:,Slew,,
Section 1,,
Start wavelength (nm):,900,,
End wavelength (nm):,1700,,
Pattern Pixel Width (nm):,   7.03,,,,
Exposure (ms):,  0.635,,,,
Digital Resolution:,228,,
Num Repeats:,6,,
PGA Gain:,64,,
Total Measurement Time in sec:,  2.708,,
Wavelength (nm),Absorbance (AU),Reference Signal (unitless),Sample Signal (unitless)
901.51,1.325761,108485,5124
905.376,1.294090,121306,6163
909.237,1.299220,131909,6623
913.095,1.315134,143299,6936
916.948,1.299654,156982,7874
922.079,1.324783,179937,8518
925.923,1.300562,200504,10036
929.762,1.299006,222660,11185
933.597,1.323764,244426,11598
937.427,1.318233,263972,12686
941.254,1.316759,281845,13591
945.076,1.324612,297271,14078
950.165,1.308112,315605,15525
953.978,1.315089,328029,15879
957.786,1.307390,340470,16776
961.59,1.310346,352317,17242
965.389,1.304098,363056,18025
969.185,1.310968,373162,18236
972.976,1.318767,382632,18366
976.763,1.311754,391202,19083
981.806,1.308396,400190,19673
985.583,1.310051,406088,19887
989.355,1.315086,410162,19855
993.124,1.304163,412868,20495
996.888,1.313001,414263,20150
1000.65,1.311221,415476,20292
1004.4,1.314425,415479,20143
1009.41,1.304987,414358,20530
1013.15,1.309251,412923,20259
1016.89,1.315064,411526,19922
1020.63,1.307217,409066,20164
1024.36,1.310329,406777,19908
1028.09,1.310087,404427,19804
1031.82,1.304601,401911,19931
1036.78,1.304499,398410,19762
1040.49,1.309535,396204,19426
1044.2,1.312681,394236,19190
1047.91,1.316411,392042,18920
1051.61,1.317033,389823,18786
1055.31,1.311759,388234,18938
1059,1.308260,387599,19060
1063.92,1.311129,386688,18890
1067.61,1.320722,386598,18473
1071.29,1.316223,387377,18703
1074.96,1.307557,388536,19137
1078.63,1.311556,389855,19026
1082.3,1.317981,391215,18812
1085.96,1.314667,393215,19053
1090.84,1.318712,396270,19023
1094.49,1.317840,398760,19181
1098.14,1.312295,400987,19536
1101.79,1.320059,403477,19309
1105.43,1.314846,406116,19670
1109.06,1.321400,407701,19451
1112.7,1.324318,409859,19423
1117.53,1.310583,412494,20176
1121.15,1.317575,414909,19970
1124.77,1.324946,416559,19712
1128.38,1.314147,418532,20304
1131.99,1.311535,419956,20496
1135.6,1.317568,421946,20309
1139.2,1.319919,423881,20292
1143.99,1.315606,426786,20635
1147.58,1.306533,428617,21161
1151.17,1.330631,431169,20138
1154.75,1.321602,433579,20676
1158.33,1.323632,436264,20707
1161.91,1.330439,439132,20519
1165.48,1.319878,442389,21180
1169.04,1.318979,446101,21402
1173.79,1.318610,451929,21700
1177.34,1.313263,456026,22168
1180.9,1.318459,461306,22158
1184.44,1.319582,467657,22405
1187.99,1.326414,473969,22353
1191.52,1.320461,479856,22943
1195.06,1.322223,487372,23208
1199.76,1.329024,497347,23315
1203.29,1.318023,504311,24248
1206.81,1.326600,511507,24113
1210.33,1.323134,519078,24666
1213.84,1.317488,527163,25378
1217.35,1.323904,534208,25340
1220.85,1.322806,540472,25702
1225.51,1.328283,549929,25824
1229.01,1.324032,556888,26408
1232.5,1.324146,562180,26652
1235.98,1.322082,567975,27055
1239.46,1.321397,574815,27424
1242.94,1.326173,582782,27500
1246.41,1.324190,591476,28038
1251.03,1.324091,604016,28639
1254.5,1.328575,612289,28733
1257.96,1.328124,619125,29084
1261.41,1.326660,624551,29438
1264.86,1.325187,629900,29791
1268.31,1.327541,634345,29839
1271.75,1.329482,638574,29904
1276.33,1.331461,642499,29951
1279.76,1.328268,645905,30332
1283.19,1.328550,648307,30425
1286.61,1.333636,650446,30170
1290.03,1.333424,652132,30263
1293.44,1.328632,653907,30682
1296.85,1.332594,655963,30499
1301.39,1.329796,657349,30761
1304.8,1.332724,657558,30564
1308.19,1.333157,658515,30578
1311.58,1.332467,658804,30640
1314.97,1.330737,659011,30772
1318.36,1.330603,658272,30747
1321.73,1.332037,658022,30634
1326.23,1.328857,657870,30852
1329.6,1.335838,656482,30296
1332.97,1.333176,654926,30410
1336.33,1.338724,653727,29969
1339.69,1.330663,652497,30473
1343.04,1.330368,649913,30373
1346.39,1.330356,647671,30269
1349.73,1.331957,645338,30049
1354.18,1.328843,641175,30070
1357.52,1.331196,638376,29777
1360.85,1.325725,635805,30033
1364.17,1.331159,633413,29548
1367.49,1.334159,631026,29234
1370.81,1.329529,628050,29408
1374.12,1.326082,625034,29500
1378.54,1.332030,620272,28877
1381.84,1.327751,616892,29004
1385.14,1.325287,613613,29014
1388.43,1.330307,611526,28583
1391.72,1.330241,610663,28547
1395.01,1.337647,610634,28063
1398.29,1.326257,611700,28859
1402.66,1.332431,614051,28561
1405.93,1.337048,616268,28361
1409.2,1.331723,617795,28782
1412.46,1.325178,618872,29270
1415.72,1.324448,619795,29363
1418.98,1.335023,620495,28689
1422.23,1.333624,621087,28809
1426.56,1.325938,621375,29337
1429.8,1.331394,621616,28982
1433.04,1.335379,622129,28741
1436.27,1.336790,621526,28620
1439.5,1.336698,621113,28607
1442.72,1.328606,620921,29136
1445.94,1.333611,620270,28772
1450.23,1.333559,618860,28710
1453.44,1.333287,617697,28674
1456.64,1.336693,616264,28384
1459.85,1.337012,614413,28278
1463.04,1.337429,612307,28154
1466.24,1.339935,610032,27888
1469.43,1.331496,607345,28310
1473.67,1.338014,603789,27725
1476.85,1.336396,601175,27708
1480.02,1.339394,597737,27360
1483.19,1.335673,594479,27445
1486.36,1.332362,591232,27504
1489.52,1.334365,587853,27221
1492.68,1.341063,583875,26623
1496.89,1.335691,578062,26686
1500.03,1.339324,574159,26285
1503.18,1.335542,570285,26336
1506.32,1.340232,565444,25832
1509.45,1.338241,560571,25727
1512.58,1.340375,555821,25384
1515.71,1.336605,550344,25353
1519.87,1.341993,543983,24751
1522.99,1.336807,538764,24808
1526.1,1.336815,533692,24574
1529.21,1.341745,527902,24033
1532.32,1.334551,521886,24156
1535.42,1.339625,515888,23601
1538.51,1.339254,509987,23351
1541.6,1.330311,503936,23554
1545.72,1.342000,494694,22508
1548.8,1.339420,488378,22353
1551.88,1.338877,481832,22081
1554.95,1.332704,474989,22079
1558.02,1.333017,467818,21730
1561.08,1.341455,460730,20989
1564.15,1.340745,454170,20724
1568.22,1.339615,444181,20321
1571.27,1.334368,436947,20233
1574.32,1.334646,429598,19880
1577.36,1.337775,422039,19390
1580.4,1.330152,414375,19375
1583.43,1.331227,406354,18953
1586.46,1.342219,398475,18121
1590.49,1.339778,388982,17789
1593.51,1.340367,380708,17387
1596.53,1.334753,372727,17244
1599.54,1.329038,365060,17113
1602.55,1.324748,357543,16927
1605.55,1.336157,349495,16117
1608.55,1.325936,341154,16107
1612.54,1.329952,330877,15478
1615.53,1.328346,322904,15161
1618.51,1.334951,315116,14572
1621.49,1.336290,307217,14163
1624.47,1.329466,299481,14025
1627.44,1.323004,292112,13885
1630.41,1.321818,284245,13548
1634.36,1.336301,274079,12635
1637.32,1.319470,266916,12791
1640.27,1.316443,259612,12528
1643.22,1.323186,251804,11964
1646.16,1.318415,244348,11738
1649.1,1.323051,236703,11250
1652.04,1.319561,228171,10932
1655.95,1.319666,215408,10318
1658.88,1.318052,204937,9853
1661.8,1.321997,193395,9214
1664.72,1.338583,179728,8242
1667.63,1.345368,163642,7388
1670.54,1.323108,146312,6953
1673.44,1.336563,128451,5918
1677.31,1.389975,105080,4281
1680.21,1.344705,88906,4020
1683.1,1.339326,75033,3435
1685.99,1.333088,63520,2950
1688.87,1.386679,53714,2205
1691.75,1.233609,45653,2666
1694.62,1.375104,39137,1650
1697.49,1.300465,33776,1691
1701.31,1.337930,28175,1294