Folder: textile_sorting_NIRSCAN_/samples/unknown (part 4)

File: Column 1_078024_20241121_164145.csv
Method:,Column 1,,
Host Date-Time:,21/11/24 @ 16:41:45,,
Header Version:,1,,
System Temp (C):,29.92,,
Detector Temp (C):,24.98,,
Humidity (%):,6.96,,
Lamp PD:,3813,,
Shift Vector Coefficients:,-10.5391,0.0761263,-0.000134223,,
Pixel to Wavelength Coefficients:,1775.68,-0.916766,-0.000235065,,
Serial Number:,5510004,,
Scan Config Name:,Column 1,,
Scan Config Type:,Slew,,
Section 1,,
Start wavelength (nm):,900,,
End wavelength (nm):,1700,,
Pattern Pixel Width (nm):,   7.03,,,,
Exposure (ms):,  0.635,,,,
Digital Resolution:,228,,
Num Repeats:,6,,
PGA Gain:,64,,
Total Measurement Time in sec:,  2.723,,
Wavelength (nm),Absorbance (AU),Reference Signal (unitless),Sample Signal (unitless)
901.51,1.289905,108485,5565
905.376,1.302773,121306,6041
909.237,1.299089,131909,6625
913.095,1.314071,143299,6953
916.948,1.320383,156982,7507
922.079,1.327442,179937,8466
925.923,1.317596,200504,9650
929.762,1.314943,222660,10782
933.597,1.290439,244426,12523
937.427,1.309120,263972,12955
941.254,1.325245,281845,13328
945.076,1.304950,297271,14730
950.165,1.314964,315605,15282
953.978,1.321398,328029,15650
957.786,1.295441,340470,17244
961.59,1.309013,352317,17295
965.389,1.308725,363056,17834
969.185,1.303835,373162,18538
972.976,1.310986,382632,18698
976.763,1.295802,391202,19797
981.806,1.303544,400190,19894
985.583,1.307503,406088,20004
989.355,1.299953,410162,20559
993.124,1.303465,412868,20528
996.888,1.312011,414263,20196
1000.65,1.304089,415476,20628
1004.4,1.301196,415479,20766
1009.41,1.312691,414358,20169
1013.15,1.311335,412923,20162
1016.89,1.307287,411526,20282
1020.63,1.307454,409066,20153
1024.36,1.306982,406777,20062
1028.09,1.311031,404427,19761
1031.82,1.309862,401911,19691
1036.78,1.314593,398410,19308
1040.49,1.308152,396204,19488
1044.2,1.311529,394236,19241
1047.91,1.315494,392042,18960
1051.61,1.314199,389823,18909
1055.31,1.306562,388234,19166
1059,1.306010,387599,19159
1063.92,1.304218,386688,19193
1067.61,1.309765,386598,18945
1071.29,1.314161,387377,18792
1074.96,1.318636,388536,18655
1078.63,1.307150,389855,19220
1082.3,1.323721,391215,18565
1085.96,1.311465,393215,19194
1090.84,1.312974,396270,19276
1094.49,1.305562,398760,19731
1098.14,1.324377,400987,19000
1101.79,1.318107,403477,19396
1105.43,1.316372,406116,19601
1109.06,1.315765,407701,19705
1112.7,1.318058,409859,19705
1117.53,1.314127,412494,20012
1121.15,1.315795,414909,20052
1124.77,1.321085,416559,19888
1128.38,1.320829,418532,19994
1131.99,1.321913,419956,20012
1135.6,1.311812,421946,20580
1139.2,1.307472,423881,20882
1143.99,1.326280,426786,20134
1147.58,1.322759,428617,20385
1151.17,1.313982,431169,20925
1154.75,1.319862,433579,20759
1158.33,1.323213,436264,20727
1161.91,1.322345,439132,20905
1165.48,1.316813,442389,21330
1169.04,1.315523,446101,21573
1173.79,1.318811,451929,21690
1177.34,1.322630,456026,21695
1180.9,1.320994,461306,22029
1184.44,1.318170,467657,22478
1187.99,1.320950,473969,22636
1191.52,1.317706,479856,23089
1195.06,1.324662,487372,23078
1199.76,1.314426,497347,24112
1203.29,1.318453,504311,24224
1206.81,1.320928,511507,24430
1210.33,1.323310,519078,24656
1213.84,1.322254,527163,25101
1217.35,1.324899,534208,25282
1220.85,1.321069,540472,25805
1225.51,1.320021,549929,26320
1229.01,1.327948,556888,26171
1232.5,1.320834,562180,26856
1235.98,1.317102,567975,27367
1239.46,1.327795,574815,27023
1242.94,1.326647,582782,27470
1246.41,1.327830,591476,27804
1251.03,1.314848,604016,29255
1254.5,1.324948,612289,28974
1257.96,1.326247,619125,29210
1261.41,1.332048,624551,29075
1264.86,1.327100,629900,29660
1268.31,1.329876,634345,29679
1271.75,1.329584,638574,29897
1276.33,1.330664,642499,30006
1279.76,1.329343,645905,30257
1283.19,1.326499,648307,30569
1286.61,1.327859,650446,30574
1290.03,1.333223,652132,30277
1293.44,1.329071,653907,30651
1296.85,1.328441,655963,30792
1301.39,1.337229,657349,30239
1304.8,1.331277,657558,30666
1308.19,1.329170,658515,30860
1311.58,1.327240,658804,31011
1314.97,1.333597,659011,30570
1318.36,1.327731,658272,30951
1321.73,1.323460,658022,31245
1326.23,1.333627,657870,30515
1329.6,1.336857,656482,30225
1332.97,1.330301,654926,30612
1336.33,1.332237,653727,30420
1339.69,1.330165,652497,30508
1343.04,1.330611,649913,30356
1346.39,1.329053,647671,30360
1349.73,1.328832,645338,30266
1354.18,1.329841,641175,30001
1357.52,1.329071,638376,29923
1360.85,1.325566,635805,30044
1364.17,1.322861,633413,30118
1367.49,1.327072,631026,29715
1370.81,1.329736,628050,29394
1374.12,1.329377,625034,29277
1378.54,1.328659,620272,29102
1381.84,1.332373,616892,28697
1385.14,1.329604,613613,28727
1388.43,1.325743,611526,28885
1391.72,1.324033,610663,28958
1395.01,1.333182,610634,28353
1398.29,1.330233,611700,28596
1402.66,1.329385,614051,28762
1405.93,1.335016,616268,28494
1409.2,1.340272,617795,28221
1412.46,1.327782,618872,29095
1415.72,1.328893,619795,29064
1418.98,1.327073,620495,29219
1422.23,1.325530,621087,29351
1426.56,1.329506,621375,29097
1429.8,1.338997,621616,28479
1433.04,1.335031,622129,28764
1436.27,1.337564,621526,28569
1439.5,1.334578,621113,28747
1442.72,1.335927,620921,28649
1445.94,1.334381,620270,28721
1450.23,1.327938,618860,29084
1453.44,1.339388,617697,28274
1456.64,1.336770,616264,28379
1459.85,1.337626,614413,28238
1463.04,1.336720,612307,28200
1466.24,1.335797,610032,28155
1469.43,1.333402,607345,28186
1473.67,1.342628,603789,27432
1476.85,1.331068,601175,28050
1480.02,1.334532,597737,27668
1483.19,1.337227,594479,27347
1486.36,1.334372,591232,27377
1489.52,1.336187,587853,27107
1492.68,1.331767,583875,27199
1496.89,1.337926,578062,26549
1500.03,1.346454,574159,25857
1503.18,1.335559,570285,26335
1506.32,1.335882,565444,26092
1509.45,1.337971,560571,25743
1512.58,1.342897,555821,25237
1515.71,1.338631,550344,25235
1519.87,1.338654,543983,24942
1522.99,1.342445,538764,24488
1526.1,1.344104,533692,24165
1529.21,1.334310,527902,24448
1532.32,1.332774,521886,24255
1535.42,1.343637,515888,23384
1538.51,1.341790,509987,23215
1541.6,1.340157,503936,23026
1545.72,1.344030,494694,22403
1548.8,1.340451,488378,22300
1551.88,1.338032,481832,22124
1554.95,1.337351,474989,21844
1558.02,1.348478,467818,20970
1561.08,1.339432,460730,21087
1564.15,1.337800,454170,20865
1568.22,1.335531,444181,20513
1571.27,1.340442,436947,19952
1574.32,1.324690,429598,20341
1577.36,1.337238,422039,19414
1580.4,1.335747,414375,19127
1583.43,1.339345,406354,18602
1586.46,1.340855,398475,18178
1590.49,1.335212,388982,17977
1593.51,1.337008,380708,17522
1596.53,1.318320,372727,17909
1599.54,1.328632,365060,17129
1602.55,1.327580,357543,16817
1605.55,1.323124,349495,16608
1608.55,1.330653,341154,15933
1612.54,1.332287,330877,15395
1615.53,1.326630,322904,15221
1618.51,1.332633,315116,14650
1621.49,1.331715,307217,14313
1624.47,1.330955,299481,13977
1627.44,1.313751,292112,14184
1630.41,1.324906,284245,13452
1634.36,1.326680,274079,12918
1637.32,1.309136,266916,13099
1640.27,1.338851,259612,11898
1643.22,1.310840,251804,12309
1646.16,1.318896,244348,11725
1649.1,1.326228,236703,11168
1652.04,1.324154,228171,10817
1655.95,1.303919,215408,10699
1658.88,1.330754,204937,9569
1661.8,1.325024,193395,9150
1664.72,1.332981,179728,8349
1667.63,1.343959,163642,7412
1670.54,1.358083,146312,6415
1673.44,1.362493,128451,5575
1677.31,1.312420,105080,5118
1680.21,1.321668,88906,4239
1683.1,1.395533,75033,3018
1685.99,1.335154,63520,2936
1688.87,1.295199,53714,2722
1691.75,1.370773,45653,1944
1694.62,1.390099,39137,1594
1697.49,1.253297,33776,1885
1701.31,1.473973,28175,946

File: Column 1_078025_20241121_164148.csv
Method:,Column 1,,
Host Date-Time:,21/11/24 @ 16:41:48,,
Header Version:,1,,
System Temp (C):,29.97,,
Detector Temp (C):,24.98,,
Humidity (%):,6.87,,
Lamp PD:,3813,,
Shift Vector Coefficients:,-10.5391,0.0761263,-0.000134223,,
Pixel to Wavelength Coefficients:,1775.68,-0.916766,-0.000235065,,
Serial Number:,5510004,,
Scan Config Name:,Column 1,,
Scan Config Type:,Slew,,
Section 1,,
Start wavelength (nm):,900,,
End wavelength (nm):,1700,,
Pattern Pixel Width (nm):,   7.03,,,,
Exposure (ms):,  0.635,,,,
Digital Resolution:,228,,
Num Repeats:,6,,
PGA Gain:,64,,
Total Measurement Time in sec:,  2.708,,
Wavelength (nm),Absorbance (AU),Reference Signal (unitless),Sample Signal (unitless)
901.51,1.307991,108485,5338
905.376,1.311194,121306,5925
909.237,1.314027,131909,6401
913.095,1.292563,143299,7306
916.948,1.279765,156982,8243
922.079,1.291097,179937,9205
925.923,1.300130,200504,10046
929.762,1.307752,222660,10962
933.597,1.297255,244426,12328
937.427,1.314993,263972,12781
941.254,1.313702,281845,13687
945.076,1.303801,297271,14769
950.165,1.314878,315605,15285
953.978,1.300037,328029,16439
957.786,1.302013,340470,16985
961.59,1.308988,352317,17296
965.389,1.310996,363056,17741
969.185,1.310754,373162,18245
972.976,1.296797,382632,19319
976.763,1.306439,391202,19318
981.806,1.311008,400190,19555
985.583,1.309462,406088,19914
989.355,1.309500,410162,20112
993.124,1.306245,412868,20397
996.888,1.309224,414263,20326
1000.65,1.313711,415476,20176
1004.4,1.310861,415479,20309
1009.41,1.308257,414358,20376
1013.15,1.304476,412923,20483
1016.89,1.305236,411526,20378
1020.63,1.310177,409066,20027
1024.36,1.307697,406777,20029
1028.09,1.307943,404427,19902
1031.82,1.307070,401911,19818
1036.78,1.307321,398410,19634
1040.49,1.314030,396204,19226
1044.2,1.312432,394236,19201
1047.91,1.306764,392042,19345
1051.61,1.310972,389823,19050
1055.31,1.313230,388234,18874
1059,1.317029,387599,18679
1063.92,1.313573,386688,18784
1067.61,1.309605,386598,18952
1071.29,1.310869,387377,18935
1074.96,1.320269,388536,18585
1078.63,1.311578,389855,19025
1082.3,1.318905,391215,18772
1085.96,1.316677,393215,18965
1090.84,1.316481,396270,19121
1094.49,1.317116,398760,19213
1098.14,1.312695,400987,19518
1101.79,1.324149,403477,19128
1105.43,1.316062,406116,19615
1109.06,1.315347,407701,19724
1112.7,1.317177,409859,19745
1117.53,1.318161,412494,19827
1121.15,1.312946,414909,20184
1124.77,1.312780,416559,20272
1128.38,1.320438,418532,20012
1131.99,1.322130,419956,20002
1135.6,1.317077,421946,20332
1139.2,1.324870,423881,20062
1143.99,1.327706,426786,20068
1147.58,1.327837,428617,20148
1151.17,1.320822,431169,20598
1154.75,1.321581,433579,20677
1158.33,1.312329,436264,21253
1161.91,1.313218,439132,21349
1165.48,1.316101,442389,21365
1169.04,1.313494,446101,21674
1173.79,1.318851,451929,21688
1177.34,1.319101,456026,21872
1180.9,1.321428,461306,22007
1184.44,1.315838,467657,22599
1187.99,1.321353,473969,22615
1191.52,1.321143,479856,22907
1195.06,1.317459,487372,23464
1199.76,1.318934,497347,23863
1203.29,1.316021,504311,24360
1206.81,1.323835,511507,24267
1210.33,1.322659,519078,24693
1213.84,1.318138,527163,25340
1217.35,1.321869,534208,25459
1220.85,1.323906,540472,25637
1225.51,1.325333,549929,26000
1229.01,1.323178,556888,26460
1232.5,1.322682,562180,26742
1235.98,1.325935,567975,26816
1239.46,1.319769,574815,27527
1242.94,1.324975,582782,27576
1246.41,1.330556,591476,27630
1251.03,1.323363,604016,28687
1254.5,1.323960,612289,29040
1257.96,1.328139,619125,29083
1261.41,1.325172,624551,29539
1264.86,1.324051,629900,29869
1268.31,1.329277,634345,29720
1271.75,1.326775,638574,30091
1276.33,1.330158,642499,30041
1279.76,1.336054,645905,29793
1283.19,1.333792,648307,30060
1286.61,1.328356,650446,30539
1290.03,1.332793,652132,30307
1293.44,1.334647,653907,30260
1296.85,1.332565,655963,30501
1301.39,1.329894,657349,30754
1304.8,1.328158,657558,30887
1308.19,1.336350,658515,30354
1311.58,1.331519,658804,30707
1314.97,1.333896,659011,30549
1318.36,1.327829,658272,30944
1321.73,1.332193,658022,30623
1326.23,1.339776,657870,30086
1329.6,1.328588,656482,30806
1332.97,1.331565,654926,30523
1336.33,1.331609,653727,30464
1339.69,1.333165,652497,30298
1343.04,1.336140,649913,29972
1346.39,1.329854,647671,30304
1349.73,1.334421,645338,29879
1354.18,1.330913,641175,29927
1357.52,1.327565,638376,30027
1360.85,1.329166,635805,29796
1364.17,1.330029,633413,29625
1367.49,1.330770,631026,29463
1370.81,1.326864,628050,29589
1374.12,1.330893,625034,29175
1378.54,1.328033,620272,29144
1381.84,1.322468,616892,29359
1385.14,1.325347,613613,29010
1388.43,1.329412,611526,28642
1391.72,1.326967,610663,28763
1395.01,1.326313,610634,28805
1398.29,1.330081,611700,28606
1402.66,1.332097,614051,28583
1405.93,1.330166,616268,28814
1409.2,1.328626,617795,28988
1412.46,1.327902,618872,29087
1415.72,1.334185,619795,28712
1418.98,1.330520,620495,28988
1422.23,1.329558,621087,29080
1426.56,1.328939,621375,29135
1429.8,1.336519,621616,28642
1433.04,1.333930,622129,28837
1436.27,1.330567,621526,29033
1439.5,1.337048,621113,28584
1442.72,1.331043,620921,28973
1445.94,1.332872,620270,28821
1450.23,1.323836,618860,29360
1453.44,1.337304,617697,28410
1456.64,1.338241,616264,28283
1459.85,1.337165,614413,28268
1463.04,1.336951,612307,28185
1466.24,1.334888,610032,28214
1469.43,1.337691,607345,27909
1473.67,1.335297,603789,27899
1476.85,1.335425,601175,27770
1480.02,1.334705,597737,27657
1483.19,1.335737,594479,27441
1486.36,1.339912,591232,27030
1489.52,1.339759,587853,26885
1492.68,1.337634,583875,26834
1496.89,1.333095,578062,26846
1500.03,1.340019,574159,26243
1503.18,1.334044,570285,26427
1506.32,1.345458,565444,25523
1509.45,1.336742,560571,25816
1512.58,1.341128,555821,25340
1515.71,1.335544,550344,25415
1519.87,1.340871,543983,24815
1522.99,1.339441,538764,24658
1526.1,1.337823,533692,24517
1529.21,1.342813,527902,23974
1532.32,1.341236,521886,23787
1535.42,1.336143,515888,23791
1538.51,1.338028,509987,23417
1541.6,1.343984,503936,22824
1545.72,1.347241,494694,22238
1548.8,1.338780,488378,22386
1551.88,1.336367,481832,22209
1554.95,1.343841,474989,21520
1558.02,1.337154,467818,21524
1561.08,1.328631,460730,21618
1564.15,1.324195,454170,21529
1568.22,1.344105,444181,20112
1571.27,1.334068,436947,20247
1574.32,1.324114,429598,20368
1577.36,1.339975,422039,19292
1580.4,1.325825,414375,19569
1583.43,1.331938,406354,18922
1586.46,1.332526,398475,18530
1590.49,1.326578,388982,18338
1593.51,1.325923,380708,17975
1596.53,1.332242,372727,17344
1599.54,1.328607,365060,17130
1602.55,1.322701,357543,17007
1605.55,1.343412,349495,15850
1608.55,1.335422,341154,15759
1612.54,1.319994,330877,15837
1615.53,1.327630,322904,15186
1618.51,1.335458,315116,14555
1621.49,1.323896,307217,14573
1624.47,1.320275,299481,14325
1627.44,1.330608,292112,13644
1630.41,1.327302,284245,13378
1634.36,1.319942,274079,13120
1637.32,1.317100,266916,12861
1640.27,1.322939,259612,12342
1643.22,1.318744,251804,12087
1646.16,1.323102,244348,11612
1649.1,1.310795,236703,11572
1652.04,1.316789,228171,11002
1655.95,1.314811,215408,10434
1658.88,1.311316,204937,10007
1661.8,1.313733,193395,9391
1664.72,1.332461,179728,8359
1667.63,1.330574,163642,7644
1670.54,1.342785,146312,6645
1673.44,1.335244,128451,5936
1677.31,1.352482,105080,4667
1680.21,1.329003,88906,4168
1683.1,1.284522,75033,3897
1685.99,1.367385,63520,2726
1688.87,1.328859,53714,2519
1691.75,1.259104,45653,2514
1694.62,1.282745,39137,2041
1697.49,1.303299,33776,1680
1701.31,1.306849,28175,1390

File: Column 1_078026_20241121_164151.csv
Method:,Column 1,,
Host Date-Time:,21/11/24 @ 16:41:51,,
Header Version:,1,,
System Temp (C):,29.95,,
Detector Temp (C):,25.05,,
Humidity (%):,6.67,,
Lamp PD:,3812,,
Shift Vector Coefficients:,-10.5391,0.0761263,-0.000134223,,
Pixel to Wavelength Coefficients:,1775.68,-0.916766,-0.000235065,,
Serial Number:,5510004,,
Scan Config Name:,Column 1,,
Scan Config Type:,Slew,,
Section 1,,
Start wavelength (nm):,900,,
End wavelength (nm):,1700,,
Pattern Pixel Width (nm):,   7.03,,,,
Exposure (ms):,  0.635,,,,
Digital Resolution:,228,,
Num Repeats:,6,,
PGA Gain:,64,,
Total Measurement Time in sec:,  2.703,,
Wavelength (nm),Absorbance (AU),Reference Signal (unitless),Sample Signal (unitless)
901.51,1.300330,108485,5433
905.376,1.300551,121306,6072
909.237,1.318048,131909,6342
913.095,1.323351,143299,6806
916.948,1.297673,156982,7910
922.079,1.320572,179937,8601
925.923,1.317731,200504,9647
929.762,1.294487,222660,11302
933.597,1.313039,244426,11888
937.427,1.313264,263972,12832
941.254,1.320192,281845,13484
945.076,1.315031,297271,14392
950.165,1.302470,315605,15728
953.978,1.309221,328029,16095
957.786,1.318561,340470,16350
961.59,1.311734,352317,17187
965.389,1.321601,363056,17313
969.185,1.310302,373162,18264
972.976,1.302453,382632,19069
976.763,1.306102,391202,19333
981.806,1.315316,400190,19362
985.583,1.307786,406088,19991
989.355,1.305631,410162,20292
993.124,1.315759,412868,19955
996.888,1.309759,414263,20301
1000.65,1.319366,415476,19915
1004.4,1.320964,415479,19842
1009.41,1.304036,414358,20575
1013.15,1.316449,412923,19926
1016.89,1.309691,411526,20170
1020.63,1.314865,409066,19812
1024.36,1.310067,406777,19920
1028.09,1.314429,404427,19607
1031.82,1.316978,401911,19371
1036.78,1.305732,398410,19706
1040.49,1.312992,396204,19272
1044.2,1.306368,394236,19471
1047.91,1.312504,392042,19091
1051.61,1.317380,389823,18771
1055.31,1.312701,388234,18897
1059,1.307782,387599,19081
1063.92,1.322732,386688,18392
1067.61,1.312848,386598,18811
1071.29,1.313930,387377,18802
1074.96,1.304550,388536,19270
1078.63,1.324295,389855,18476
1082.3,1.318188,391215,18803
1085.96,1.318260,393215,18896
1090.84,1.323602,396270,18810
1094.49,1.324181,398760,18903
1098.14,1.325384,400987,18956
1101.79,1.321614,403477,19240
1105.43,1.326436,406116,19152
1109.06,1.313720,407701,19798
1112.7,1.314590,409859,19863
1117.53,1.314453,412494,19997
1121.15,1.316294,414909,20029
1124.77,1.319603,416559,19956
1128.38,1.316872,418532,20177
1131.99,1.318886,419956,20152
1135.6,1.312931,421946,20527
1139.2,1.324048,423881,20100
1143.99,1.323528,426786,20262
1147.58,1.318118,428617,20604
1151.17,1.317357,431169,20763
1154.75,1.320197,433579,20743
1158.33,1.325229,436264,20631
1161.91,1.316956,439132,21166
1165.48,1.320268,442389,21161
1169.04,1.311954,446101,21751
1173.79,1.319472,451929,21657
1177.34,1.320115,456026,21821
1180.9,1.322475,461306,21954
1184.44,1.318112,467657,22481
1187.99,1.316712,473969,22858
1191.52,1.312843,479856,23349
1195.06,1.322728,487372,23181
1199.76,1.326091,497347,23473
1203.29,1.322071,504311,24023
1206.81,1.323943,511507,24261
1210.33,1.326102,519078,24498
1213.84,1.327406,527163,24805
1217.35,1.328071,534208,25098
1220.85,1.330030,540472,25278
1225.51,1.319839,549929,26331
1229.01,1.322866,556888,26479
1232.5,1.328420,562180,26391
1235.98,1.322982,567975,26999
1239.46,1.322634,574815,27346
1242.94,1.323387,582782,27677
1246.41,1.322582,591476,28142
1251.03,1.323787,604016,28659
1254.5,1.330196,612289,28626
1257.96,1.327811,619125,29105
1261.41,1.330512,624551,29178
1264.86,1.328406,629900,29571
1268.31,1.326349,634345,29921
1271.75,1.329134,638574,29928
1276.33,1.324970,642499,30402
1279.76,1.328740,645905,30299
1283.19,1.333431,648307,30085
1286.61,1.330438,650446,30393
1290.03,1.338781,652132,29892
1293.44,1.331088,653907,30509
1296.85,1.330208,655963,30667
1301.39,1.337530,657349,30218
1304.8,1.330527,657558,30719
1308.19,1.332858,658515,30599
1311.58,1.335840,658804,30403
1314.97,1.334507,659011,30506
1318.36,1.339940,658272,30093
1321.73,1.337314,658022,30264
1326.23,1.335124,657870,30410
1329.6,1.330325,656482,30683
1332.97,1.336185,654926,30200
1336.33,1.334040,653727,30294
1339.69,1.330393,652497,30492
1343.04,1.334245,649913,30103
1346.39,1.333207,647671,30071
1349.73,1.332102,645338,30039
1354.18,1.330507,641175,29955
1357.52,1.326553,638376,30097
1360.85,1.326768,635805,29961
1364.17,1.334049,633413,29352
1367.49,1.331715,631026,29399
1370.81,1.333028,628050,29172
1374.12,1.329481,625034,29270
1378.54,1.331129,620272,28937
1381.84,1.329823,616892,28866
1385.14,1.320079,613613,29364
1388.43,1.333938,611526,28345
1391.72,1.331887,610663,28439
1395.01,1.330129,610634,28553
1398.29,1.332121,611700,28472
1402.66,1.333238,614051,28508
1405.93,1.330890,616268,28766
1409.2,1.331256,617795,28813
1412.46,1.332284,618872,28795
1415.72,1.330240,619795,28974
1418.98,1.331886,620495,28897
1422.23,1.333896,621087,28791
1426.56,1.339088,621375,28462
1429.8,1.338357,621616,28521
1433.04,1.340363,622129,28413
1436.27,1.338021,621526,28539
1439.5,1.336713,621113,28606
1442.72,1.339764,620921,28397
1445.94,1.337462,620270,28518
1450.23,1.337205,618860,28470
1453.44,1.336373,617697,28471
1456.64,1.333583,616264,28588
1459.85,1.334760,614413,28425
1463.04,1.334983,612307,28313
1466.24,1.338412,610032,27986
1469.43,1.332094,607345,28271
1473.67,1.335717,603789,27872
1476.85,1.341472,601175,27386
1480.02,1.335790,597737,27588
1483.19,1.339408,594479,27210
1486.36,1.339173,591232,27076
1489.52,1.346416,587853,26476
1492.68,1.335214,583875,26984
1496.89,1.344470,578062,26152
1500.03,1.340515,574159,26213
1503.18,1.337824,570285,26198
1506.32,1.347231,565444,25419
1509.45,1.339594,560571,25647
1512.58,1.336882,555821,25589
1515.71,1.341567,550344,25065
1519.87,1.337437,543983,25012
1522.99,1.345221,538764,24332
1526.1,1.339261,533692,24436
1529.21,1.333813,527902,24476
1532.32,1.340616,521886,23821
1535.42,1.337203,515888,23733
1538.51,1.335163,509987,23572
1541.6,1.336476,503936,23222
1545.72,1.342869,494694,22463
1548.8,1.336053,488378,22527
1551.88,1.339074,481832,22071
1554.95,1.333748,474989,22026
1558.02,1.332139,467818,21774
1561.08,1.344861,460730,20825
1564.15,1.335103,454170,20995
1568.22,1.338334,444181,20381
1571.27,1.332035,436947,20342
1574.32,1.342249,429598,19535
1577.36,1.338223,422039,19370
1580.4,1.340748,414375,18908
1583.43,1.339672,406354,18588
1586.46,1.324905,398475,18858
1590.49,1.338267,388982,17851
1593.51,1.334290,380708,17632
1596.53,1.328899,372727,17478
1599.54,1.327493,365060,17174
1602.55,1.337374,357543,16442
1605.55,1.334570,349495,16176
1608.55,1.328342,341154,16018
1612.54,1.331470,330877,15424
1615.53,1.334142,322904,14960
1618.51,1.330091,315116,14736
1621.49,1.333417,307217,14257
1624.47,1.330055,299481,14006
1627.44,1.325513,292112,13805
1630.41,1.319994,284245,13605
1634.36,1.313241,274079,13324
1637.32,1.314407,266916,12941
1640.27,1.323961,259612,12313
1643.22,1.323223,251804,11963
1646.16,1.328180,244348,11477
1649.1,1.328490,236703,11110
1652.04,1.318212,228171,10966
1655.95,1.340576,215408,9833
1658.88,1.315109,204937,9920
1661.8,1.316983,193395,9321
1664.72,1.331475,179728,8378
1667.63,1.322023,163642,7796
1670.54,1.381448,146312,6079
1673.44,1.336563,128451,5918
1677.31,1.301113,105080,5253
1680.21,1.399683,88906,3542
1683.1,1.328586,75033,3521
1685.99,1.359178,63520,2778
1688.87,1.358281,53714,2354
1691.75,1.404921,45653,1797
1694.62,1.346089,39137,1764
1697.49,1.434836,33776,1241
1701.31,1.272327,28175,1505