Folder: textile_sorting_NIRSCAN_/samples/unknown (part 7)

File: Column 1_078039_20241121_164229.csv
Method:,Column 1,,
Host Date-Time:,21/11/24 @ 16:42:29,,
Header Version:,1,,
System Temp (C):,30.53,,
Detector Temp (C):,25.33,,
Humidity (%):,5.85,,
Lamp PD:,3811,,
Shift Vector Coefficients:,-10.5391,0.0761263,-0.000134223,,
Pixel to Wavelength Coefficients:,1775.68,-0.916766,-0.000235065,,
Serial Number:,5510004,,
Scan Config Name:,Column 1,,
Scan Config Type:,Slew,,
Section 1,,
Start wavelength (nm):,900,,
End wavelength (nm):,1700,,
Pattern Pixel Width (nm):,   7.03,,,,
Exposure (ms):,  0.635,,,,
Digital Resolution:,228,,
Num Repeats:,6,,
PGA Gain:,64,,
Total Measurement Time in sec:,  2.709,,
Wavelength (nm),Absorbance (AU),Reference Signal (unitless),Sample Signal (unitless)
901.51,1.306691,108485,5354
905.376,1.326562,121306,5719
909.237,1.334660,131909,6104
913.095,1.314383,143299,6948
916.948,1.307895,156982,7726
922.079,1.305389,179937,8907
925.923,1.308599,200504,9852
929.762,1.303495,222660,11070
933.597,1.301396,244426,12211
937.427,1.306180,263972,13043
941.254,1.298120,281845,14187
945.076,1.314519,297271,14409
950.165,1.305797,315605,15608
953.978,1.310248,328029,16057
957.786,1.311788,340470,16607
961.59,1.319587,352317,16879
965.389,1.299759,363056,18206
969.185,1.309874,373162,18282
972.976,1.311567,382632,18673
976.763,1.313945,391202,18987
981.806,1.299330,400190,20088
985.583,1.313053,406088,19750
989.355,1.305759,410162,20286
993.124,1.305139,412868,20449
996.888,1.308115,414263,20378
1000.65,1.302722,415476,20693
1004.4,1.311995,415479,20256
1009.41,1.317280,414358,19957
1013.15,1.305494,412923,20435
1016.89,1.306260,411526,20330
1020.63,1.315413,409066,19787
1024.36,1.315464,406777,19674
1028.09,1.313478,404427,19650
1031.82,1.307991,401911,19776
1036.78,1.305225,398410,19729
1040.49,1.302110,396204,19761
1044.2,1.295966,394236,19943
1047.91,1.312231,392042,19103
1051.61,1.319305,389823,18688
1055.31,1.306109,388234,19186
1059,1.316634,387599,18696
1063.92,1.320001,386688,18508
1067.61,1.309124,386598,18973
1071.29,1.313768,387377,18809
1074.96,1.312602,388536,18916
1078.63,1.315131,389855,18870
1082.3,1.314051,391215,18983
1085.96,1.321721,393215,18746
1090.84,1.315188,396270,19178
1094.49,1.327016,398760,18780
1098.14,1.321438,400987,19129
1101.79,1.307949,403477,19855
1105.43,1.322890,406116,19309
1109.06,1.314621,407701,19757
1112.7,1.312126,409859,19976
1117.53,1.319499,412494,19766
1121.15,1.311764,414909,20239
1124.77,1.323143,416559,19794
1128.38,1.314318,418532,20296
1131.99,1.316093,419956,20282
1135.6,1.318403,421946,20270
1139.2,1.311672,423881,20681
1143.99,1.318033,426786,20520
1147.58,1.318329,428617,20594
1151.17,1.315896,431169,20833
1154.75,1.313610,433579,21060
1158.33,1.324346,436264,20673
1161.91,1.325138,439132,20771
1165.48,1.313346,442389,21501
1169.04,1.321972,446101,21255
1173.79,1.313280,451929,21968
1177.34,1.316389,456026,22009
1180.9,1.320659,461306,22046
1184.44,1.314131,467657,22688
1187.99,1.324282,473969,22463
1191.52,1.319969,479856,22969
1195.06,1.321475,487372,23248
1199.76,1.324503,497347,23559
1203.29,1.316342,504311,24342
1206.81,1.323156,511507,24305
1210.33,1.325854,519078,24512
1213.84,1.324996,527163,24943
1217.35,1.329250,534208,25030
1220.85,1.328538,540472,25365
1225.51,1.330864,549929,25671
1229.01,1.325020,556888,26348
1232.5,1.319978,562180,26909
1235.98,1.328795,567975,26640
1239.46,1.320701,574815,27468
1242.94,1.321758,582782,27781
1246.41,1.320289,591476,28291
1251.03,1.328128,604016,28374
1254.5,1.329498,612289,28672
1257.96,1.323047,619125,29426
1261.41,1.326203,624551,29469
1264.86,1.330718,629900,29414
1268.31,1.330858,634345,29612
1271.75,1.332645,638574,29687
1276.33,1.325943,642499,30334
1279.76,1.328225,645905,30335
1283.19,1.326969,648307,30536
1286.61,1.329424,650446,30464
1290.03,1.328501,652132,30608
1293.44,1.333329,653907,30352
1296.85,1.333292,655963,30450
1301.39,1.335080,657349,30389
1304.8,1.330739,657558,30704
1308.19,1.334508,658515,30483
1311.58,1.328376,658804,30930
1314.97,1.331938,659011,30687
1318.36,1.333465,658272,30545
1321.73,1.337960,658022,30219
1326.23,1.330140,657870,30761
1329.6,1.335064,656482,30350
1332.97,1.332477,654926,30459
1336.33,1.329108,653727,30640
1339.69,1.337457,652497,30000
1343.04,1.334101,649913,30113
1346.39,1.331089,647671,30218
1349.73,1.330486,645338,30151
1354.18,1.332979,641175,29785
1357.52,1.331064,638376,29786
1360.85,1.319836,635805,30443
1364.17,1.330307,633413,29606
1367.49,1.329563,631026,29545
1370.81,1.328423,628050,29483
1374.12,1.328754,625034,29319
1378.54,1.328689,620272,29100
1381.84,1.326824,616892,29066
1385.14,1.327673,613613,28855
1388.43,1.328715,611526,28688
1391.72,1.331429,610663,28469
1395.01,1.329127,610634,28619
1398.29,1.326272,611700,28858
1402.66,1.330943,614051,28659
1405.93,1.329594,616268,28852
1409.2,1.330172,617795,28885
1412.46,1.330433,618872,28918
1415.72,1.329625,619795,29015
1418.98,1.336145,620495,28615
1422.23,1.333022,621087,28849
1426.56,1.332471,621375,28899
1429.8,1.337338,621616,28588
1433.04,1.336104,622129,28693
1436.27,1.336911,621526,28612
1439.5,1.334729,621113,28737
1442.72,1.342926,620921,28191
1445.94,1.327793,620270,29160
1450.23,1.334710,618860,28634
1453.44,1.341482,617697,28138
1456.64,1.340551,616264,28133
1459.85,1.330942,614413,28676
1463.04,1.332933,612307,28447
1466.24,1.330386,610032,28508
1469.43,1.330959,607345,28345
1473.67,1.336622,603789,27814
1476.85,1.336051,601175,27730
1480.02,1.335837,597737,27585
1483.19,1.334110,594479,27544
1486.36,1.333706,591232,27419
1489.52,1.341004,587853,26808
1492.68,1.338396,583875,26787
1496.89,1.341359,578062,26340
1500.03,1.341943,574159,26127
1503.18,1.336004,570285,26308
1506.32,1.339845,565444,25855
1509.45,1.343062,560571,25443
1512.58,1.337544,555821,25550
1515.71,1.338648,550344,25234
1519.87,1.333582,543983,25235
1522.99,1.337648,538764,24760
1526.1,1.347840,533692,23958
1529.21,1.335092,527902,24404
1532.32,1.342553,521886,23715
1535.42,1.341321,515888,23509
1538.51,1.336861,509987,23480
1541.6,1.337299,503936,23178
1545.72,1.337183,494694,22759
1548.8,1.342932,488378,22173
1551.88,1.334493,481832,22305
1554.95,1.332016,474989,22114
1558.02,1.344110,467818,21182
1561.08,1.332586,460730,21422
1564.15,1.334565,454170,21021
1568.22,1.334621,444181,20556
1571.27,1.340725,436947,19939
1574.32,1.331598,429598,20020
1577.36,1.329720,422039,19753
1580.4,1.335474,414375,19139
1583.43,1.339135,406354,18611
1586.46,1.332877,398475,18515
1590.49,1.337004,388982,17903
1593.51,1.332987,380708,17685
1596.53,1.328502,372727,17494
1599.54,1.335223,365060,16871
1602.55,1.330872,357543,16690
1605.55,1.341580,349495,15917
1608.55,1.329021,341154,15993
1612.54,1.335458,330877,15283
1615.53,1.321694,322904,15395
1618.51,1.319321,315116,15106
1621.49,1.330351,307217,14358
1624.47,1.331826,299481,13949
1627.44,1.320540,292112,13964
1630.41,1.321241,284245,13566
1634.36,1.326647,274079,12919
1637.32,1.326659,266916,12581
1640.27,1.316304,259612,12532
1643.22,1.327638,251804,11842
1646.16,1.317971,244348,11750
1649.1,1.326734,236703,11155
1652.04,1.324877,228171,10799
1655.95,1.327267,215408,10139
1658.88,1.328626,204937,9616
1661.8,1.322186,193395,9210
1664.72,1.318555,179728,8631
1667.63,1.327630,163642,7696
1670.54,1.332452,146312,6805
1673.44,1.335170,128451,5937
1677.31,1.333011,105080,4881
1680.21,1.324443,88906,4212
1683.1,1.347622,75033,3370
1685.99,1.359491,63520,2776
1688.87,1.213288,53714,3287
1691.75,1.326829,45653,2151
1694.62,1.339007,39137,1793
1697.49,1.396349,33776,1356
1701.31,1.209814,28175,1738

File: Column 1_078040_20241121_164232.csv
Method:,Column 1,,
Host Date-Time:,21/11/24 @ 16:42:32,,
Header Version:,1,,
System Temp (C):,30.55,,
Detector Temp (C):,25.33,,
Humidity (%):,5.8,,
Lamp PD:,3810,,
Shift Vector Coefficients:,-10.5391,0.0761263,-0.000134223,,
Pixel to Wavelength Coefficients:,1775.68,-0.916766,-0.000235065,,
Serial Number:,5510004,,
Scan Config Name:,Column 1,,
Scan Config Type:,Slew,,
Section 1,,
Start wavelength (nm):,900,,
End wavelength (nm):,1700,,
Pattern Pixel Width (nm):,   7.03,,,,
Exposure (ms):,  0.635,,,,
Digital Resolution:,228,,
Num Repeats:,6,,
PGA Gain:,64,,
Total Measurement Time in sec:,  2.705,,
Wavelength (nm),Absorbance (AU),Reference Signal (unitless),Sample Signal (unitless)
901.51,1.344996,108485,4902
905.376,1.331450,121306,5655
909.237,1.317774,131909,6346
913.095,1.341396,143299,6529
916.948,1.352679,156982,6969
922.079,1.326315,179937,8488
925.923,1.312184,200504,9771
929.762,1.316517,222660,10743
933.597,1.305542,244426,12095
937.427,1.313433,263972,12827
941.254,1.321385,281845,13447
945.076,1.319948,297271,14230
950.165,1.302084,315605,15742
953.978,1.315034,328029,15881
957.786,1.312547,340470,16578
961.59,1.319716,352317,16874
965.389,1.316043,363056,17536
969.185,1.313404,373162,18134
972.976,1.312662,382632,18626
976.763,1.312574,391202,19047
981.806,1.312677,400190,19480
985.583,1.308982,406088,19936
989.355,1.317256,410162,19756
993.124,1.314347,412868,20020
996.888,1.311624,414263,20214
1000.65,1.309726,415476,20362
1004.4,1.319674,415479,19901
1009.41,1.314223,414358,20098
1013.15,1.305473,412923,20436
1016.89,1.307994,411526,20249
1020.63,1.314164,409066,19844
1024.36,1.308565,406777,19989
1028.09,1.316472,404427,19515
1031.82,1.312051,401911,19592
1036.78,1.307122,398410,19643
1040.49,1.318183,396204,19043
1044.2,1.317094,394236,18996
1047.91,1.314876,392042,18987
1051.61,1.320748,389823,18626
1055.31,1.312149,388234,18921
1059,1.319010,387599,18594
1063.92,1.313642,386688,18781
1067.61,1.317887,386598,18594
1071.29,1.323765,387377,18381
1074.96,1.314489,388536,18834
1078.63,1.323075,389855,18528
1082.3,1.320644,391215,18697
1085.96,1.319134,393215,18858
1090.84,1.315482,396270,19165
1094.49,1.324664,398760,18882
1098.14,1.326554,400987,18905
1101.79,1.318398,403477,19383
1105.43,1.319931,406116,19441
1109.06,1.322227,407701,19414
1112.7,1.319294,409859,19649
1117.53,1.324049,412494,19560
1121.15,1.325055,414909,19629
1124.77,1.325938,416559,19667
1128.38,1.327417,418532,19693
1131.99,1.317637,419956,20210
1135.6,1.325205,421946,19955
1139.2,1.324286,423881,20089
1143.99,1.325483,426786,20171
1147.58,1.310802,428617,20954
1151.17,1.321878,431169,20548
1154.75,1.328099,433579,20369
1158.33,1.319915,436264,20885
1161.91,1.324761,439132,20789
1165.48,1.319182,442389,21214
1169.04,1.323651,446101,21173
1173.79,1.318590,451929,21701
1177.34,1.315364,456026,22061
1180.9,1.321843,461306,21986
1184.44,1.323614,467657,22198
1187.99,1.325134,473969,22419
1191.52,1.325276,479856,22690
1195.06,1.327135,487372,22947
1199.76,1.333236,497347,23090
1203.29,1.322849,504311,23980
1206.81,1.328405,511507,24013
1210.33,1.330199,519078,24268
1213.84,1.328335,527163,24752
1217.35,1.323544,534208,25361
1220.85,1.321979,540472,25751
1225.51,1.324082,549929,26075
1229.01,1.327715,556888,26185
1232.5,1.324912,562180,26605
1235.98,1.325547,567975,26840
1239.46,1.327024,574815,27071
1242.94,1.327660,582782,27406
1246.41,1.323942,591476,28054
1251.03,1.319310,604016,28956
1254.5,1.329711,612289,28658
1257.96,1.329965,619125,28961
1261.41,1.325496,624551,29517
1264.86,1.329052,629900,29527
1268.31,1.326901,634345,29883
1271.75,1.330252,638574,29851
1276.33,1.335043,642499,29705
1279.76,1.333511,645905,29968
1283.19,1.331400,648307,30226
1286.61,1.333506,650446,30179
1290.03,1.332434,652132,30332
1293.44,1.328916,653907,30662
1296.85,1.332380,655963,30514
1301.39,1.334665,657349,30418
1304.8,1.334561,657558,30435
1308.19,1.332036,658515,30657
1311.58,1.335112,658804,30454
1314.97,1.337765,659011,30278
1318.36,1.334106,658272,30500
1321.73,1.334625,658022,30452
1326.23,1.335781,657870,30364
1329.6,1.333636,656482,30450
1332.97,1.333019,654926,30421
1336.33,1.332266,653727,30418
1339.69,1.330635,652497,30475
1343.04,1.335228,649913,30035
1346.39,1.335103,647671,29940
1349.73,1.329162,645338,30243
1354.18,1.333548,641175,29746
1357.52,1.336331,638376,29427
1360.85,1.330436,635805,29709
1364.17,1.331129,633413,29550
1367.49,1.332987,631026,29313
1370.81,1.333371,628050,29149
1374.12,1.335908,625034,28840
1378.54,1.324383,620272,29390
1381.84,1.329522,616892,28886
1385.14,1.328050,613613,28830
1388.43,1.333204,611526,28393
1391.72,1.330424,610663,28535
1395.01,1.327445,610634,28730
1398.29,1.334154,611700,28339
1402.66,1.329899,614051,28728
1405.93,1.332690,616268,28647
1409.2,1.330082,617795,28891
1412.46,1.335189,618872,28603
1415.72,1.336368,619795,28568
1418.98,1.336904,620495,28565
1422.23,1.331039,621087,28981
1426.56,1.339898,621375,28409
1429.8,1.340143,621616,28404
1433.04,1.332352,622129,28942
1436.27,1.333208,621526,28857
1439.5,1.342537,621113,28225
1442.72,1.328189,620921,29164
1445.94,1.337416,620270,28521
1450.23,1.340006,618860,28287
1453.44,1.336556,617697,28459
1456.64,1.338026,616264,28297
1459.85,1.338319,614413,28193
1463.04,1.340028,612307,27986
1466.24,1.339142,610032,27939
1469.43,1.344608,607345,27468
1473.67,1.344389,603789,27321
1476.85,1.337290,601175,27651
1480.02,1.332450,597737,27801
1483.19,1.339121,594479,27228
1486.36,1.340652,591232,26984
1489.52,1.338339,587853,26973
1492.68,1.342288,583875,26548
1496.89,1.338024,578062,26543
1500.03,1.337461,574159,26398
1503.18,1.348429,570285,25566
1506.32,1.338302,565444,25947
1509.45,1.341546,560571,25532
1512.58,1.340683,555821,25366
1515.71,1.336725,550344,25346
1519.87,1.345180,543983,24570
1522.99,1.344490,538764,24373
1526.1,1.338515,533692,24478
1529.21,1.345010,527902,23853
1532.32,1.341473,521886,23774
1535.42,1.338431,515888,23666
1538.51,1.339291,509987,23349
1541.6,1.344688,503936,22787
1545.72,1.340536,494694,22584
1548.8,1.337675,488378,22443
1551.88,1.337561,481832,22148
1554.95,1.345844,474989,21421
1558.02,1.333737,467818,21694
1561.08,1.340236,460730,21048
1564.15,1.340473,454170,20737
1568.22,1.340963,444181,20258
1571.27,1.347133,436947,19647
1574.32,1.341006,429598,19591
1577.36,1.335719,422039,19482
1580.4,1.342151,414375,18847
1583.43,1.335625,406354,18762
1586.46,1.325920,398475,18814
1590.49,1.340829,388982,17746
1593.51,1.337951,380708,17484
1596.53,1.331591,372727,17370
1599.54,1.348156,365060,16376
1602.55,1.329158,357543,16756
1605.55,1.327407,349495,16445
1608.55,1.340606,341154,15572
1612.54,1.332936,330877,15372
1615.53,1.329694,322904,15114
1618.51,1.348605,315116,14121
1621.49,1.329203,307217,14396
1624.47,1.329869,299481,14012
1627.44,1.318554,292112,14028
1630.41,1.324809,284245,13455
1634.36,1.327286,274079,12900
1637.32,1.321887,266916,12720
1640.27,1.324596,259612,12295
1643.22,1.327931,251804,11834
1646.16,1.322093,244348,11639
1649.1,1.337854,236703,10873
1652.04,1.328674,228171,10705
1655.95,1.323471,215408,10228
1658.88,1.323151,204937,9738
1661.8,1.329701,193395,9052
1664.72,1.325095,179728,8502
1667.63,1.359589,163642,7150
1670.54,1.349105,146312,6549
1673.44,1.361559,128451,5587
1677.31,1.344644,105080,4752
1680.21,1.342442,88906,4041
1683.1,1.425003,75033,2820
1685.99,1.350971,63520,2831
1688.87,1.266195,53714,2910
1691.75,1.282345,45653,2383
1694.62,1.342168,39137,1780
1697.49,1.295358,33776,1711
1701.31,1.554994,28175,785

File: Column 1_078041_20241121_164235.csv
Method:,Column 1,,
Host Date-Time:,21/11/24 @ 16:42:35,,
Header Version:,1,,
System Temp (C):,30.6,,
Detector Temp (C):,25.35,,
Humidity (%):,5.75,,
Lamp PD:,3811,,
Shift Vector Coefficients:,-10.5391,0.0761263,-0.000134223,,
Pixel to Wavelength Coefficients:,1775.68,-0.916766,-0.000235065,,
Serial Number:,5510004,,
Scan Config Name:,Column 1,,
Scan Config Type:,Slew,,
Section 1,,
Start wavelength (nm):,900,,
End wavelength (nm):,1700,,
Pattern Pixel Width (nm):,   7.03,,,,
Exposure (ms):,  0.635,,,,
Digital Resolution:,228,,
Num Repeats:,6,,
PGA Gain:,64,,
Total Measurement Time in sec:,  2.706,,
Wavelength (nm),Absorbance (AU),Reference Signal (unitless),Sample Signal (unitless)
901.51,1.297859,108485,5464
905.376,1.309073,121306,5954
909.237,1.330200,131909,6167
913.095,1.300785,143299,7169
916.948,1.294119,156982,7975
922.079,1.316701,179937,8678
925.923,1.303689,200504,9964
929.762,1.300835,222660,11138
933.597,1.308749,244426,12006
937.427,1.292577,263972,13458
941.254,1.326910,281845,13277
945.076,1.307700,297271,14637
950.165,1.311539,315605,15403
953.978,1.307793,328029,16148
957.786,1.303550,340470,16925
961.59,1.315235,352317,17049
965.389,1.311289,363056,17729
969.185,1.304092,373162,18527
972.976,1.316526,382632,18461
976.763,1.309802,391202,19169
981.806,1.301953,400190,19967
985.583,1.310641,406088,19860
989.355,1.306595,410162,20247
993.124,1.303317,412868,20535
996.888,1.311645,414263,20213
1000.65,1.316692,415476,20038
1004.4,1.314360,415479,20146
1009.41,1.301175,414358,20711
1013.15,1.309358,412923,20254
1016.89,1.316571,411526,19853
1020.63,1.309614,409066,20053
1024.36,1.304887,406777,20159
1028.09,1.312396,404427,19699
1031.82,1.301193,401911,20088
1036.78,1.311813,398410,19432
1040.49,1.316795,396204,19104
1044.2,1.310807,394236,19273
1047.91,1.310484,392042,19180
1051.61,1.310221,389823,19083
1055.31,1.310180,388234,19007
1059,1.313048,387599,18851
1063.92,1.320001,386688,18508
1067.61,1.312248,386598,18837
1071.29,1.307078,387377,19101
1074.96,1.313936,388536,18858
1078.63,1.316653,389855,18804
1082.3,1.308346,391215,19234
1085.96,1.315191,393215,19030
1090.84,1.316163,396270,19135
1094.49,1.316552,398760,19238
1098.14,1.309238,400987,19674
1101.79,1.309768,403477,19772
1105.43,1.314338,406116,19693
1109.06,1.319862,407701,19520
1112.7,1.312409,409859,19963
1117.53,1.327280,412494,19415
1121.15,1.314908,414909,20093
1124.77,1.317519,416559,20052
1128.38,1.313890,418532,20316
1131.99,1.319792,419956,20110
1135.6,1.320659,421946,20165
1139.2,1.314031,423881,20569
1143.99,1.317166,426786,20561
1147.58,1.317233,428617,20646
1151.17,1.318950,431169,20687
1154.75,1.317421,433579,20876
1158.33,1.317861,436264,20984
1161.91,1.318230,439132,21104
1165.48,1.321707,442389,21091
1169.04,1.322933,446101,21208
1173.79,1.309011,451929,22185
1177.34,1.313302,456026,22166
1180.9,1.322535,461306,21951
1184.44,1.320320,467657,22367
1187.99,1.325832,473969,22383
1191.52,1.318402,479856,23052
1195.06,1.317273,487372,23474
1199.76,1.320302,497347,23788
1203.29,1.325301,504311,23845
1206.81,1.320306,511507,24465
1210.33,1.317571,519078,24984
1213.84,1.328510,527163,24742
1217.35,1.317710,534208,25704
1220.85,1.329395,540472,25315
1225.51,1.325801,549929,25972
1229.01,1.323967,556888,26412
1232.5,1.326007,562180,26538
1235.98,1.321616,567975,27084
1239.46,1.322936,574815,27327
1242.94,1.317635,582782,28046
1246.41,1.329771,591476,27680
1251.03,1.323863,604016,28654
1254.5,1.316928,612289,29514
1257.96,1.325697,619125,29247
1261.41,1.326586,624551,29443
1264.86,1.324997,629900,29804
1268.31,1.329277,634345,29720
1271.75,1.329438,638574,29907
1276.33,1.328844,642499,30132
1279.76,1.326068,645905,30486
1283.19,1.330037,648307,30321
1286.61,1.329652,650446,30448
1290.03,1.327707,652132,30664
1293.44,1.329837,653907,30597
1296.85,1.327061,655963,30890
1301.39,1.327571,657349,30919
1304.8,1.330047,657558,30753
1308.19,1.335549,658515,30410
1311.58,1.332425,658804,30643
1314.97,1.331669,659011,30706
1318.36,1.334576,658272,30467
1321.73,1.331074,658022,30702
1326.23,1.331370,657870,30674
1329.6,1.332396,656482,30537
1332.97,1.331380,654926,30536
1336.33,1.330712,653727,30527
1339.69,1.327936,652497,30665
1343.04,1.334765,649913,30067
1346.39,1.327967,647671,30436
1349.73,1.332362,645338,30021
1354.18,1.329754,641175,30007
1357.52,1.329362,638376,29903
1360.85,1.327827,635805,29888
1364.17,1.323149,633413,30098
1367.49,1.326312,631026,29767
1370.81,1.333371,628050,29149
1374.12,1.326008,625034,29505
1378.54,1.325922,620272,29286
1381.84,1.331133,616892,28779
1385.14,1.333355,613613,28480
1388.43,1.326329,611526,28846
1391.72,1.329679,610663,28584
1395.01,1.334839,610634,28245
1398.29,1.326408,611700,28849
1402.66,1.329355,614051,28764
1405.93,1.328646,616268,28915
1409.2,1.323740,617795,29316
1412.46,1.331199,618872,28867
1415.72,1.335958,619795,28595
1418.98,1.326583,620495,29252
1422.23,1.327234,621087,29236
1426.56,1.333630,621375,28822
1429.8,1.327114,621616,29269
1433.04,1.331962,622129,28968
1436.27,1.331271,621526,28986
1439.5,1.331822,621113,28930
1442.72,1.334202,620921,28763
1445.94,1.336610,620270,28574
1450.23,1.336047,618860,28546
1453.44,1.340835,617697,28180
1456.64,1.334389,616264,28535
1459.85,1.330609,614413,28698
1463.04,1.334523,612307,28343
1466.24,1.332999,610032,28337
1469.43,1.331496,607345,28310
1473.67,1.336794,603789,27803
1476.85,1.334285,601175,27843
1480.02,1.338268,597737,27431
1483.19,1.334551,594479,27516
1486.36,1.338692,591232,27106
1489.52,1.337696,587853,27013
1492.68,1.340737,583875,26643
1496.89,1.344951,578062,26123
1500.03,1.343742,574159,26019
1503.18,1.348039,570285,25589
1506.32,1.335350,565444,26124
1509.45,1.337837,560571,25751
1512.58,1.338889,555821,25471
1515.71,1.336006,550344,25388
1519.87,1.334996,543983,25153
1522.99,1.338842,538764,24692
1526.1,1.337133,533692,24556
1529.21,1.338935,527902,24189
1532.32,1.336858,521886,24028
1535.42,1.336197,515888,23788
1538.51,1.338938,509987,23368
1541.6,1.331955,503936,23465
1545.72,1.332307,494694,23016
1548.8,1.338644,488378,22393
1551.88,1.334727,481832,22293
1554.95,1.340484,474989,21687
1558.02,1.326590,467818,22054
1561.08,1.327989,460730,21650
1564.15,1.330862,454170,21201
1568.22,1.329601,444181,20795
1571.27,1.340595,436947,19945
1574.32,1.337275,429598,19760
1577.36,1.341057,422039,19244
1580.4,1.328541,414375,19447
1583.43,1.339532,406354,18594
1586.46,1.331730,398475,18564
1590.49,1.333789,388982,18036
1593.51,1.335203,380708,17595
1596.53,1.323197,372727,17709
1599.54,1.331890,365060,17001
1602.55,1.334137,357543,16565
1605.55,1.335000,349495,16160
1608.55,1.330163,341154,15951
1612.54,1.321670,330877,15776
1615.53,1.337025,322904,14861
1618.51,1.316084,315116,15219
1621.49,1.330261,307217,14361
1624.47,1.333730,299481,13888
1627.44,1.322535,292112,13900
1630.41,1.320250,284245,13597
1634.36,1.316021,274079,13239
1637.32,1.319776,266916,12782
1640.27,1.310384,259612,12704
1643.22,1.319715,251804,12060
1646.16,1.319971,244348,11696
1649.1,1.317871,236703,11385
1652.04,1.309935,228171,11177
1655.95,1.333827,215408,9987
1658.88,1.326598,204937,9661
1661.8,1.334962,193395,8943
1664.72,1.329407,179728,8418
1667.63,1.337157,163642,7529
1670.54,1.329209,146312,6856
1673.44,1.310709,128451,6281
1677.31,1.325338,105080,4968
1680.21,1.362456,88906,3859
1683.1,1.292394,75033,3827
1685.99,1.277218,63520,3355
1688.87,1.347530,53714,2413
1691.75,1.262573,45653,2494
1694.62,1.446149,39137,1401
1697.49,1.251917,33776,1891
1701.31,1.268306,28175,1519