Folder: textile_sorting_NIRSCAN_/samples/unknown (part 19)

File: Column 1_078103_20241121_164537.csv
Method:,Column 1,,
Host Date-Time:,21/11/24 @ 16:45:37,,
Header Version:,1,,
System Temp (C):,32.37,,
Detector Temp (C):,27.54,,
Humidity (%):,4.05,,
Lamp PD:,3807,,
Shift Vector Coefficients:,-10.5391,0.0761263,-0.000134223,,
Pixel to Wavelength Coefficients:,1775.68,-0.916766,-0.000235065,,
Serial Number:,5510004,,
Scan Config Name:,Column 1,,
Scan Config Type:,Slew,,
Section 1,,
Start wavelength (nm):,900,,
End wavelength (nm):,1700,,
Pattern Pixel Width (nm):,   7.03,,,,
Exposure (ms):,  0.635,,,,
Digital Resolution:,228,,
Num Repeats:,6,,
PGA Gain:,64,,
Total Measurement Time in sec:,  2.707,,
Wavelength (nm),Absorbance (AU),Reference Signal (unitless),Sample Signal (unitless)
901.51,1.317949,108485,5217
905.376,1.292051,121306,6192
909.237,1.299679,131909,6616
913.095,1.334206,143299,6638
916.948,1.314237,156982,7614
922.079,1.307295,179937,8868
925.923,1.307322,200504,9881
929.762,1.310495,222660,10893
933.597,1.314942,244426,11836
937.427,1.297674,263972,13301
941.254,1.310478,281845,13789
945.076,1.314428,297271,14412
950.165,1.318244,315605,15167
953.978,1.307982,328029,16141
957.786,1.316838,340470,16415
961.59,1.303053,352317,17534
965.389,1.316613,363056,17513
969.185,1.305501,373162,18467
972.976,1.313338,382632,18597
976.763,1.306551,391202,19313
981.806,1.306787,400190,19746
985.583,1.305251,406088,20108
989.355,1.309327,410162,20120
993.124,1.305479,412868,20433
996.888,1.306583,414263,20450
1000.65,1.312700,415476,20223
1004.4,1.312553,415479,20230
1009.41,1.305579,414358,20502
1013.15,1.313084,412923,20081
1016.89,1.309799,411526,20165
1020.63,1.307497,409066,20151
1024.36,1.309435,406777,19949
1028.09,1.317519,404427,19468
1031.82,1.307267,401911,19809
1036.78,1.310897,398410,19473
1040.49,1.307239,396204,19529
1044.2,1.306145,394236,19481
1047.91,1.314350,392042,19010
1051.61,1.315487,389823,18853
1055.31,1.309267,388234,19047
1059,1.309332,387599,19013
1063.92,1.316705,386688,18649
1067.61,1.315186,386598,18710
1071.29,1.311534,387377,18906
1074.96,1.318613,388536,18656
1078.63,1.308032,389855,19181
1082.3,1.304502,391215,19405
1085.96,1.310087,393215,19255
1090.84,1.320015,396270,18966
1094.49,1.318135,398760,19168
1098.14,1.316472,400987,19349
1101.79,1.317123,403477,19440
1105.43,1.318794,406116,19492
1109.06,1.323347,407701,19364
1112.7,1.312300,409859,19968
1117.53,1.317723,412494,19847
1121.15,1.318446,414909,19930
1124.77,1.319125,416559,19978
1128.38,1.320916,418532,19990
1131.99,1.317552,419956,20214
1135.6,1.320659,421946,20165
1139.2,1.317146,423881,20422
1143.99,1.324128,426786,20234
1147.58,1.335646,428617,19789
1151.17,1.319139,431169,20678
1154.75,1.324003,433579,20562
1158.33,1.325229,436264,20631
1161.91,1.319756,439132,21030
1165.48,1.315167,442389,21411
1169.04,1.320748,446101,21315
1173.79,1.322894,451929,21487
1177.34,1.319101,456026,21872
1180.9,1.317167,461306,22224
1184.44,1.321428,467657,22310
1187.99,1.318540,473969,22762
1191.52,1.320044,479856,22965
1195.06,1.314360,487372,23632
1199.76,1.316358,497347,24005
1203.29,1.330081,504311,23584
1206.81,1.318889,511507,24545
1210.33,1.318998,519078,24902
1213.84,1.317693,527163,25366
1217.35,1.323801,534208,25346
1220.85,1.322300,540472,25732
1225.51,1.323284,549929,26123
1229.01,1.323786,556888,26423
1232.5,1.321498,562180,26815
1235.98,1.326357,567975,26790
1239.46,1.327473,574815,27043
1242.94,1.322196,582782,27753
1246.41,1.323555,591476,28079
1251.03,1.325275,604016,28561
1254.5,1.324543,612289,29001
1257.96,1.329096,619125,29019
1261.41,1.325599,624551,29510
1264.86,1.327144,629900,29657
1268.31,1.331974,634345,29536
1271.75,1.329250,638574,29920
1276.33,1.331157,642499,29972
1279.76,1.333975,645905,29936
1283.19,1.332292,648307,30164
1286.61,1.337177,650446,29925
1290.03,1.330663,652132,30456
1293.44,1.331530,653907,30478
1296.85,1.326205,655963,30951
1301.39,1.331663,657349,30629
1304.8,1.332852,657558,30555
1308.19,1.329987,658515,30802
1311.58,1.330798,658804,30758
1314.97,1.332774,659011,30628
1318.36,1.326652,658272,31028
1321.73,1.327271,658022,30972
1326.23,1.331242,657870,30683
1329.6,1.329971,656482,30708
1332.97,1.332890,654926,30430
1336.33,1.331752,653727,30454
1339.69,1.330735,652497,30468
1343.04,1.336879,649913,29921
1346.39,1.328110,647671,30426
1349.73,1.331769,645338,30062
1354.18,1.331175,641175,29909
1357.52,1.331984,638376,29723
1360.85,1.326753,635805,29962
1364.17,1.332218,633413,29476
1367.49,1.328228,631026,29636
1370.81,1.332775,628050,29189
1374.12,1.328355,625034,29346
1378.54,1.328242,620272,29130
1381.84,1.328711,616892,28940
1385.14,1.329771,613613,28716
1388.43,1.328730,611526,28687
1391.72,1.330165,610663,28552
1395.01,1.326012,610634,28825
1398.29,1.325686,611700,28897
1402.66,1.333847,614051,28468
1405.93,1.325429,616268,29130
1409.2,1.333644,617795,28655
1412.46,1.333810,618872,28694
1415.72,1.330105,619795,28983
1418.98,1.335205,620495,28677
1422.23,1.329678,621087,29072
1426.56,1.335321,621375,28710
1429.8,1.328511,621616,29175
1433.04,1.337317,622129,28613
1436.27,1.337412,621526,28579
1439.5,1.333251,621113,28835
1442.72,1.322156,620921,29572
1445.94,1.334321,620270,28725
1450.23,1.333968,618860,28683
1453.44,1.332727,617697,28711
1456.64,1.336296,616264,28410
1459.85,1.338335,614413,28192
1463.04,1.338711,612307,28071
1466.24,1.332509,610032,28369
1469.43,1.337411,607345,27927
1473.67,1.342090,603789,27466
1476.85,1.336584,601175,27696
1480.02,1.337588,597737,27474
1483.19,1.328579,594479,27897
1486.36,1.336950,591232,27215
1489.52,1.341474,587853,26779
1492.68,1.343911,583875,26449
1496.89,1.340009,578062,26422
1500.03,1.332277,574159,26715
1503.18,1.342960,570285,25890
1506.32,1.335367,565444,26123
1509.45,1.331924,560571,26104
1512.58,1.333147,555821,25810
1515.71,1.336160,550344,25379
1519.87,1.332293,543983,25310
1522.99,1.335950,538764,24857
1526.1,1.342292,533692,24266
1529.21,1.338415,527902,24218
1532.32,1.335703,521886,24092
1535.42,1.326860,515888,24305
1538.51,1.332536,509987,23715
1541.6,1.339384,503936,23067
1545.72,1.333819,494694,22936
1548.8,1.340101,488378,22318
1551.88,1.334279,481832,22316
1554.95,1.338068,474989,21808
1558.02,1.333717,467818,21695
1561.08,1.334008,460730,21352
1564.15,1.330862,454170,21201
1568.22,1.335510,444181,20514
1571.27,1.331416,436947,20371
1574.32,1.336090,429598,19814
1577.36,1.335808,422039,19478
1580.4,1.328452,414375,19451
1583.43,1.335047,406354,18787
1586.46,1.327029,398475,18766
1590.49,1.327455,388982,18301
1593.51,1.334020,380708,17643
1596.53,1.329720,372727,17445
1599.54,1.338479,365060,16745
1602.55,1.325904,357543,16882
1605.55,1.320465,349495,16710
1608.55,1.333003,341154,15847
1612.54,1.329223,330877,15504
1615.53,1.319583,322904,15470
1618.51,1.333018,315116,14637
1621.49,1.310457,307217,15031
1624.47,1.312046,299481,14599
1627.44,1.329781,292112,13670
1630.41,1.319930,284245,13607
1634.36,1.339232,274079,12550
1637.32,1.314474,266916,12939
1640.27,1.312956,259612,12629
1643.22,1.325114,251804,11911
1646.16,1.314144,244348,11854
1649.1,1.312676,236703,11522
1652.04,1.312273,228171,11117
1655.95,1.301773,215408,10752
1658.88,1.303659,204937,10185
1661.8,1.311289,193395,9444
1664.72,1.304543,179728,8914
1667.63,1.301195,163642,8179
1670.54,1.301898,146312,7301
1673.44,1.285655,128451,6654
1677.31,1.255852,105080,5830
1680.21,1.281011,88906,4655
1683.1,1.233877,75033,4379
1685.99,1.240975,63520,3647
1688.87,1.254126,53714,2992
1691.75,1.222671,45653,2734
1694.62,1.269748,39137,2103
1697.49,1.292323,33776,1723
1701.31,1.322435,28175,1341

File: Column 1_078104_20241121_164540.csv
Method:,Column 1,,
Host Date-Time:,21/11/24 @ 16:45:40,,
Header Version:,1,,
System Temp (C):,32.38,,
Detector Temp (C):,27.64,,
Humidity (%):,4.01,,
Lamp PD:,3807,,
Shift Vector Coefficients:,-10.5391,0.0761263,-0.000134223,,
Pixel to Wavelength Coefficients:,1775.68,-0.916766,-0.000235065,,
Serial Number:,5510004,,
Scan Config Name:,Column 1,,
Scan Config Type:,Slew,,
Section 1,,
Start wavelength (nm):,900,,
End wavelength (nm):,1700,,
Pattern Pixel Width (nm):,   7.03,,,,
Exposure (ms):,  0.635,,,,
Digital Resolution:,228,,
Num Repeats:,6,,
PGA Gain:,64,,
Total Measurement Time in sec:,  2.727,,
Wavelength (nm),Absorbance (AU),Reference Signal (unitless),Sample Signal (unitless)
901.51,1.337356,108485,4989
905.376,1.338573,121306,5563
909.237,1.310984,131909,6446
913.095,1.337885,143299,6582
916.948,1.324510,156982,7436
922.079,1.306414,179937,8886
925.923,1.329828,200504,9382
929.762,1.315709,222660,10763
933.597,1.319072,244426,11724
937.427,1.313738,263972,12818
941.254,1.321999,281845,13428
945.076,1.322181,297271,14157
950.165,1.326133,315605,14894
953.978,1.317888,328029,15777
957.786,1.319172,340470,16327
961.59,1.314980,352317,17059
965.389,1.317209,363056,17489
969.185,1.316504,373162,18005
972.976,1.310777,382632,18707
976.763,1.310006,391202,19160
981.806,1.309523,400190,19622
985.583,1.312745,406088,19764
989.355,1.304220,410162,20358
993.124,1.315281,412868,19977
996.888,1.309438,414263,20316
1000.65,1.316150,415476,20063
1004.4,1.304555,415479,20606
1009.41,1.311423,414358,20228
1013.15,1.319182,412923,19801
1016.89,1.316768,411526,19844
1020.63,1.313967,409066,19853
1024.36,1.311837,406777,19839
1028.09,1.313257,404427,19660
1031.82,1.322528,401911,19125
1036.78,1.321714,398410,18994
1040.49,1.305774,396204,19595
1044.2,1.313044,394236,19174
1047.91,1.320169,392042,18757
1051.61,1.320445,389823,18639
1055.31,1.309016,388234,19058
1059,1.312611,387599,18870
1063.92,1.317684,386688,18607
1067.61,1.321876,386598,18424
1071.29,1.320493,387377,18520
1074.96,1.316291,388536,18756
1078.63,1.312264,389855,18995
1082.3,1.313891,391215,18990
1085.96,1.312961,393215,19128
1090.84,1.326684,396270,18677
1094.49,1.314143,398760,19345
1098.14,1.326646,400987,18901
1101.79,1.317995,403477,19401
1105.43,1.331775,406116,18918
1109.06,1.320441,407701,19494
1112.7,1.320157,409859,19610
1117.53,1.320401,412494,19725
1121.15,1.330734,414909,19374
1124.77,1.327598,416559,19592
1128.38,1.316614,418532,20189
1131.99,1.324067,419956,19913
1135.6,1.330658,421946,19706
1139.2,1.316869,423881,20435
1143.99,1.327295,426786,20087
1147.58,1.322823,428617,20382
1151.17,1.326959,431169,20309
1154.75,1.326375,433579,20450
1158.33,1.319603,436264,20900
1161.91,1.316198,439132,21203
1165.48,1.323978,442389,20981
1169.04,1.329973,446101,20867
1173.79,1.330788,451929,21100
1177.34,1.319240,456026,21865
1180.9,1.317343,461306,22215
1184.44,1.319195,467657,22425
1187.99,1.322623,473969,22549
1191.52,1.322358,479856,22843
1195.06,1.326454,487372,22983
1199.76,1.327017,497347,23423
1203.29,1.332296,504311,23464
1206.81,1.321230,511507,24413
1210.33,1.324262,519078,24602
1213.84,1.326531,527163,24855
1217.35,1.326534,534208,25187
1220.85,1.323991,540472,25632
1225.51,1.320863,549929,26269
1229.01,1.324971,556888,26351
1232.5,1.332254,562180,26159
1235.98,1.327850,567975,26698
1239.46,1.322984,574815,27324
1242.94,1.330602,582782,27221
1246.41,1.325478,591476,27955
1251.03,1.330584,604016,28214
1254.5,1.325383,612289,28945
1257.96,1.329665,619125,28981
1261.41,1.337883,624551,28687
1264.86,1.331161,629900,29384
1268.31,1.326553,634345,29907
1271.75,1.329656,638574,29892
1276.33,1.323772,642499,30486
1279.76,1.329817,645905,30224
1283.19,1.329651,648307,30348
1286.61,1.335945,650446,30010
1290.03,1.335250,652132,30136
1293.44,1.338149,653907,30017
1296.85,1.333549,655963,30432
1301.39,1.333368,657349,30509
1304.8,1.331249,657558,30668
1308.19,1.338688,658515,30191
1311.58,1.332397,658804,30645
1314.97,1.330582,659011,30783
1318.36,1.336691,658272,30319
1321.73,1.337214,658022,30271
1326.23,1.339790,657870,30085
1329.6,1.330778,656482,30651
1332.97,1.339549,654926,29967
1336.33,1.337928,653727,30024
1339.69,1.333753,652497,30257
1343.04,1.332891,649913,30197
1346.39,1.334132,647671,30007
1349.73,1.339406,645338,29538
1354.18,1.328728,641175,30078
1357.52,1.331166,638376,29779
1360.85,1.328074,635805,29871
1364.17,1.332926,633413,29428
1367.49,1.327262,631026,29702
1370.81,1.329381,628050,29418
1374.12,1.330610,625034,29194
1378.54,1.333748,620272,28763
1381.84,1.333206,616892,28642
1385.14,1.331802,613613,28582
1388.43,1.328382,611526,28710
1391.72,1.332407,610663,28405
1395.01,1.330008,610634,28561
1398.29,1.331191,611700,28533
1402.66,1.334122,614051,28450
1405.93,1.332190,616268,28680
1409.2,1.331573,617795,28792
1412.46,1.334370,618872,28657
1415.72,1.337815,619795,28473
1418.98,1.336069,620495,28620
1422.23,1.334484,621087,28752
1426.56,1.335532,621375,28696
1429.8,1.334854,621616,28752
1433.04,1.337894,622129,28575
1436.27,1.335305,621526,28718
1439.5,1.331462,621113,28954
1442.72,1.340774,620921,28331
1445.94,1.338087,620270,28477
1450.23,1.339407,618860,28326
1453.44,1.337442,617697,28401
1456.64,1.336020,616264,28428
1459.85,1.339229,614413,28134
1463.04,1.341786,612307,27873
1466.24,1.333996,610032,28272
1469.43,1.339688,607345,27781
1473.67,1.340181,603789,27587
1476.85,1.338171,601175,27595
1480.02,1.340427,597737,27295
1483.19,1.339807,594479,27185
1486.36,1.348217,591232,26518
1489.52,1.336428,587853,27092
1492.68,1.336406,583875,26910
1496.89,1.343673,578062,26200
1500.03,1.339704,574159,26262
1503.18,1.343631,570285,25850
1506.32,1.342237,565444,25713
1509.45,1.344156,560571,25379
1512.58,1.337272,555821,25566
1515.71,1.347428,550344,24729
1519.87,1.339421,543983,24898
1522.99,1.341772,538764,24526
1526.1,1.344769,533692,24128
1529.21,1.341673,527902,24037
1532.32,1.345345,521886,23563
1535.42,1.351243,515888,22978
1538.51,1.334316,509987,23618
1541.6,1.340195,503936,23024
1545.72,1.338617,494694,22684
1548.8,1.341094,488378,22267
1551.88,1.348985,481832,21573
1554.95,1.339624,474989,21730
1558.02,1.333978,467818,21682
1561.08,1.344028,460730,20865
1564.15,1.337821,454170,20864
1568.22,1.326729,444181,20933
1571.27,1.335766,436947,20168
1574.32,1.332163,429598,19994
1577.36,1.338963,422039,19337
1580.4,1.342082,414375,18850
1583.43,1.343851,406354,18410
1586.46,1.337736,398475,18309
1590.49,1.336131,388982,17939
1593.51,1.332668,380708,17698
1596.53,1.343170,372727,16913
1599.54,1.335326,365060,16867
1602.55,1.325853,357543,16884
1605.55,1.333363,349495,16221
1608.55,1.331799,341154,15891
1612.54,1.323712,330877,15702
1615.53,1.320089,322904,15452
1618.51,1.336175,315116,14531
1621.49,1.330503,307217,14353
1624.47,1.329095,299481,14037
1627.44,1.326143,292112,13785
1630.41,1.352221,284245,12632
1634.36,1.329446,274079,12836
1637.32,1.337495,266916,12271
1640.27,1.331001,259612,12115
1643.22,1.333843,251804,11674
1646.16,1.323588,244348,11599
1649.1,1.335107,236703,10942
1652.04,1.338438,228171,10467
1655.95,1.331615,215408,10038
1658.88,1.335225,204937,9471
1661.8,1.313918,193395,9387
1664.72,1.310973,179728,8783
1667.63,1.314786,163642,7927
1670.54,1.312678,146312,7122
1673.44,1.329430,128451,6016
1677.31,1.312335,105080,5119
1680.21,1.336147,88906,4100
1683.1,1.291261,75033,3837
1685.99,1.256738,63520,3517
1688.87,1.205432,53714,3347
1691.75,1.374137,45653,1929
1694.62,1.415051,39137,1505
1697.49,1.306412,33776,1668
1701.31,1.252859,28175,1574

File: Column 1_078105_20241121_164542.csv
Method:,Column 1,,
Host Date-Time:,21/11/24 @ 16:45:42,,
Header Version:,1,,
System Temp (C):,32.46,,
Detector Temp (C):,27.64,,
Humidity (%):,4.01,,
Lamp PD:,3807,,
Shift Vector Coefficients:,-10.5391,0.0761263,-0.000134223,,
Pixel to Wavelength Coefficients:,1775.68,-0.916766,-0.000235065,,
Serial Number:,5510004,,
Scan Config Name:,Column 1,,
Scan Config Type:,Slew,,
Section 1,,
Start wavelength (nm):,900,,
End wavelength (nm):,1700,,
Pattern Pixel Width (nm):,   7.03,,,,
Exposure (ms):,  0.635,,,,
Digital Resolution:,228,,
Num Repeats:,6,,
PGA Gain:,64,,
Total Measurement Time in sec:,  2.681,,
Wavelength (nm),Absorbance (AU),Reference Signal (unitless),Sample Signal (unitless)
901.51,1.304184,108485,5385
905.376,1.316504,121306,5853
909.237,1.319145,131909,6326
913.095,1.341131,143299,6533
916.948,1.346185,156982,7074
922.079,1.321937,179937,8574
925.923,1.308819,200504,9847
929.762,1.313014,222660,10830
933.597,1.293956,244426,12422
937.427,1.317549,263972,12706
941.254,1.304131,281845,13992
945.076,1.328516,297271,13952
950.165,1.314140,315605,15311
953.978,1.316871,328029,15814
957.786,1.308817,340470,16721
961.59,1.311910,352317,17180
965.389,1.318153,363056,17451
969.185,1.313117,373162,18146
972.976,1.312009,382632,18654
976.763,1.311277,391202,19104
981.806,1.312833,400190,19473
985.583,1.308830,406088,19943
989.355,1.304604,410162,20340
993.124,1.311515,412868,20151
996.888,1.311474,414263,20221
1000.65,1.310216,415476,20339
1004.4,1.313563,415479,20183
1009.41,1.313683,414358,20123
1013.15,1.314253,412923,20027
1016.89,1.308230,411526,20238
1020.63,1.304319,409066,20299
1024.36,1.307177,406777,20053
1028.09,1.308795,404427,19863
1031.82,1.308695,401911,19744
1036.78,1.315021,398410,19289
1040.49,1.314346,396204,19212
1044.2,1.307418,394236,19424
1047.91,1.313597,392042,19043
1051.61,1.312228,389823,18995
1055.31,1.307469,388234,19126
1059,1.310384,387599,18967
1063.92,1.314985,386688,18723
1067.61,1.308300,386598,19009
1071.29,1.322302,387377,18443
1074.96,1.312143,388536,18936
1078.63,1.316999,389855,18789
1082.3,1.314096,391215,18981
1085.96,1.323137,393215,18685
1090.84,1.314622,396270,19203
1094.49,1.315740,398760,19274
1098.14,1.315060,400987,19412
1101.79,1.309790,403477,19771
1105.43,1.316660,406116,19588
1109.06,1.321177,407701,19461
1112.7,1.327978,409859,19260
1117.53,1.313563,412494,20038
1121.15,1.311378,414909,20257
1124.77,1.312951,416559,20264
1128.38,1.319528,418532,20054
1131.99,1.316907,419956,20244
1135.6,1.324205,421946,20001
1139.2,1.319791,423881,20298
1143.99,1.321347,426786,20364
1147.58,1.315575,428617,20725
1151.17,1.314647,431169,20893
1154.75,1.330000,433579,20280
1158.33,1.314829,436264,21131
1161.91,1.317120,439132,21158
1165.48,1.321584,442389,21097
1169.04,1.321319,446101,21287
1173.79,1.314507,451929,21906
1177.34,1.319220,456026,21866
1180.9,1.324438,461306,21855
1184.44,1.313538,467657,22719
1187.99,1.319915,473969,22690
1191.52,1.317142,479856,23119
1195.06,1.320990,487372,23274
1199.76,1.321563,497347,23719
1203.29,1.318973,504311,24195
1206.81,1.322156,511507,24361
1210.33,1.334497,519078,24029
1213.84,1.326688,527163,24846
1217.35,1.322040,534208,25449
1220.85,1.319038,540472,25926
1225.51,1.328182,549929,25830
1229.01,1.320446,556888,26627
1232.5,1.330234,562180,26281
1235.98,1.322837,567975,27008
1239.46,1.321081,574815,27444
1242.94,1.321633,582782,27789
1246.41,1.322289,591476,28161
1251.03,1.324348,604016,28622
1254.5,1.320727,612289,29257
1257.96,1.322959,619125,29432
1261.41,1.329576,624551,29241
1264.86,1.333161,629900,29249
1268.31,1.327294,634345,29856
1271.75,1.329003,638574,29937
1276.33,1.327937,642499,30195
1279.76,1.330953,645905,30145
1283.19,1.329608,648307,30351
1286.61,1.330195,650446,30410
1290.03,1.336722,652132,30034
1293.44,1.331900,653907,30452
1296.85,1.331627,655963,30567
1301.39,1.329231,657349,30801
1304.8,1.331815,657558,30628
1308.19,1.334294,658515,30498
1311.58,1.335240,658804,30445
1314.97,1.334450,659011,30510
1318.36,1.335275,658272,30418
1321.73,1.328732,658022,30868
1326.23,1.336640,657870,30304
1329.6,1.336928,656482,30220
1332.97,1.336243,654926,30196
1336.33,1.335490,653727,30193
1339.69,1.332119,652497,30371
1343.04,1.335401,649913,30023
1346.39,1.328810,647671,30377
1349.73,1.332724,645338,29996
1354.18,1.330986,641175,29922
1357.52,1.326856,638376,30076
1360.85,1.333119,635805,29526
1364.17,1.329472,633413,29663
1367.49,1.323665,631026,29949
1370.81,1.322730,628050,29872
1374.12,1.325670,625034,29528
1378.54,1.334927,620272,28685
1381.84,1.338760,616892,28278
1385.14,1.328351,613613,28810
1388.43,1.332150,611526,28462
1391.72,1.330028,610663,28561
1395.01,1.334071,610634,28295
1398.29,1.331877,611700,28488
1402.66,1.331398,614051,28629
1405.93,1.330468,616268,28794
1409.2,1.330714,617795,28849
1412.46,1.334219,618872,28667
1415.72,1.334669,619795,28680
1418.98,1.332457,620495,28859
1422.23,1.330799,621087,28997
1426.56,1.333268,621375,28846
1429.8,1.334326,621616,28787
1433.04,1.336029,622129,28698
1436.27,1.337579,621526,28568
1439.5,1.332980,621113,28853
1442.72,1.327996,620921,29177
1445.94,1.334896,620270,28687
1450.23,1.327953,618860,29083
1453.44,1.329787,617697,28906
1456.64,1.335318,616264,28474
1459.85,1.331124,614413,28664
1463.04,1.336443,612307,28218
1466.24,1.342043,610032,27753
1469.43,1.341992,607345,27634
1473.67,1.335920,603789,27859
1476.85,1.336020,601175,27732
1480.02,1.333607,597737,27727
1483.19,1.339871,594479,27181
1486.36,1.330692,591232,27610
1489.52,1.344812,587853,26574
1492.68,1.339597,583875,26713
1496.89,1.336065,578062,26663
1500.03,1.337807,574159,26377
1503.18,1.336764,570285,26262
1506.32,1.344608,565444,25573
1509.45,1.344190,560571,25377
1512.58,1.338088,555821,25518
1515.71,1.341463,550344,25071
1519.87,1.337645,543983,25000
1522.99,1.345203,538764,24333
1526.1,1.340328,533692,24376
1529.21,1.332077,527902,24574
1532.32,1.340597,521886,23822
1535.42,1.348042,515888,23148
1538.51,1.337009,509987,23472
1541.6,1.338050,503936,23138
1545.72,1.334444,494694,22903
1548.8,1.331221,488378,22779
1551.88,1.341046,481832,21971
1554.95,1.332940,474989,22067
1558.02,1.333617,467818,21700
1561.08,1.336415,460730,21234
1564.15,1.329676,454170,21259
1568.22,1.340192,444181,20294
1571.27,1.339138,436947,20012
1574.32,1.338310,429598,19713
1577.36,1.328841,422039,19793
1580.4,1.340449,414375,18921
1583.43,1.335070,406354,18786
1586.46,1.337808,398475,18306
1590.49,1.329715,388982,18206
1593.51,1.331883,380708,17730
1596.53,1.341095,372727,16994
1599.54,1.340090,365060,16683
1602.55,1.325982,357543,16879
1605.55,1.338155,349495,16043
1608.55,1.321883,341154,16258
1612.54,1.324708,330877,15666
1615.53,1.331883,322904,15038
1618.51,1.337372,315116,14491
1621.49,1.331290,307217,14327
1624.47,1.334637,299481,13859
1627.44,1.317873,292112,14050
1630.41,1.318465,284245,13653
1634.36,1.317960,274079,13180
1637.32,1.327939,266916,12544
1640.27,1.304308,259612,12883
1643.22,1.330471,251804,11765
1646.16,1.323513,244348,11601
1649.1,1.317489,236703,11395
1652.04,1.337609,228171,10487
1655.95,1.310421,215408,10540
1658.88,1.318934,204937,9833
1661.8,1.309820,193395,9476
1664.72,1.306839,179728,8867
1667.63,1.299763,163642,8206
1670.54,1.299052,146312,7349
1673.44,1.301405,128451,6417
1677.31,1.315400,105080,5083
1680.21,1.268686,88906,4789
1683.1,1.325636,75033,3545
1685.99,1.230387,63520,3737
1688.87,1.275243,53714,2850
1691.75,1.277272,45653,2411
1694.62,1.308608,39137,1923
1697.49,1.479003,33776,1121
1701.31,1.287001,28175,1455