Folder: textile_sorting_NIRSCAN_/samples/unknown (part 10)

File: Column 1_078053_20241121_164310.csv
Method:,Column 1,,
Host Date-Time:,21/11/24 @ 16:43:10,,
Header Version:,1,,
System Temp (C):,30.97,,
Detector Temp (C):,25.73,,
Humidity (%):,5.37,,
Lamp PD:,3809,,
Shift Vector Coefficients:,-10.5391,0.0761263,-0.000134223,,
Pixel to Wavelength Coefficients:,1775.68,-0.916766,-0.000235065,,
Serial Number:,5510004,,
Scan Config Name:,Column 1,,
Scan Config Type:,Slew,,
Section 1,,
Start wavelength (nm):,900,,
End wavelength (nm):,1700,,
Pattern Pixel Width (nm):,   7.03,,,,
Exposure (ms):,  0.635,,,,
Digital Resolution:,228,,
Num Repeats:,6,,
PGA Gain:,64,,
Total Measurement Time in sec:,  2.724,,
Wavelength (nm),Absorbance (AU),Reference Signal (unitless),Sample Signal (unitless)
901.51,1.319116,108485,5203
905.376,1.306600,121306,5988
909.237,1.302379,131909,6575
913.095,1.299756,143299,7186
916.948,1.303533,156982,7804
922.079,1.311379,179937,8785
925.923,1.303297,200504,9973
929.762,1.311093,222660,10878
933.597,1.306512,244426,12068
937.427,1.309724,263972,12937
941.254,1.314051,281845,13676
945.076,1.316119,297271,14356
950.165,1.308812,315605,15500
953.978,1.313887,328029,15923
957.786,1.310143,340470,16670
961.59,1.309239,352317,17286
965.389,1.309188,363056,17815
969.185,1.314795,373162,18076
972.976,1.304279,382632,18989
976.763,1.310414,391202,19142
981.806,1.300087,400190,20053
985.583,1.309789,406088,19899
989.355,1.315852,410162,19820
993.124,1.311235,412868,20164
996.888,1.312247,414263,20185
1000.65,1.306284,415476,20524
1004.4,1.316391,415479,20052
1009.41,1.299793,414358,20777
1013.15,1.311896,412923,20136
1016.89,1.310920,411526,20113
1020.63,1.307820,409066,20136
1024.36,1.314692,406777,19709
1028.09,1.313787,404427,19636
1031.82,1.308651,401911,19746
1036.78,1.304807,398410,19748
1040.49,1.310005,396204,19405
1044.2,1.310154,394236,19302
1047.91,1.316228,392042,18928
1051.61,1.310767,389823,19059
1055.31,1.306789,388234,19156
1059,1.314618,387599,18783
1063.92,1.312741,386688,18820
1067.61,1.303529,386598,19219
1071.29,1.316571,387377,18688
1074.96,1.317450,388536,18706
1078.63,1.317670,389855,18760
1082.3,1.315058,391215,18939
1085.96,1.323509,393215,18669
1090.84,1.311288,396270,19351
1094.49,1.314255,398760,19340
1098.14,1.314613,400987,19432
1101.79,1.314272,403477,19568
1105.43,1.312314,406116,19785
1109.06,1.310856,407701,19929
1112.7,1.314262,409859,19878
1117.53,1.324249,412494,19551
1121.15,1.329033,414909,19450
1124.77,1.320954,416559,19894
1128.38,1.317087,418532,20167
1131.99,1.326846,419956,19786
1135.6,1.318489,421946,20266
1139.2,1.318978,423881,20336
1143.99,1.329789,426786,19972
1147.58,1.318434,428617,20589
1151.17,1.314917,431169,20880
1154.75,1.321329,433579,20689
1158.33,1.328632,436264,20470
1161.91,1.318931,439132,21070
1165.48,1.324434,442389,20959
1169.04,1.317076,446101,21496
1173.79,1.322248,451929,21519
1177.34,1.314833,456026,22088
1180.9,1.315334,461306,22318
1184.44,1.320106,467657,22378
1187.99,1.319820,473969,22695
1191.52,1.323633,479856,22776
1195.06,1.319629,487372,23347
1199.76,1.325093,497347,23527
1203.29,1.325246,504311,23848
1206.81,1.321729,511507,24385
1210.33,1.323081,519078,24669
1213.84,1.320544,527163,25200
1217.35,1.322330,534208,25432
1220.85,1.316416,540472,26083
1225.51,1.322271,549929,26184
1229.01,1.327019,556888,26227
1232.5,1.322016,562180,26783
1235.98,1.324012,567975,26935
1239.46,1.328712,574815,26966
1242.94,1.322666,582782,27723
1246.41,1.322644,591476,28138
1251.03,1.324804,604016,28592
1254.5,1.321633,612289,29196
1257.96,1.329261,619125,29008
1261.41,1.328137,624551,29338
1264.86,1.335334,629900,29103
1268.31,1.322319,634345,30200
1271.75,1.330092,638574,29862
1276.33,1.329522,642499,30085
1279.76,1.326168,645905,30479
1283.19,1.326969,648307,30536
1286.61,1.328271,650446,30545
1290.03,1.331762,652132,30379
1293.44,1.329965,653907,30588
1296.85,1.328216,655963,30808
1301.39,1.333027,657349,30533
1304.8,1.334675,657558,30427
1308.19,1.329268,658515,30853
1311.58,1.331194,658804,30730
1314.97,1.328204,659011,30952
1318.36,1.332244,658272,30631
1321.73,1.330678,658022,30730
1326.23,1.328857,657870,30852
1329.6,1.333650,656482,30449
1332.97,1.334062,654926,30348
1336.33,1.327396,653727,30761
1339.69,1.327737,652497,30679
1343.04,1.334361,649913,30095
1346.39,1.334581,647671,29976
1349.73,1.331842,645338,30057
1354.18,1.331059,641175,29917
1357.52,1.332466,638376,29690
1360.85,1.331153,635805,29660
1364.17,1.331585,633413,29519
1367.49,1.328389,631026,29625
1370.81,1.332344,628050,29218
1374.12,1.326715,625034,29457
1378.54,1.329511,620272,29045
1381.84,1.325377,616892,29163
1385.14,1.332167,613613,28558
1388.43,1.334383,611526,28316
1391.72,1.334737,610663,28253
1395.01,1.333780,610634,28314
1398.29,1.327840,611700,28754
1402.66,1.334244,614051,28442
1405.93,1.330664,616268,28781
1409.2,1.337480,617795,28403
1412.46,1.332631,618872,28772
1415.72,1.328684,619795,29078
1418.98,1.330355,620495,28999
1422.23,1.334923,621087,28723
1426.56,1.331001,621375,28997
1429.8,1.338342,621616,28522
1433.04,1.333133,622129,28890
1436.27,1.335714,621526,28691
1439.5,1.337808,621113,28534
1442.72,1.342679,620921,28207
1445.94,1.334653,620270,28703
1450.23,1.329120,618860,29005
1453.44,1.334956,617697,28564
1456.64,1.329787,616264,28839
1459.85,1.330775,614413,28687
1463.04,1.337275,612307,28164
1466.24,1.333489,610032,28305
1469.43,1.339110,607345,27818
1473.67,1.338547,603789,27691
1476.85,1.335566,601175,27761
1480.02,1.332840,597737,27776
1483.19,1.341841,594479,27058
1486.36,1.333026,591232,27462
1489.52,1.339856,587853,26879
1492.68,1.332118,583875,27177
1496.89,1.341821,578062,26312
1500.03,1.338383,574159,26342
1503.18,1.334702,570285,26387
1506.32,1.334951,565444,26148
1509.45,1.341410,560571,25540
1512.58,1.340597,555821,25371
1515.71,1.338700,550344,25231
1519.87,1.339421,543983,24898
1522.99,1.345810,538764,24299
1526.1,1.338213,533692,24495
1529.21,1.340680,527902,24092
1532.32,1.335342,521886,24112
1535.42,1.338798,515888,23646
1538.51,1.338993,509987,23365
1541.6,1.337018,503936,23193
1545.72,1.333952,494694,22929
1548.8,1.339187,488378,22365
1551.88,1.338287,481832,22111
1554.95,1.339784,474989,21722
1558.02,1.339623,467818,21402
1561.08,1.339205,460730,21098
1564.15,1.334875,454170,21006
1568.22,1.338996,444181,20350
1571.27,1.334326,436947,20235
1574.32,1.343496,429598,19479
1577.36,1.333362,422039,19588
1580.4,1.343605,414375,18784
1583.43,1.326554,406354,19158
1586.46,1.332315,398475,18539
1590.49,1.342128,388982,17693
1593.51,1.333921,380708,17647
1596.53,1.330742,372727,17404
1599.54,1.328176,365060,17147
1602.55,1.338220,357543,16410
1605.55,1.332855,349495,16240
1608.55,1.327530,341154,16048
1612.54,1.325180,330877,15649
1615.53,1.325320,322904,15267
1618.51,1.325897,315116,14879
1621.49,1.323449,307217,14588
1624.47,1.317464,299481,14418
1627.44,1.319452,292112,13999
1630.41,1.321497,284245,13558
1634.36,1.325438,274079,12955
1637.32,1.325178,266916,12624
1640.27,1.322939,259612,12342
1643.22,1.331654,251804,11733
1646.16,1.314804,244348,11836
1649.1,1.326734,236703,11155
1652.04,1.321512,228171,10883
1655.95,1.311948,215408,10503
1658.88,1.321948,204937,9765
1661.8,1.321291,193395,9229
1664.72,1.332877,179728,8351
1667.63,1.332624,163642,7608
1670.54,1.311764,146312,7137
1673.44,1.299312,128451,6448
1677.31,1.312759,105080,5114
1680.21,1.316879,88906,4286
1683.1,1.287093,75033,3874
1685.99,1.353124,63520,2817
1688.87,1.266493,53714,2908
1691.75,1.286926,45653,2358
1694.62,1.379335,39137,1634
1697.49,1.212218,33776,2072
1701.31,1.448563,28175,1003

File: Column 1_078054_20241121_164313.csv
Method:,Column 1,,
Host Date-Time:,21/11/24 @ 16:43:13,,
Header Version:,1,,
System Temp (C):,31.01,,
Detector Temp (C):,25.79,,
Humidity (%):,5.37,,
Lamp PD:,3809,,
Shift Vector Coefficients:,-10.5391,0.0761263,-0.000134223,,
Pixel to Wavelength Coefficients:,1775.68,-0.916766,-0.000235065,,
Serial Number:,5510004,,
Scan Config Name:,Column 1,,
Scan Config Type:,Slew,,
Section 1,,
Start wavelength (nm):,900,,
End wavelength (nm):,1700,,
Pattern Pixel Width (nm):,   7.03,,,,
Exposure (ms):,  0.635,,,,
Digital Resolution:,228,,
Num Repeats:,6,,
PGA Gain:,64,,
Total Measurement Time in sec:,  2.721,,
Wavelength (nm),Absorbance (AU),Reference Signal (unitless),Sample Signal (unitless)
901.51,1.297065,108485,5474
905.376,1.353908,121306,5370
909.237,1.299810,131909,6614
913.095,1.317205,143299,6903
916.948,1.346553,156982,7068
922.079,1.313808,179937,8736
925.923,1.313832,200504,9734
929.762,1.318786,222660,10687
933.597,1.303107,244426,12163
937.427,1.316934,263972,12724
941.254,1.319194,281845,13515
945.076,1.324889,297271,14069
950.165,1.304352,315605,15660
953.978,1.314351,328029,15906
957.786,1.321600,340470,16236
961.59,1.311102,352317,17212
965.389,1.300595,363056,18171
969.185,1.297324,373162,18818
972.976,1.311311,382632,18684
976.763,1.312848,391202,19035
981.806,1.310498,400190,19578
985.583,1.308982,406088,19936
989.355,1.299447,410162,20583
993.124,1.315346,412868,19974
996.888,1.312872,414263,20156
1000.65,1.315847,415476,20077
1004.4,1.308196,415479,20434
1009.41,1.306491,414358,20459
1013.15,1.308972,412923,20272
1016.89,1.306816,411526,20304
1020.63,1.315589,409066,19779
1024.36,1.304952,406777,20156
1028.09,1.316872,404427,19497
1031.82,1.314563,401911,19479
1036.78,1.308340,398410,19588
1040.49,1.311889,396204,19321
1044.2,1.316477,394236,19023
1047.91,1.308654,392042,19261
1051.61,1.311223,389823,19039
1055.31,1.321969,388234,18498
1059,1.309949,387599,18986
1063.92,1.323606,386688,18355
1067.61,1.308895,386598,18983
1071.29,1.322868,387377,18419
1074.96,1.313613,388536,18872
1078.63,1.319317,389855,18689
1082.3,1.317173,391215,18847
1085.96,1.312938,393215,19129
1090.84,1.315709,396270,19155
1094.49,1.320042,398760,19084
1098.14,1.312473,400987,19528
1101.79,1.314672,403477,19550
1105.43,1.320759,406116,19404
1109.06,1.314489,407701,19763
1112.7,1.321199,409859,19563
1117.53,1.321238,412494,19687
1121.15,1.317531,414909,19972
1124.77,1.323934,416559,19758
1128.38,1.321873,418532,19946
1131.99,1.316500,419956,20263
1135.6,1.324988,421946,19965
1139.2,1.319791,423881,20298
1143.99,1.328161,426786,20047
1147.58,1.325473,428617,20258
1151.17,1.324911,431169,20405
1154.75,1.318462,433579,20826
1158.33,1.322417,436264,20765
1161.91,1.331859,439132,20452
1165.48,1.317262,442389,21308
1169.04,1.321258,446101,21290
1173.79,1.318090,451929,21726
1177.34,1.321051,456026,21774
1180.9,1.326550,461306,21749
1184.44,1.321700,467657,22296
1187.99,1.319724,473969,22700
1191.52,1.322187,479856,22852
1195.06,1.327002,487372,22954
1199.76,1.323416,497347,23618
1203.29,1.327895,504311,23703
1206.81,1.328007,511507,24035
1210.33,1.326616,519078,24469
1213.84,1.324874,527163,24950
1217.35,1.332909,534208,24820
1220.85,1.324008,540472,25631
1225.51,1.328300,549929,25823
1229.01,1.321425,556888,26567
1232.5,1.327795,562180,26429
1235.98,1.322821,567975,27009
1239.46,1.318761,574815,27591
1242.94,1.326063,582782,27507
1246.41,1.324066,591476,28046
1251.03,1.328021,604016,28381
1254.5,1.326675,612289,28859
1257.96,1.322811,619125,29442
1261.41,1.324159,624551,29608
1264.86,1.324487,629900,29839
1268.31,1.332445,634345,29504
1271.75,1.331053,638574,29796
1276.33,1.328758,642499,30138
1279.76,1.323681,645905,30654
1283.19,1.332810,648307,30128
1286.61,1.331239,650446,30337
1290.03,1.330848,652132,30443
1293.44,1.327883,653907,30735
1296.85,1.330973,655963,30613
1301.39,1.329513,657349,30781
1304.8,1.331716,657558,30635
1308.19,1.338789,658515,30184
1311.58,1.331434,658804,30713
1314.97,1.331344,659011,30729
1318.36,1.334462,658272,30475
1321.73,1.333556,658022,30527
1326.23,1.334082,657870,30483
1329.6,1.329053,656482,30773
1332.97,1.328997,654926,30704
1336.33,1.327029,653727,30787
1339.69,1.340464,652497,29793
1343.04,1.327588,649913,30568
1346.39,1.332600,647671,30113
1349.73,1.333231,645338,29961
1354.18,1.333738,641175,29733
1357.52,1.329420,638376,29899
1360.85,1.327958,635805,29879
1364.17,1.330938,633413,29563
1367.49,1.329799,631026,29529
1370.81,1.333281,628050,29155
1374.12,1.327350,625034,29414
1378.54,1.328316,620272,29125
1381.84,1.329236,616892,28905
1385.14,1.327689,613613,28854
1388.43,1.331707,611526,28491
1391.72,1.334768,610663,28251
1395.01,1.329719,610634,28580
1398.29,1.334139,611700,28340
1402.66,1.331156,614051,28645
1405.93,1.331857,616268,28702
1409.2,1.336182,617795,28488
1412.46,1.333144,618872,28738
1415.72,1.328908,619795,29063
1418.98,1.333436,620495,28794
1422.23,1.333338,621087,28828
1426.56,1.335502,621375,28698
1429.8,1.334945,621616,28746
1433.04,1.337089,622129,28628
1436.27,1.337184,621526,28594
1439.5,1.333854,621113,28795
1442.72,1.331478,620921,28944
1445.94,1.341040,620270,28284
1450.23,1.337739,618860,28435
1453.44,1.334561,617697,28590
1456.64,1.333826,616264,28572
1459.85,1.341970,614413,27957
1463.04,1.337661,612307,28139
1466.24,1.330097,610032,28527
1469.43,1.336572,607345,27981
1473.67,1.337826,603789,27737
1476.85,1.334862,601175,27806
1480.02,1.336152,597737,27565
1483.19,1.336655,594479,27383
1486.36,1.338757,591232,27102
1489.52,1.334876,587853,27189
1492.68,1.337667,583875,26832
1496.89,1.341491,578062,26332
1500.03,1.338383,574159,26342
1503.18,1.337443,570285,26221
1506.32,1.341140,565444,25778
1509.45,1.336506,560571,25830
1512.58,1.337799,555821,25535
1515.71,1.341203,550344,25086
1519.87,1.343011,543983,24693
1522.99,1.351912,538764,23960
1526.1,1.335544,533692,24646
1529.21,1.341438,527902,24050
1532.32,1.339723,521886,23870
1535.42,1.334903,515888,23859
1538.51,1.336122,509987,23520
1541.6,1.338895,503936,23093
1545.72,1.329448,494694,23168
1548.8,1.338043,488378,22424
1551.88,1.334747,481832,22292
1554.95,1.342833,474989,21570
1558.02,1.344171,467818,21179
1561.08,1.338033,460730,21155
1564.15,1.336304,454170,20937
1568.22,1.333482,444181,20610
1571.27,1.343413,436947,19816
1574.32,1.340186,429598,19628
1577.36,1.330666,422039,19710
1580.4,1.339716,414375,18953
1583.43,1.340748,406354,18542
1586.46,1.327585,398475,18742
1590.49,1.332491,388982,18090
1593.51,1.332349,380708,17711
1596.53,1.332166,372727,17347
1599.54,1.324193,365060,17305
1602.55,1.342849,357543,16236
1605.55,1.329313,349495,16373
1608.55,1.327502,341154,16049
1612.54,1.334039,330877,15333
1615.53,1.317734,322904,15536
1618.51,1.324702,315116,14920
1621.49,1.332960,307217,14272
1624.47,1.329219,299481,14033
1627.44,1.330926,292112,13634
1630.41,1.319611,284245,13617
1634.36,1.329412,274079,12837
1637.32,1.323838,266916,12663
1640.27,1.329141,259612,12167
1643.22,1.327271,251804,11852
1646.16,1.309915,244348,11970
1649.1,1.329899,236703,11074
1652.04,1.319402,228171,10936
1655.95,1.330189,215408,10071
1658.88,1.329304,204937,9601
1661.8,1.321338,193395,9228
1664.72,1.311517,179728,8772
1667.63,1.320688,163642,7820
1670.54,1.328703,146312,6864
1673.44,1.358075,128451,5632
1677.31,1.330439,105080,4910
1680.21,1.344597,88906,4021
1683.1,1.325514,75033,3546
1685.99,1.380321,63520,2646
1688.87,1.350419,53714,2397
1691.75,1.238359,45653,2637
1694.62,1.276617,39137,2070
1697.49,1.517461,33776,1026
1701.31,1.211567,28175,1731

File: Column 1_078057_20241121_164322.csv
Method:,Column 1,,
Host Date-Time:,21/11/24 @ 16:43:22,,
Header Version:,1,,
System Temp (C):,31.11,,
Detector Temp (C):,25.86,,
Humidity (%):,5.37,,
Lamp PD:,3810,,
Shift Vector Coefficients:,-10.5391,0.0761263,-0.000134223,,
Pixel to Wavelength Coefficients:,1775.68,-0.916766,-0.000235065,,
Serial Number:,5510004,,
Scan Config Name:,Column 1,,
Scan Config Type:,Slew,,
Section 1,,
Start wavelength (nm):,900,,
End wavelength (nm):,1700,,
Pattern Pixel Width (nm):,   7.03,,,,
Exposure (ms):,  0.635,,,,
Digital Resolution:,228,,
Num Repeats:,6,,
PGA Gain:,64,,
Total Measurement Time in sec:,  2.706,,
Wavelength (nm),Absorbance (AU),Reference Signal (unitless),Sample Signal (unitless)
901.51,1.321040,108485,5180
905.376,1.333528,121306,5628
909.237,1.311119,131909,6444
913.095,1.314071,143299,6953
916.948,1.302033,156982,7831
922.079,1.326520,179937,8484
925.923,1.310675,200504,9805
929.762,1.305461,222660,11020
933.597,1.303035,244426,12165
937.427,1.305482,263972,13064
941.254,1.313956,281845,13679
945.076,1.316482,297271,14344
950.165,1.308868,315605,15498
953.978,1.308170,328029,16134
957.786,1.307649,340470,16766
961.59,1.312644,352317,17151
965.389,1.304967,363056,17989
969.185,1.304585,373162,18506
972.976,1.314344,382632,18554
976.763,1.300899,391202,19566
981.806,1.305184,400190,19819
985.583,1.309440,406088,19915
989.355,1.306337,410162,20259
993.124,1.297351,412868,20819
996.888,1.311495,414263,20220
1000.65,1.307343,415476,20474
1004.4,1.309921,415479,20353
1009.41,1.302477,414358,20649
1013.15,1.308780,412923,20281
1016.89,1.307479,411526,20273
1020.63,1.307389,409066,20156
1024.36,1.307502,406777,20038
1028.09,1.315671,404427,19551
1031.82,1.299015,401911,20189
1036.78,1.298953,398410,20016
1040.49,1.304446,396204,19655
1044.2,1.309322,394236,19339
1047.91,1.314305,392042,19012
1051.61,1.307996,389823,19181
1055.31,1.312931,388234,18887
1059,1.318473,387599,18617
1063.92,1.311198,386688,18887
1067.61,1.311580,386598,18866
1071.29,1.313976,387377,18800
1074.96,1.318589,388536,18657
1078.63,1.319503,389855,18681
1082.3,1.313982,391215,18986
1085.96,1.322649,393215,18706
1090.84,1.312681,396270,19289
1094.49,1.315717,398760,19275
1098.14,1.315015,400987,19414
1101.79,1.317391,403477,19428
1105.43,1.312182,406116,19791
1109.06,1.312341,407701,19861
1112.7,1.311648,409859,19998
1117.53,1.312222,412494,20100
1121.15,1.319952,414909,19861
1124.77,1.326137,416559,19658
1128.38,1.313826,418532,20319
1131.99,1.321241,419956,20043
1135.6,1.315244,421946,20418
1139.2,1.318509,423881,20358
1143.99,1.316786,426786,20579
1147.58,1.322141,428617,20414
1151.17,1.320127,431169,20631
1154.75,1.318713,433579,20814
1158.33,1.318607,436264,20948
1161.91,1.316977,439132,21165
1165.48,1.317710,442389,21286
1169.04,1.325727,446101,21072
1173.79,1.323582,451929,21453
1177.34,1.313008,456026,22181
1180.9,1.321448,461306,22006
1184.44,1.316569,467657,22561
1187.99,1.316826,473969,22852
1191.52,1.325181,479856,22695
1195.06,1.319239,487372,23368
1199.76,1.313563,497347,24160
1203.29,1.322632,504311,23992
1206.81,1.318977,511507,24540
1210.33,1.313780,519078,25203
1213.84,1.326025,527163,24884
1217.35,1.323613,534208,25357
1220.85,1.322013,540472,25749
1225.51,1.321277,549929,26244
1229.01,1.324625,556888,26372
1232.5,1.328485,562180,26387
1235.98,1.326940,567975,26754
1239.46,1.322650,574815,27345
1242.94,1.326252,582782,27495
1246.41,1.325913,591476,27927
1251.03,1.325716,604016,28532
1254.5,1.325068,612289,28966
1257.96,1.322266,619125,29479
1261.41,1.328389,624551,29321
1264.86,1.326735,629900,29685
1268.31,1.326538,634345,29908
1271.75,1.329540,638574,29900
1276.33,1.332376,642499,29888
1279.76,1.329889,645905,30219
1283.19,1.330840,648307,30265
1286.61,1.330366,650446,30398
1290.03,1.327438,652132,30683
1293.44,1.328052,653907,30723
1296.85,1.335036,655963,30328
1301.39,1.328372,657349,30862
1304.8,1.332852,657558,30555
1308.19,1.336564,658515,30339
1311.58,1.325856,658804,31110
1314.97,1.331189,659011,30740
1318.36,1.327366,658272,30977
1321.73,1.329605,658022,30806
1326.23,1.331554,657870,30661
1329.6,1.331161,656482,30624
1332.97,1.337092,654926,30137
1336.33,1.335030,653727,30225
1339.69,1.340814,652497,29769
1343.04,1.328826,649913,30481
1346.39,1.328881,647671,30372
1349.73,1.325473,645338,30501
1354.18,1.330536,641175,29953
1357.52,1.331940,638376,29726
1360.85,1.330129,635805,29730
1364.17,1.326394,633413,29874
1367.49,1.328917,631026,29589
1370.81,1.330002,628050,29376
1374.12,1.329511,625034,29268
1378.54,1.319636,620272,29713
1381.84,1.324365,616892,29231
1385.14,1.325841,613613,28977
1388.43,1.328382,611526,28710
1391.72,1.322760,610663,29043
1395.01,1.323892,610634,28966
1398.29,1.331221,611700,28531
1402.66,1.331110,614051,28648
1405.93,1.330588,616268,28786
1409.2,1.332448,617795,28734
1412.46,1.333235,618872,28732
1415.72,1.325959,619795,29261
1418.98,1.332337,620495,28867
1422.23,1.332691,621087,28871
1426.56,1.332396,621375,28904
1429.8,1.335066,621616,28738
1433.04,1.330480,622129,29067
1436.27,1.339041,621526,28472
1439.5,1.327357,621113,29229
1442.72,1.338009,620921,28512
1445.94,1.333203,620270,28799
1450.23,1.331447,618860,28850
1453.44,1.339726,617697,28252
1456.64,1.335318,616264,28474
1459.85,1.339615,614413,28109
1463.04,1.338943,612307,28056
1466.24,1.337544,610032,28042
1469.43,1.335642,607345,28041
1473.67,1.330775,603789,28191
1476.85,1.334753,601175,27813
1480.02,1.328577,597737,28050
1483.19,1.337084,594479,27356
1486.36,1.335389,591232,27313
1489.52,1.343376,587853,26662
1492.68,1.340281,583875,26671
1496.89,1.338270,578062,26528
1500.03,1.332667,574159,26691
1503.18,1.345652,570285,25730
1506.32,1.335134,565444,26137
1509.45,1.337196,560571,25789
1512.58,1.345867,555821,25065
1515.71,1.332751,550344,25579
1519.87,1.339683,543983,24883
1522.99,1.337999,538764,24740
1526.1,1.337912,533692,24512
1529.21,1.336554,527902,24322
1532.32,1.340360,521886,23835
1535.42,1.338265,515888,23675
1538.51,1.332005,509987,23744
1541.6,1.339027,503936,23086
1545.72,1.339153,494694,22656
1548.8,1.330364,488378,22824
1551.88,1.334844,481832,22287
1554.95,1.335150,474989,21955
1558.02,1.347961,467818,20995
1561.08,1.338136,460730,21150
1564.15,1.334958,454170,21002
1568.22,1.331758,444181,20692
1571.27,1.327744,436947,20544
1574.32,1.336573,429598,19792
1577.36,1.336723,422039,19437
1580.4,1.336337,414375,19101
1583.43,1.329124,406354,19045
1586.46,1.338591,398475,18273
1590.49,1.326459,388982,18343
1593.51,1.328395,380708,17873
1596.53,1.334350,372727,17260
1599.54,1.331558,365060,17014
1602.55,1.329365,357543,16748
1605.55,1.330694,349495,16321
1608.55,1.339019,341154,15629
1612.54,1.330176,330877,15470
1615.53,1.332172,322904,15028
1618.51,1.329443,315116,14758
1621.49,1.318800,307217,14745
1624.47,1.316111,299481,14463
1627.44,1.335023,292112,13506
1630.41,1.320409,284245,13592
1634.36,1.319413,274079,13136
1637.32,1.306723,266916,13172
1640.27,1.336376,259612,11966
1643.22,1.324896,251804,11917
1646.16,1.322728,244348,11622
1649.1,1.315664,236703,11443
1652.04,1.327620,228171,10731
1655.95,1.311659,215408,10510
1658.88,1.324133,204937,9716
1661.8,1.313040,193395,9406
1664.72,1.341067,179728,8195
1667.63,1.323194,163642,7775
1670.54,1.314266,146312,7096
1673.44,1.315226,128451,6216
1677.31,1.308366,105080,5166
1680.21,1.315665,88906,4298
1683.1,1.316664,75033,3619
1685.99,1.314219,63520,3081
1688.87,1.318636,53714,2579
1691.75,1.187005,45653,2968
1694.62,1.344369,39137,1771
1697.49,1.315622,33776,1633
1701.31,1.352954,28175,1250