Folder: textile_sorting_NIRSCAN_/samples/unknown (part 3)

File: Column 1_078018_20241121_164128.csv
Method:,Column 1,,
Host Date-Time:,21/11/24 @ 16:41:28,,
Header Version:,1,,
System Temp (C):,29.66,,
Detector Temp (C):,24.86,,
Humidity (%):,7.11,,
Lamp PD:,3814,,
Shift Vector Coefficients:,-10.5391,0.0761263,-0.000134223,,
Pixel to Wavelength Coefficients:,1775.68,-0.916766,-0.000235065,,
Serial Number:,5510004,,
Scan Config Name:,Column 1,,
Scan Config Type:,Slew,,
Section 1,,
Start wavelength (nm):,900,,
End wavelength (nm):,1700,,
Pattern Pixel Width (nm):,   7.03,,,,
Exposure (ms):,  0.635,,,,
Digital Resolution:,228,,
Num Repeats:,6,,
PGA Gain:,64,,
Total Measurement Time in sec:,  2.707,,
Wavelength (nm),Absorbance (AU),Reference Signal (unitless),Sample Signal (unitless)
901.51,1.322888,108485,5158
905.376,1.295997,121306,6136
909.237,1.316203,131909,6369
913.095,1.301755,143299,7153
916.948,1.324160,156982,7442
922.079,1.303929,179937,8937
925.923,1.295358,200504,10157
929.762,1.295487,222660,11276
933.597,1.302607,244426,12177
937.427,1.311912,263972,12872
941.254,1.325474,281845,13321
945.076,1.304419,297271,14748
950.165,1.311426,315605,15407
953.978,1.313097,328029,15952
957.786,1.307028,340470,16790
961.59,1.308185,352317,17328
965.389,1.300953,363056,18156
969.185,1.306231,373162,18436
972.976,1.304943,382632,18960
976.763,1.308648,391202,19220
981.806,1.317047,400190,19285
985.583,1.306506,406088,20050
989.355,1.318247,410162,19711
993.124,1.313589,412868,20055
996.888,1.312463,414263,20175
1000.65,1.312121,415476,20250
1004.4,1.303167,415479,20672
1009.41,1.305664,414358,20498
1013.15,1.299018,412923,20742
1016.89,1.313758,411526,19982
1020.63,1.316842,409066,19722
1024.36,1.311859,406777,19838
1028.09,1.310438,404427,19788
1031.82,1.315054,401911,19457
1036.78,1.315561,398410,19265
1040.49,1.314663,396204,19198
1044.2,1.304276,394236,19565
1047.91,1.309760,392042,19212
1051.61,1.306166,389823,19262
1055.31,1.315768,388234,18764
1059,1.318986,387599,18595
1063.92,1.318900,386688,18555
1067.61,1.322465,386598,18399
1071.29,1.305014,387377,19192
1074.96,1.315597,388536,18786
1078.63,1.316768,389855,18799
1082.3,1.303429,391215,19453
1085.96,1.315922,393215,18998
1090.84,1.311692,396270,19333
1094.49,1.310276,398760,19518
1098.14,1.321688,400987,19118
1101.79,1.317749,403477,19412
1105.43,1.320513,406116,19415
1109.06,1.316317,407701,19680
1112.7,1.316430,409859,19779
1117.53,1.320181,412494,19735
1121.15,1.317618,414909,19968
1124.77,1.323165,416559,19793
1128.38,1.316743,418532,20183
1131.99,1.320008,419956,20100
1135.6,1.319111,421946,20237
1139.2,1.324437,423881,20082
1143.99,1.330441,426786,19942
1147.58,1.327019,428617,20186
1151.17,1.318342,431169,20716
1154.75,1.317442,433579,20875
1158.33,1.325019,436264,20641
1161.91,1.323656,439132,20842
1165.48,1.320104,442389,21169
1169.04,1.327566,446101,20983
1173.79,1.325083,451929,21379
1177.34,1.322870,456026,21683
1180.9,1.320246,461306,22067
1184.44,1.323888,467657,22184
1187.99,1.321123,473969,22627
1191.52,1.327483,479856,22575
1195.06,1.324945,487372,23063
1199.76,1.323766,497347,23599
1203.29,1.328977,504311,23644
1206.81,1.320893,511507,24432
1210.33,1.321815,519078,24741
1213.84,1.331893,527163,24550
1217.35,1.332804,534208,24826
1220.85,1.325365,540472,25551
1225.51,1.319246,549929,26367
1229.01,1.326209,556888,26276
1232.5,1.321595,562180,26809
1235.98,1.326892,567975,26757
1239.46,1.330907,574815,26830
1242.94,1.322682,582782,27722
1246.41,1.319522,591476,28341
1251.03,1.328067,604016,28378
1254.5,1.330059,612289,28635
1257.96,1.326827,619125,29171
1261.41,1.327797,624551,29361
1264.86,1.327511,629900,29632
1268.31,1.329671,634345,29693
1271.75,1.334830,638574,29538
1276.33,1.330664,642499,30006
1279.76,1.332194,645905,30059
1283.19,1.326315,648307,30582
1286.61,1.328641,650446,30519
1290.03,1.332291,652132,30342
1293.44,1.334561,653907,30266
1296.85,1.332722,655963,30490
1301.39,1.336210,657349,30310
1304.8,1.331475,657558,30652
1308.19,1.328396,658515,30915
1311.58,1.335041,658804,30459
1314.97,1.331882,659011,30691
1318.36,1.335861,658272,30377
1321.73,1.337085,658022,30280
1326.23,1.335409,657870,30390
1329.6,1.333550,656482,30456
1332.97,1.333962,654926,30355
1336.33,1.332609,653727,30394
1339.69,1.333509,652497,30274
1343.04,1.331986,649913,30260
1346.39,1.334364,647671,29991
1349.73,1.335294,645338,29819
1354.18,1.330130,641175,29981
1357.52,1.336966,638376,29384
1360.85,1.330787,635805,29685
1364.17,1.335309,633413,29267
1367.49,1.332424,631026,29351
1370.81,1.329322,628050,29422
1374.12,1.330179,625034,29223
1378.54,1.332316,620272,28858
1381.84,1.328171,616892,28976
1385.14,1.331270,613613,28617
1388.43,1.327989,611526,28736
1391.72,1.326530,610663,28792
1395.01,1.331928,610634,28435
1398.29,1.335428,611700,28256
1402.66,1.334550,614051,28422
1405.93,1.331661,616268,28715
1409.2,1.335162,617795,28555
1412.46,1.332465,618872,28783
1415.72,1.333625,619795,28749
1418.98,1.330610,620495,28982
1422.23,1.330350,621087,29027
1426.56,1.335578,621375,28693
1429.8,1.330989,621616,29009
1433.04,1.335409,622129,28739
1436.27,1.332622,621526,28896
1439.5,1.334518,621113,28751
1442.72,1.336640,620921,28602
1445.94,1.334653,620270,28703
1450.23,1.337816,618860,28430
1453.44,1.340157,617697,28224
1456.64,1.334617,616264,28520
1459.85,1.341939,614413,27959
1463.04,1.338402,612307,28091
1466.24,1.341980,610032,27757
1469.43,1.341473,607345,27667
1473.67,1.341663,603789,27493
1476.85,1.337526,601175,27636
1480.02,1.338522,597737,27415
1483.19,1.335642,594479,27447
1486.36,1.336423,591232,27248
1489.52,1.336957,587853,27059
1492.68,1.340443,583875,26661
1496.89,1.336342,578062,26646
1500.03,1.339390,574159,26281
1503.18,1.343312,570285,25869
1506.32,1.341545,565444,25754
1509.45,1.340985,560571,25565
1512.58,1.343500,555821,25202
1515.71,1.342104,550344,25034
1519.87,1.342098,543983,24745
1522.99,1.340075,538764,24622
1526.1,1.335174,533692,24667
1529.21,1.336447,527902,24328
1532.32,1.336479,521886,24049
1535.42,1.339128,515888,23628
1538.51,1.340763,509987,23270
1541.6,1.337374,503936,23174
1545.72,1.337603,494694,22737
1548.8,1.340568,488378,22294
1551.88,1.336582,481832,22198
1554.95,1.339045,474989,21759
1558.02,1.338144,467818,21475
1561.08,1.345028,460730,20817
1564.15,1.330801,454170,21204
1568.22,1.332156,444181,20673
1571.27,1.336068,436947,20154
1574.32,1.333533,429598,19931
1577.36,1.337730,422039,19392
1580.4,1.336337,414375,19101
1583.43,1.340046,406354,18572
1586.46,1.332854,398475,18516
1590.49,1.349131,388982,17410
1593.51,1.332422,380708,17708
1596.53,1.342477,372727,16940
1599.54,1.337184,365060,16795
1602.55,1.328640,357543,16776
1605.55,1.338345,349495,16036
1608.55,1.341080,341154,15555
1612.54,1.336824,330877,15235
1615.53,1.334955,322904,14932
1618.51,1.316427,315116,15207
1621.49,1.333478,307217,14255
1624.47,1.326996,299481,14105
1627.44,1.329527,292112,13678
1630.41,1.331444,284245,13251
1634.36,1.329852,274079,12824
1637.32,1.323667,266916,12668
1640.27,1.333951,259612,12033
1643.22,1.327344,251804,11850
1646.16,1.328218,244348,11476
1649.1,1.331077,236703,11044
1652.04,1.328309,228171,10714
1655.95,1.335177,215408,9956
1658.88,1.332847,204937,9523
1661.8,1.331817,193395,9008
1664.72,1.319159,179728,8619
1667.63,1.342614,163642,7435
1670.54,1.336556,146312,6741
1673.44,1.374818,128451,5419
1677.31,1.317627,105080,5057
1680.21,1.387472,88906,3643
1683.1,1.389673,75033,3059
1685.99,1.347457,63520,2854
1688.87,1.307826,53714,2644
1691.75,1.424952,45653,1716
1694.62,1.321211,39137,1868
1697.49,1.374793,33776,1425
1701.31,1.261780,28175,1542

File: Column 1_078019_20241121_164131.csv
Method:,Column 1,,
Host Date-Time:,21/11/24 @ 16:41:31,,
Header Version:,1,,
System Temp (C):,29.68,,
Detector Temp (C):,24.92,,
Humidity (%):,7.2,,
Lamp PD:,3813,,
Shift Vector Coefficients:,-10.5391,0.0761263,-0.000134223,,
Pixel to Wavelength Coefficients:,1775.68,-0.916766,-0.000235065,,
Serial Number:,5510004,,
Scan Config Name:,Column 1,,
Scan Config Type:,Slew,,
Section 1,,
Start wavelength (nm):,900,,
End wavelength (nm):,1700,,
Pattern Pixel Width (nm):,   7.03,,,,
Exposure (ms):,  0.635,,,,
Digital Resolution:,228,,
Num Repeats:,6,,
PGA Gain:,64,,
Total Measurement Time in sec:,  2.706,,
Wavelength (nm),Absorbance (AU),Reference Signal (unitless),Sample Signal (unitless)
901.51,1.285556,108485,5621
905.376,1.308782,121306,5958
909.237,1.297322,131909,6652
913.095,1.320299,143299,6854
916.948,1.308683,156982,7712
922.079,1.294317,179937,9137
925.923,1.316158,200504,9682
929.762,1.313014,222660,10830
933.597,1.307413,244426,12043
937.427,1.307080,263972,13016
941.254,1.308623,281845,13848
945.076,1.304066,297271,14760
950.165,1.313234,315605,15343
953.978,1.305326,328029,16240
957.786,1.303319,340470,16934
961.59,1.299034,352317,17697
965.389,1.316415,363056,17521
969.185,1.307906,373162,18365
972.976,1.300771,382632,19143
976.763,1.305339,391202,19367
981.806,1.309412,400190,19627
985.583,1.325523,406088,19191
989.355,1.306831,410162,20236
993.124,1.307289,412868,20348
996.888,1.307646,414263,20400
1000.65,1.308660,415476,20412
1004.4,1.311695,415479,20270
1009.41,1.306916,414358,20439
1013.15,1.313646,412923,20055
1016.89,1.309691,411526,20170
1020.63,1.314755,409066,19817
1024.36,1.304478,406777,20178
1028.09,1.311955,404427,19719
1031.82,1.309862,401911,19691
1036.78,1.311790,398410,19433
1040.49,1.309938,396204,19408
1044.2,1.304010,394236,19577
1047.91,1.308767,392042,19256
1051.61,1.309607,389823,19110
1055.31,1.317624,388234,18684
1059,1.318496,387599,18616
1063.92,1.308516,386688,19004
1067.61,1.310959,386598,18893
1071.29,1.311994,387377,18886
1074.96,1.309947,388536,19032
1078.63,1.310279,389855,19082
1082.3,1.317358,391215,18839
1085.96,1.313074,393215,19123
1090.84,1.308157,396270,19491
1094.49,1.311190,398760,19477
1098.14,1.318406,400987,19263
1101.79,1.307665,403477,19868
1105.43,1.312841,406116,19761
1109.06,1.319684,407701,19528
1112.7,1.311909,409859,19986
1117.53,1.325829,412494,19480
1121.15,1.321441,414909,19793
1124.77,1.321872,416559,19852
1128.38,1.324625,418532,19820
1131.99,1.323893,419956,19921
1135.6,1.329162,421946,19774
1139.2,1.319577,423881,20308
1143.99,1.321603,426786,20352
1147.58,1.315030,428617,20751
1151.17,1.319160,431169,20677
1154.75,1.313156,433579,21082
1158.33,1.312370,436264,21251
1161.91,1.319591,439132,21038
1165.48,1.311451,442389,21595
1169.04,1.320076,446101,21348
1173.79,1.321643,451929,21549
1177.34,1.319081,456026,21873
1180.9,1.321507,461306,22003
1184.44,1.322968,467657,22231
1187.99,1.314060,473969,22998
1191.52,1.326542,479856,22624
1195.06,1.326227,487372,22995
1199.76,1.323766,497347,23599
1203.29,1.319134,504311,24186
1206.81,1.320928,511507,24430
1210.33,1.315127,519078,25125
1213.84,1.318893,527163,25296
1217.35,1.320404,534208,25545
1220.85,1.332926,540472,25110
1225.51,1.322669,549929,26160
1229.01,1.329460,556888,26080
1232.5,1.325418,562180,26574
1235.98,1.327802,567975,26701
1239.46,1.318383,574815,27615
1242.94,1.328152,582782,27375
1246.41,1.324035,591476,28048
1251.03,1.322109,604016,28770
1254.5,1.325953,612289,28907
1257.96,1.323934,619125,29366
1261.41,1.330483,624551,29180
1264.86,1.331752,629900,29344
1268.31,1.327410,634345,29848
1271.75,1.329293,638574,29917
1276.33,1.327147,642499,30250
1279.76,1.327910,645905,30357
1283.19,1.330740,648307,30272
1286.61,1.330052,650446,30420
1290.03,1.331191,652132,30419
1293.44,1.331786,653907,30460
1296.85,1.335551,655963,30292
1301.39,1.331224,657349,30660
1304.8,1.325649,657558,31066
1308.19,1.337955,658515,30242
1311.58,1.329670,658804,30838
1314.97,1.335434,659011,30441
1318.36,1.334419,658272,30478
1321.73,1.328324,658022,30897
1326.23,1.329857,657870,30781
1329.6,1.332197,656482,30551
1332.97,1.330343,654926,30609
1336.33,1.333495,653727,30332
1339.69,1.332649,652497,30334
1343.04,1.334563,649913,30081
1346.39,1.333077,647671,30080
1349.73,1.330198,645338,30171
1354.18,1.329595,641175,30018
1357.52,1.324595,638376,30233
1360.85,1.328860,635805,29817
1364.17,1.337257,633413,29136
1367.49,1.328961,631026,29586
1370.81,1.333460,628050,29143
1374.12,1.331027,625034,29166
1378.54,1.325552,620272,29311
1381.84,1.323371,616892,29298
1385.14,1.331544,613613,28599
1388.43,1.325758,611526,28884
1391.72,1.330881,610663,28505
1395.01,1.327521,610634,28725
1398.29,1.326137,611700,28867
1402.66,1.328706,614051,28807
1405.93,1.333844,616268,28571
1409.2,1.332675,617795,28719
1412.46,1.328664,618872,29036
1415.72,1.331380,619795,28898
1418.98,1.330595,620495,28983
1422.23,1.332300,621087,28897
1426.56,1.332276,621375,28912
1429.8,1.334537,621616,28773
1433.04,1.335348,622129,28743
1436.27,1.333013,621526,28870
1439.5,1.337093,621113,28581
1442.72,1.336686,620921,28599
1445.94,1.330707,620270,28965
1450.23,1.336215,618860,28535
1453.44,1.333333,617697,28671
1456.64,1.329350,616264,28868
1459.85,1.333433,614413,28512
1463.04,1.337074,612307,28177
1466.24,1.338971,610032,27950
1469.43,1.335503,607345,28050
1473.67,1.338217,603789,27712
1476.85,1.333475,601175,27895
1480.02,1.332919,597737,27771
1483.19,1.332222,594479,27664
1486.36,1.336662,591232,27233
1489.52,1.347303,587853,26422
1492.68,1.342927,583875,26509
1496.89,1.330321,578062,27018
1500.03,1.342858,574159,26072
1503.18,1.333354,570285,26469
1506.32,1.340955,565444,25789
1509.45,1.335750,560571,25875
1512.58,1.336780,555821,25595
1515.71,1.339010,550344,25213
1519.87,1.337784,543983,24992
1522.99,1.336579,538764,24821
1526.1,1.336903,533692,24569
1529.21,1.337054,527902,24294
1532.32,1.342736,521886,23705
1535.42,1.343711,515888,23380
1538.51,1.333196,509987,23679
1541.6,1.340610,503936,23002
1545.72,1.337241,494694,22756
1548.8,1.342677,488378,22186
1551.88,1.338897,481832,22080
1554.95,1.339984,474989,21712
1558.02,1.334880,467818,21637
1561.08,1.336701,460730,21220
1564.15,1.328065,454170,21338
1568.22,1.335404,444181,20519
1571.27,1.334755,436947,20215
1574.32,1.332880,429598,19961
1577.36,1.328512,422039,19808
1580.4,1.339074,414375,18981
1583.43,1.336900,406354,18707
1586.46,1.336789,398475,18349
1590.49,1.336204,388982,17936
1593.51,1.333872,380708,17649
1596.53,1.332567,372727,17331
1599.54,1.336590,365060,16818
1602.55,1.347556,357543,16061
1605.55,1.324302,349495,16563
1608.55,1.325289,341154,16131
1612.54,1.336454,330877,15248
1615.53,1.331999,322904,15034
1618.51,1.325138,315116,14905
1621.49,1.317741,307217,14781
1624.47,1.329126,299481,14036
1627.44,1.327152,292112,13753
1630.41,1.326037,284245,13417
1634.36,1.319247,274079,13141
1637.32,1.314340,266916,12943
1640.27,1.319819,259612,12431
1643.22,1.312785,251804,12254
1646.16,1.328445,244348,11470
1649.1,1.325296,236703,11192
1652.04,1.322471,228171,10859
1655.95,1.323047,215408,10238
1658.88,1.331390,204937,9555
1661.8,1.315355,193395,9356
1664.72,1.328376,179728,8438
1667.63,1.320966,163642,7815
1670.54,1.346263,146312,6592
1673.44,1.336856,128451,5914
1677.31,1.340641,105080,4796
1680.21,1.383910,88906,3673
1683.1,1.336804,75033,3455
1685.99,1.329570,63520,2974
1688.87,1.245218,53714,3054
1691.75,1.354118,45653,2020
1694.62,1.227661,39137,2317
1697.49,1.264263,33776,1838
1701.31,1.375779,28175,1186

File: Column 1_078021_20241121_164137.csv
Method:,Column 1,,
Host Date-Time:,21/11/24 @ 16:41:37,,
Header Version:,1,,
System Temp (C):,29.78,,
Detector Temp (C):,24.92,,
Humidity (%):,7.2,,
Lamp PD:,3813,,
Shift Vector Coefficients:,-10.5391,0.0761263,-0.000134223,,
Pixel to Wavelength Coefficients:,1775.68,-0.916766,-0.000235065,,
Serial Number:,5510004,,
Scan Config Name:,Column 1,,
Scan Config Type:,Slew,,
Section 1,,
Start wavelength (nm):,900,,
End wavelength (nm):,1700,,
Pattern Pixel Width (nm):,   7.03,,,,
Exposure (ms):,  0.635,,,,
Digital Resolution:,228,,
Num Repeats:,6,,
PGA Gain:,64,,
Total Measurement Time in sec:,  2.710,,
Wavelength (nm),Absorbance (AU),Reference Signal (unitless),Sample Signal (unitless)
901.51,1.331391,108485,5058
905.376,1.325500,121306,5733
909.237,1.311321,131909,6441
913.095,1.296865,143299,7234
916.948,1.324335,156982,7439
922.079,1.307883,179937,8856
925.923,1.301299,200504,10019
929.762,1.320823,222660,10637
933.597,1.311762,244426,11923
937.427,1.305448,263972,13065
941.254,1.311708,281845,13750
945.076,1.305097,297271,14725
950.165,1.312103,315605,15383
953.978,1.314133,328029,15914
957.786,1.312730,340470,16571
961.59,1.309088,352317,17292
965.389,1.310457,363056,17763
969.185,1.313188,373162,18143
972.976,1.308647,382632,18799
976.763,1.311322,391202,19102
981.806,1.308926,400190,19649
985.583,1.314463,406088,19686
989.355,1.300947,410162,20512
993.124,1.312356,412868,20112
996.888,1.316007,414263,20011
1000.65,1.299190,415476,20862
1004.4,1.303314,415479,20665
1009.41,1.306449,414358,20461
1013.15,1.316536,412923,19922
1016.89,1.310338,411526,20140
1020.63,1.320025,409066,19578
1024.36,1.312450,406777,19811
1028.09,1.306093,404427,19987
1031.82,1.309179,401911,19722
1036.78,1.315674,398410,19260
1040.49,1.303144,396204,19714
1044.2,1.307373,394236,19426
1047.91,1.310190,392042,19193
1051.61,1.309766,389823,19103
1055.31,1.303491,388234,19302
1059,1.321516,387599,18487
1063.92,1.317918,386688,18597
1067.61,1.314513,386598,18739
1071.29,1.310479,387377,18952
1074.96,1.325819,388536,18349
1078.63,1.321273,389855,18605
1082.3,1.314394,391215,18968
1085.96,1.309929,393215,19262
1090.84,1.311108,396270,19359
1094.49,1.311814,398760,19449
1098.14,1.310232,400987,19629
1101.79,1.316096,403477,19486
1105.43,1.312512,406116,19776
1109.06,1.321043,407701,19467
1112.7,1.316628,409859,19770
1117.53,1.316914,412494,19884
1121.15,1.320039,414909,19857
1124.77,1.323165,416559,19793
1128.38,1.319441,418532,20058
1131.99,1.315858,419956,20293
1135.6,1.316970,421946,20337
1139.2,1.319299,423881,20321
1143.99,1.320133,426786,20421
1147.58,1.322695,428617,20388
1151.17,1.321498,431169,20566
1154.75,1.320658,433579,20721
1158.33,1.315714,436264,21088
1161.91,1.322241,439132,20910
1165.48,1.320494,442389,21150
1169.04,1.323630,446101,21174
1173.79,1.321482,451929,21557
1177.34,1.313989,456026,22131
1180.9,1.320423,461306,22058
1184.44,1.321545,467657,22304
1187.99,1.318559,473969,22761
1191.52,1.321997,479856,22862
1195.06,1.319165,487372,23372
1199.76,1.327147,497347,23416
1203.29,1.319009,504311,24193
1206.81,1.328532,511507,24006
1210.33,1.317188,519078,25006
1213.84,1.315030,527163,25522
1217.35,1.324693,534208,25294
1220.85,1.322941,540472,25694
1225.51,1.320268,549929,26305
1229.01,1.319631,556888,26677
1232.5,1.319639,562180,26930
1235.98,1.322885,567975,27005
1239.46,1.317001,574815,27703
1242.94,1.321336,582782,27808
1246.41,1.321673,591476,28201
1251.03,1.322698,604016,28731
1254.5,1.324903,612289,28977
1257.96,1.326262,619125,29209
1261.41,1.326719,624551,29434
1264.86,1.331664,629900,29350
1268.31,1.327352,634345,29852
1271.75,1.332119,638574,29723
1276.33,1.322890,642499,30548
1279.76,1.330406,645905,30183
1283.19,1.328593,648307,30422
1286.61,1.328499,650446,30529
1290.03,1.327820,652132,30656
1293.44,1.327558,653907,30758
1296.85,1.335422,655963,30301
1301.39,1.326785,657349,30975
1304.8,1.332340,657558,30591
1308.19,1.331512,658515,30694
1311.58,1.331462,658804,30711
1314.97,1.326971,659011,31040
1318.36,1.334191,658272,30494
1321.73,1.330862,658022,30717
1326.23,1.331469,657870,30667
1329.6,1.330552,656482,30667
1332.97,1.331480,654926,30529
1336.33,1.330769,653727,30523
1339.69,1.333824,652497,30252
1343.04,1.329510,649913,30433
1346.39,1.336730,647671,29828
1349.73,1.331206,645338,30101
1354.18,1.332789,641175,29798
1357.52,1.332203,638376,29708
1360.85,1.330845,635805,29681
1364.17,1.328507,633413,29729
1367.49,1.331198,631026,29434
1370.81,1.327290,628050,29560
1374.12,1.331176,625034,29156
1378.54,1.324826,620272,29360
1381.84,1.325869,616892,29130
1385.14,1.332456,613613,28539
1388.43,1.335581,611526,28238
1391.72,1.330089,610663,28557
1395.01,1.331165,610634,28485
1398.29,1.332014,611700,28479
1402.66,1.331429,614051,28627
1405.93,1.330981,616268,28760
1409.2,1.332887,617795,28705
1412.46,1.332223,618872,28799
1415.72,1.334049,619795,28721
1418.98,1.327906,620495,29163
1422.23,1.331999,621087,28917
1426.56,1.335654,621375,28688
1429.8,1.332925,621616,28880
1433.04,1.330226,622129,29084
1436.27,1.333359,621526,28847
1439.5,1.341906,621113,28266
1442.72,1.337385,620921,28553
1445.94,1.337325,620270,28527
1450.23,1.333438,618860,28718
1453.44,1.333348,617697,28670
1456.64,1.334176,616264,28549
1459.85,1.337027,614413,28277
1463.04,1.338077,612307,28112
1466.24,1.330599,610032,28494
1469.43,1.331925,607345,28282
1473.67,1.338547,603789,27691
1476.85,1.337636,601175,27629
1480.02,1.331451,597737,27865
1483.19,1.342725,594479,27003
1486.36,1.340073,591232,27020
1489.52,1.357868,587853,25787
1492.68,1.333431,583875,27095
1496.89,1.337109,578062,26599
1500.03,1.333351,574159,26649
1503.18,1.343212,570285,25875
1506.32,1.339090,565444,25900
1509.45,1.340153,560571,25614
1512.58,1.337476,555821,25554
1515.71,1.342625,550344,25004
1519.87,1.340784,543983,24820
1522.99,1.338262,538764,24725
1526.1,1.339118,533692,24444
1529.21,1.341222,527902,24062
1532.32,1.335973,521886,24077
1535.42,1.335869,515888,23806
1538.51,1.340520,509987,23283
1541.6,1.336457,503936,23223
1545.72,1.339806,494694,22622
1548.8,1.339653,488378,22341
1551.88,1.341481,481832,21949
1554.95,1.338008,474989,21811
1558.02,1.335885,467818,21587
1561.08,1.337008,460730,21205
1564.15,1.339134,454170,20801
1568.22,1.336145,444181,20484
1571.27,1.338293,436947,20051
1574.32,1.340363,429598,19620
1577.36,1.336902,422039,19429
1580.4,1.336588,414375,19090
1583.43,1.330814,406354,18971
1586.46,1.334994,398475,18425
1590.49,1.335043,388982,17984
1593.51,1.336389,380708,17547
1596.53,1.329670,372727,17447
1599.54,1.335198,365060,16872
1602.55,1.326187,357543,16871
1605.55,1.322653,349495,16626
1608.55,1.331362,341154,15907
1612.54,1.321339,330877,15788
1615.53,1.329206,322904,15131
1618.51,1.335488,315116,14554
1621.49,1.336597,307217,14153
1624.47,1.331422,299481,13962
1627.44,1.322878,292112,13889
1630.41,1.323745,284245,13488
1634.36,1.321036,274079,13087
1637.32,1.332883,266916,12402
1640.27,1.319679,259612,12435
1643.22,1.318385,251804,12097
1646.16,1.314217,244348,11852
1649.1,1.312563,236703,11525
1652.04,1.332054,228171,10622
1655.95,1.321903,215408,10265
1658.88,1.318537,204937,9842
1661.8,1.308128,193395,9513
1664.72,1.321939,179728,8564
1667.63,1.340458,163642,7472
1670.54,1.362711,146312,6347
1673.44,1.327269,128451,6046
1677.31,1.338203,105080,4823
1680.21,1.310442,88906,4350
1683.1,1.349172,75033,3358
1685.99,1.296676,63520,3208
1688.87,1.350782,53714,2395
1691.75,1.350265,45653,2038
1694.62,1.294390,39137,1987
1697.49,1.312971,33776,1643
1701.31,1.420480,28175,1070