Folder: textile_sorting_NIRSCAN_/samples/wool/wool-000811 (part 134)

File: Column 1_050606_20150331_122621.csv
Method:,Column 1,,
Host Date-Time:,31/3/15 @ 12:26:21,,
Header Version:,1,,
System Temp (C):,34.01,,
Detector Temp (C):,34.87,,
Humidity (%):,1.66,,
Lamp PD:,3818,,
Shift Vector Coefficients:,-10.5391,0.0761263,-0.000134223,,
Pixel to Wavelength Coefficients:,1775.68,-0.916766,-0.000235065,,
Serial Number:,5510004,,
Scan Config Name:,Column 1,,
Scan Config Type:,Slew,,
Section 1,,
Start wavelength (nm):,900,,
End wavelength (nm):,1700,,
Pattern Pixel Width (nm):,   7.03,,,,
Exposure (ms):,  0.635,,,,
Digital Resolution:,228,,
Num Repeats:,6,,
PGA Gain:,64,,
Total Measurement Time in sec:,  2.733,,
Wavelength (nm),Absorbance (AU),Reference Signal (unitless),Sample Signal (unitless)
901.51,0.068356,108485,92686
905.376,0.073400,121306,102443
909.237,0.076099,131909,110707
913.095,0.077449,143299,119893
916.948,0.078718,156982,130958
922.079,0.080189,179937,149600
925.923,0.081829,200504,166071
929.762,0.082275,222660,184233
933.597,0.081806,244426,202461
937.427,0.080906,263972,219105
941.254,0.080171,281845,234336
945.076,0.078897,297271,247888
950.165,0.078019,315605,263709
953.978,0.077460,328029,274443
957.786,0.076768,340470,285306
961.59,0.077559,352317,294696
965.389,0.078035,363056,303346
969.185,0.077494,373162,312179
972.976,0.078052,382632,319690
976.763,0.077875,391202,326984
981.806,0.078503,400190,334013
985.583,0.079737,406088,337974
989.355,0.079734,410162,341367
993.124,0.080268,412868,343197
996.888,0.080734,414263,343987
1000.65,0.081921,415476,344053
1004.4,0.082739,415479,343408
1009.41,0.084200,414358,341331
1013.15,0.084266,412923,340097
1016.89,0.085177,411526,338236
1020.63,0.084553,409066,336698
1024.36,0.085250,406777,334277
1028.09,0.084276,404427,333092
1031.82,0.084810,401911,330613
1036.78,0.083352,398410,328835
1040.49,0.084064,396204,326479
1044.2,0.083474,394236,325299
1047.91,0.083517,392042,323456
1051.61,0.083267,389823,321811
1055.31,0.082612,388234,320983
1059,0.082402,387599,320613
1063.92,0.081653,386688,320411
1067.61,0.081125,386598,320726
1071.29,0.080517,387377,321823
1074.96,0.080191,388536,323028
1078.63,0.078882,389855,325103
1082.3,0.078111,391215,326817
1085.96,0.077615,393215,328863
1090.84,0.076700,396270,332117
1094.49,0.076554,398760,334316
1098.14,0.075397,400987,337080
1101.79,0.075118,403477,339391
1105.43,0.075027,406116,341683
1109.06,0.073595,407701,344149
1112.7,0.074135,409859,345541
1117.53,0.073215,412494,348500
1121.15,0.074229,414909,349723
1124.77,0.074049,416559,351259
1128.38,0.075044,418532,352115
1131.99,0.076149,419956,352415
1135.6,0.077507,421946,352980
1139.2,0.079038,423881,353351
1143.99,0.080512,426786,354567
1147.58,0.081172,428617,355547
1151.17,0.083298,431169,355918
1154.75,0.083088,433579,358080
1158.33,0.084666,436264,358991
1161.91,0.086816,439132,359566
1165.48,0.088624,442389,360728
1169.04,0.090847,446101,361898
1173.79,0.094443,451929,363603
1177.34,0.096370,456026,365275
1180.9,0.098818,461306,367427
1184.44,0.100709,467657,370867
1187.99,0.101239,473969,375414
1191.52,0.101589,479856,379771
1195.06,0.101069,487372,386182
1199.76,0.100823,497347,394309
1203.29,0.099385,504311,401156
1206.81,0.099186,511507,407067
1210.33,0.099004,519078,413265
1213.84,0.098217,527163,420463
1217.35,0.097403,534208,426882
1220.85,0.097150,540472,432139
1225.51,0.095867,549929,441001
1229.01,0.095742,556888,446710
1232.5,0.095196,562180,451523
1235.98,0.094332,567975,457085
1239.46,0.093554,574815,463419
1242.94,0.092494,582782,470990
1246.41,0.091728,591476,478861
1251.03,0.091955,604016,488757
1254.5,0.091778,612289,495654
1257.96,0.092253,619125,500640
1261.41,0.093290,624551,503823
1264.86,0.093306,629900,508119
1268.31,0.094529,634345,510266
1271.75,0.094639,638574,513538
1276.33,0.094620,642499,516717
1279.76,0.094797,645905,519244
1283.19,0.093830,648307,522337
1286.61,0.093723,650446,524189
1290.03,0.093211,652132,526168
1293.44,0.092958,653907,527908
1296.85,0.092852,655963,529697
1301.39,0.092304,657349,531486
1304.8,0.092260,657558,531709
1308.19,0.092781,658515,531845
1311.58,0.092749,658804,532117
1314.97,0.093152,659011,531791
1318.36,0.093767,658272,530443
1321.73,0.093603,658022,530441
1326.23,0.094500,657870,529225
1329.6,0.095483,656482,526914
1332.97,0.096366,654926,524597
1336.33,0.097160,653727,522681
1339.69,0.098704,652497,519846
1343.04,0.099937,649913,516319
1346.39,0.102030,647671,512064
1349.73,0.104245,645338,507624
1354.18,0.106868,641175,501313
1357.52,0.109237,638376,496409
1360.85,0.111078,635805,492318
1364.17,0.112949,633413,488358
1367.49,0.115152,631026,484056
1370.81,0.117459,628050,479220
1374.12,0.119176,625034,475037
1378.54,0.122593,620272,467723
1381.84,0.124797,616892,462820
1385.14,0.128789,613613,456148
1388.43,0.131672,611526,451589
1391.72,0.136377,610663,446092
1395.01,0.140542,610634,441813
1398.29,0.144205,611700,438868
1402.66,0.150860,614051,433855
1405.93,0.156430,616268,429872
1409.2,0.160642,617795,426778
1412.46,0.165207,618872,423052
1415.72,0.168893,619795,420102
1418.98,0.172226,620495,417361
1422.23,0.176320,621087,413840
1426.56,0.179914,621375,410620
1429.8,0.182126,621616,408692
1433.04,0.184456,622129,406841
1436.27,0.187131,621526,403951
1439.5,0.189099,621113,401857
1442.72,0.191367,620921,399640
1445.94,0.193689,620270,397093
1450.23,0.197382,618860,392835
1453.44,0.200086,617697,389663
1456.64,0.202989,616264,386169
1459.85,0.205466,614413,382820
1463.04,0.208316,612307,379012
1466.24,0.211953,610032,374455
1469.43,0.215376,607345,369879
1473.67,0.221450,603789,362606
1476.85,0.227644,601175,355924
1480.02,0.233246,597737,349353
1483.19,0.239964,594479,342115
1486.36,0.246260,591232,335350
1489.52,0.250731,587853,330018
1492.68,0.253204,583875,325924
1496.89,0.255949,578062,320646
1500.03,0.256414,574159,318140
1503.18,0.255895,570285,316371
1506.32,0.255442,565444,314013
1509.45,0.254359,560571,312084
1512.58,0.252254,555821,310943
1515.71,0.250026,550344,309463
1519.87,0.246857,543983,308126
1522.99,0.244894,538764,306552
1526.1,0.242853,533692,305097
1529.21,0.239224,527902,304319
1532.32,0.236134,521886,302999
1535.42,0.234029,515888,300972
1538.51,0.230623,509987,299872
1541.6,0.227939,503936,298151
1545.72,0.223731,494694,295533
1548.8,0.220811,488378,293728
1551.88,0.217968,481832,291694
1554.95,0.216681,474989,288405
1558.02,0.214745,467818,285320
1561.08,0.214496,460730,281158
1564.15,0.213675,454170,277679
1568.22,0.212283,444181,272444
1571.27,0.211879,436947,268256
1574.32,0.211072,429598,264235
1577.36,0.209808,422039,260342
1580.4,0.207853,414375,256768
1583.43,0.206789,406354,252415
1586.46,0.205862,398475,248050
1590.49,0.203918,388982,243227
1593.51,0.201700,380708,239272
1596.53,0.199728,372727,235322
1599.54,0.198076,365060,231360
1602.55,0.196078,357543,227641
1605.55,0.193800,349495,223687
1608.55,0.192076,341154,219217
1612.54,0.190263,330877,213503
1615.53,0.187653,322904,209614
1618.51,0.187147,315116,204797
1621.49,0.187792,307217,199367
1624.47,0.185012,299481,195595
1627.44,0.184723,292112,190909
1630.41,0.184159,284245,186009
1634.36,0.181683,274079,180382
1637.32,0.181032,266916,175931
1640.27,0.180661,259612,171263
1643.22,0.179813,251804,166437
1646.16,0.178620,244348,161953
1649.1,0.178307,236703,156999
1652.04,0.176037,228171,152133
1655.95,0.174670,215408,144076
1658.88,0.170921,204937,138261
1661.8,0.164583,193395,132392
1664.72,0.157612,179728,125027
1667.63,0.144367,163642,117362
1670.54,0.132681,146312,107795
1673.44,0.113076,128451,99006
1677.31,0.093975,105080,84634
1680.21,0.081599,88906,73677
1683.1,0.074865,75033,63152
1685.99,0.079389,63520,52908
1688.87,0.077570,53714,44928
1691.75,0.084952,45653,37542
1694.62,0.098377,39137,31204
1697.49,0.097486,33776,26985
1701.31,0.105295,28175,22109

File: Column 1_050606_20150331_122632.csv
Method:,Column 1,,
Host Date-Time:,31/3/15 @ 12:26:32,,
Header Version:,1,,
System Temp (C):,34.01,,
Detector Temp (C):,34.87,,
Humidity (%):,1.66,,
Lamp PD:,3818,,
Shift Vector Coefficients:,-10.5391,0.0761263,-0.000134223,,
Pixel to Wavelength Coefficients:,1775.68,-0.916766,-0.000235065,,
Serial Number:,5510004,,
Scan Config Name:,Column 1,,
Scan Config Type:,Slew,,
Section 1,,
Start wavelength (nm):,900,,
End wavelength (nm):,1700,,
Pattern Pixel Width (nm):,   7.03,,,,
Exposure (ms):,  0.635,,,,
Digital Resolution:,228,,
Num Repeats:,6,,
PGA Gain:,64,,
Total Measurement Time in sec:,  2.666,,
Wavelength (nm),Absorbance (AU),Reference Signal (unitless),Sample Signal (unitless)
901.51,0.068215,108485,92716
905.376,0.074117,121306,102274
909.237,0.076354,131909,110642
913.095,0.076433,143299,120174
916.948,0.079053,156982,130857
922.079,0.080061,179937,149644
925.923,0.081950,200504,166025
929.762,0.081509,222660,184558
933.597,0.081875,244426,202429
937.427,0.080755,263972,219181
941.254,0.079506,281845,234695
945.076,0.079116,297271,247763
950.165,0.077886,315605,263790
953.978,0.077205,328029,274604
957.786,0.077641,340470,284733
961.59,0.077207,352317,294935
965.389,0.077841,363056,303482
969.185,0.077185,373162,312401
972.976,0.077544,382632,320064
976.763,0.078519,391202,326499
981.806,0.079216,400190,333465
985.583,0.079393,406088,338242
989.355,0.080030,410162,341134
993.124,0.079748,412868,343608
996.888,0.080472,414263,344195
1000.65,0.081693,415476,344233
1004.4,0.082386,415479,343687
1009.41,0.084096,414358,341413
1013.15,0.084011,412923,340297
1016.89,0.084665,411526,338635
1020.63,0.084176,409066,336990
1024.36,0.084692,406777,334707
1028.09,0.084627,404427,332823
1031.82,0.084032,401911,331206
1036.78,0.084028,398410,328324
1040.49,0.083772,396204,326698
1044.2,0.083396,394236,325357
1047.91,0.083842,392042,323214
1051.61,0.082735,389823,322205
1055.31,0.082662,388234,320946
1059,0.082366,387599,320639
1063.92,0.081579,386688,320466
1067.61,0.080491,386598,321195
1071.29,0.080729,387377,321666
1074.96,0.080046,388536,323136
1078.63,0.078949,389855,325053
1082.3,0.078551,391215,326486
1085.96,0.077490,393215,328958
1090.84,0.076780,396270,332056
1094.49,0.075877,398760,334838
1098.14,0.075652,400987,336882
1101.79,0.075497,403477,339095
1105.43,0.074574,406116,342039
1109.06,0.074303,407701,343589
1112.7,0.073615,409859,345955
1117.53,0.073240,412494,348480
1121.15,0.073731,414909,350124
1124.77,0.074257,416559,351091
1128.38,0.074526,418532,352535
1131.99,0.076183,419956,352388
1135.6,0.077930,421946,352636
1139.2,0.078923,423881,353444
1143.99,0.080666,426786,354441
1147.58,0.081248,428617,355485
1151.17,0.082168,431169,356845
1154.75,0.083290,433579,357914
1158.33,0.084989,436264,358724
1161.91,0.086807,439132,359574
1165.48,0.088771,442389,360606
1169.04,0.090729,446101,361996
1173.79,0.093833,451929,364114
1177.34,0.096516,456026,365152
1180.9,0.098259,461306,367900
1184.44,0.100316,467657,371203
1187.99,0.101385,473969,375288
1191.52,0.101015,479856,380273
1195.06,0.100853,487372,386374
1199.76,0.100068,497347,394995
1203.29,0.099915,504311,400667
1206.81,0.099539,511507,406736
1210.33,0.098617,519078,413633
1213.84,0.098389,527163,420297
1217.35,0.097644,534208,426645
1220.85,0.096698,540472,432589
1225.51,0.096046,549929,440819
1229.01,0.095778,556888,446673
1232.5,0.094853,562180,451879
1235.98,0.094426,567975,456986
1239.46,0.093469,574815,463510
1242.94,0.092447,582782,471041
1246.41,0.092147,591476,478399
1251.03,0.091822,604016,488907
1254.5,0.092133,612289,495249
1257.96,0.092257,619125,500635
1261.41,0.092280,624551,504996
1264.86,0.093105,629900,508355
1268.31,0.093714,634345,511224
1271.75,0.094262,638574,513984
1276.33,0.094352,642499,517036
1279.76,0.094625,645905,519450
1283.19,0.093751,648307,522432
1286.61,0.093587,650446,524354
1290.03,0.093495,652132,525824
1293.44,0.092786,653907,528117
1296.85,0.092434,655963,530207
1301.39,0.092491,657349,531257
1304.8,0.092419,657558,531514
1308.19,0.092719,658515,531920
1311.58,0.092613,658804,532284
1314.97,0.092936,659011,532055
1318.36,0.093531,658272,530731
1321.73,0.093467,658022,530607
1326.23,0.094460,657870,529274
1329.6,0.095432,656482,526976
1332.97,0.096152,654926,524856
1336.33,0.096996,653727,522878
1339.69,0.098356,652497,520262
1343.04,0.100170,649913,516042
1346.39,0.101749,647671,512396
1349.73,0.104207,645338,507668
1354.18,0.106959,641175,501208
1357.52,0.108803,638376,496905
1360.85,0.110924,635805,492493
1364.17,0.112884,633413,488431
1367.49,0.115379,631026,483803
1370.81,0.117282,628050,479416
1374.12,0.119035,625034,475191
1378.54,0.121967,620272,468398
1381.84,0.124579,616892,463052
1385.14,0.128362,613613,456596
1388.43,0.132429,611526,450802
1391.72,0.135967,610663,446514
1395.01,0.139669,610634,442703
1398.29,0.144462,611700,438608
1402.66,0.150984,614051,433731
1405.93,0.155876,616268,430421
1409.2,0.160291,617795,427123
1412.46,0.164694,618872,423552
1415.72,0.168782,619795,420210
1418.98,0.172337,620495,417255
1422.23,0.175399,621087,414719
1426.56,0.179253,621375,411245
1429.8,0.181626,621616,409163
1433.04,0.184384,622129,406908
1436.27,0.186734,621526,404320
1439.5,0.188625,621113,402296
1442.72,0.190722,620921,400234
1445.94,0.193887,620270,396912
1450.23,0.197081,618860,393108
1453.44,0.199914,617697,389818
1456.64,0.203164,616264,386014
1459.85,0.205238,614413,383021
1463.04,0.208120,612307,379183
1466.24,0.212061,610032,374362
1469.43,0.215570,607345,369714
1473.67,0.221283,603789,362746
1476.85,0.227022,601175,356434
1480.02,0.233241,597737,349357
1483.19,0.239827,594479,342223
1486.36,0.244994,591232,336329
1489.52,0.250281,587853,330360
1492.68,0.253969,583875,325350
1496.89,0.255672,578062,320850
1500.03,0.256111,574159,318362
1503.18,0.256038,570285,316267
1506.32,0.254794,565444,314482
1509.45,0.253708,560571,312552
1512.58,0.252511,555821,310759
1515.71,0.249995,550344,309485
1519.87,0.247170,543983,307904
1522.99,0.245094,538764,306411
1526.1,0.242176,533692,305573
1529.21,0.239330,527902,304245
1532.32,0.236916,521886,302454
1535.42,0.233711,515888,301193
1538.51,0.230454,509987,299989
1541.6,0.227248,503936,298626
1545.72,0.224057,494694,295311
1548.8,0.220821,488378,293721
1551.88,0.218967,481832,291024
1554.95,0.216435,474989,288568
1558.02,0.214663,467818,285374
1561.08,0.213674,460730,281691
1564.15,0.213175,454170,277999
1568.22,0.211666,444181,272831
1571.27,0.211431,436947,268533
1574.32,0.210932,429598,264320
1577.36,0.208792,422039,260952
1580.4,0.208237,414375,256541
1583.43,0.207364,406354,252081
1586.46,0.205454,398475,248283
1590.49,0.203259,388982,243596
1593.51,0.201421,380708,239426
1596.53,0.199525,372727,235432
1599.54,0.197890,365060,231459
1602.55,0.195432,357543,227980
1605.55,0.193890,349495,223641
1608.55,0.191643,341154,219436
1612.54,0.190165,330877,213551
1615.53,0.187947,322904,209472
1618.51,0.187771,315116,204503
1621.49,0.186114,307217,200139
1624.47,0.185136,299481,195539
1627.44,0.184021,292112,191218
1630.41,0.183349,284245,186356
1634.36,0.182717,274079,179953
1637.32,0.180536,266916,176132
1640.27,0.180390,259612,171370
1643.22,0.179322,251804,166625
1646.16,0.180156,244348,161381
1649.1,0.178072,236703,157084
1652.04,0.176911,228171,151827
1655.95,0.174092,215408,144268
1658.88,0.169024,204937,138866
1661.8,0.164656,193395,132370
1664.72,0.156027,179728,125484
1667.63,0.144497,163642,117327
1670.54,0.130792,146312,108265
1673.44,0.112607,128451,99113
1677.31,0.094859,105080,84462
1680.21,0.080828,88906,73808
1683.1,0.078484,75033,62628
1685.99,0.076314,63520,53284
1688.87,0.077609,53714,44924
1691.75,0.081805,45653,37815
1694.62,0.087234,39137,32015
1697.49,0.097985,33776,26954
1701.31,0.104000,28175,22175

File: Column 1_050606_20150331_122638.csv
Method:,Column 1,,
Host Date-Time:,31/3/15 @ 12:26:38,,
Header Version:,1,,
System Temp (C):,33.98,,
Detector Temp (C):,34.85,,
Humidity (%):,1.66,,
Lamp PD:,3818,,
Shift Vector Coefficients:,-10.5391,0.0761263,-0.000134223,,
Pixel to Wavelength Coefficients:,1775.68,-0.916766,-0.000235065,,
Serial Number:,5510004,,
Scan Config Name:,Column 1,,
Scan Config Type:,Slew,,
Section 1,,
Start wavelength (nm):,900,,
End wavelength (nm):,1700,,
Pattern Pixel Width (nm):,   7.03,,,,
Exposure (ms):,  0.635,,,,
Digital Resolution:,228,,
Num Repeats:,6,,
PGA Gain:,64,,
Total Measurement Time in sec:,  2.707,,
Wavelength (nm),Absorbance (AU),Reference Signal (unitless),Sample Signal (unitless)
901.51,0.069341,108485,92476
905.376,0.076024,121306,101826
909.237,0.078554,131909,110083
913.095,0.078026,143299,119734
916.948,0.079701,156982,130662
922.079,0.080758,179937,149404
925.923,0.082766,200504,165713
929.762,0.082334,222660,184208
933.597,0.082351,244426,202207
937.427,0.080290,263972,219416
941.254,0.080442,281845,234190
945.076,0.079007,297271,247825
950.165,0.077535,315605,264003
953.978,0.076696,328029,274926
957.786,0.077239,340470,284997
961.59,0.077804,352317,294530
965.389,0.077319,363056,303847
969.185,0.077732,373162,312008
972.976,0.077696,382632,319952
976.763,0.078678,391202,326380
981.806,0.079044,400190,333597
985.583,0.079174,406088,338412
989.355,0.079991,410162,341165
993.124,0.080115,412868,343318
996.888,0.080930,414263,343832
1000.65,0.081657,415476,344262
1004.4,0.082995,415479,343205
1009.41,0.084443,414358,341140
1013.15,0.084347,412923,340034
1016.89,0.085237,411526,338190
1020.63,0.084802,409066,336505
1024.36,0.084712,406777,334691
1028.09,0.083963,404427,333332
1031.82,0.084677,401911,330714
1036.78,0.084188,398410,328203
1040.49,0.083561,396204,326857
1044.2,0.084107,394236,324825
1047.91,0.083720,392042,323305
1051.61,0.083294,389823,321791
1055.31,0.082846,388234,320810
1059,0.082123,387599,320819
1063.92,0.081254,386688,320706
1067.61,0.080778,386598,320983
1071.29,0.080224,387377,322040
1074.96,0.079976,388536,323188
1078.63,0.079171,389855,324887
1082.3,0.078652,391215,326410
1085.96,0.078133,393215,328471
1090.84,0.076449,396270,332309
1094.49,0.076021,398760,334727
1098.14,0.075865,400987,336717
1101.79,0.075035,403477,339456
1105.43,0.075081,406116,341640
1109.06,0.074727,407701,343253
1112.7,0.073707,409859,345882
1117.53,0.073493,412494,348277
1121.15,0.074468,414909,349530
1124.77,0.073869,416559,351405
1128.38,0.075006,418532,352146
1131.99,0.075759,419956,352732
1135.6,0.077688,421946,352833
1139.2,0.078755,423881,353581
1143.99,0.081374,426786,353864
1147.58,0.081395,428617,355365
1151.17,0.082559,431169,356524
1154.75,0.083425,433579,357802
1158.33,0.084761,436264,358912
1161.91,0.086439,439132,359879
1165.48,0.088836,442389,360552
1169.04,0.090636,446101,362074
1173.79,0.094064,451929,363920
1177.34,0.096346,456026,365295
1180.9,0.098513,461306,367685
1184.44,0.100360,467657,371165
1187.99,0.100881,473969,375724
1191.52,0.100966,479856,380316
1195.06,0.101360,487372,385923
1199.76,0.100905,497347,394234
1203.29,0.100123,504311,400475
1206.81,0.099467,511507,406803
1210.33,0.098219,519078,414013
1213.84,0.098368,527163,420317
1217.35,0.097536,534208,426751
1220.85,0.096690,540472,432597
1225.51,0.096033,549929,440833
1229.01,0.095656,556888,446799
1232.5,0.095076,562180,451647
1235.98,0.094343,567975,457074
1239.46,0.093426,574815,463556
1242.94,0.092371,582782,471124
1246.41,0.091921,591476,478648
1251.03,0.092090,604016,488606
1254.5,0.091681,612289,495764
1257.96,0.092387,619125,500485
1261.41,0.092472,624551,504773
1264.86,0.093416,629900,507991
1268.31,0.093762,634345,511168
1271.75,0.094206,638574,514050
1276.33,0.094221,642499,517192
1279.76,0.094885,645905,519139
1283.19,0.093694,648307,522501
1286.61,0.093781,650446,524119
1290.03,0.093169,652132,526219
1293.44,0.092946,653907,527922
1296.85,0.092921,655963,529613
1301.39,0.092301,657349,531490
1304.8,0.092347,657558,531603
1308.19,0.092745,658515,531888
1311.58,0.092369,658804,532583
1314.97,0.092966,659011,532018
1318.36,0.093594,658272,530654
1321.73,0.093524,658022,530538
1326.23,0.094436,657870,529303
1329.6,0.094986,656482,527518
1332.97,0.095894,654926,525168
1336.33,0.097145,653727,522699
1339.69,0.098874,652497,519642
1343.04,0.099996,649913,516249
1346.39,0.102048,647671,512043
1349.73,0.103771,645338,508178
1354.18,0.107051,641175,501101
1357.52,0.109321,638376,496313
1360.85,0.110829,635805,492601
1364.17,0.113022,633413,488276
1367.49,0.115348,631026,483837
1370.81,0.117322,628050,479372
1374.12,0.119133,625034,475084
1378.54,0.122205,620272,468142
1381.84,0.124648,616892,462979
1385.14,0.128424,613613,456531
1388.43,0.131483,611526,451785
1391.72,0.136238,610663,446235
1395.01,0.140239,610634,442122
1398.29,0.144500,611700,438570
1402.66,0.150624,614051,434091
1405.93,0.155695,616268,430601
1409.2,0.160280,617795,427134
1412.46,0.164967,618872,423286
1415.72,0.168724,619795,420266
1418.98,0.172441,620495,417155
1422.23,0.175846,621087,414292
1426.56,0.179134,621375,411358
1429.8,0.182076,621616,408739
1433.04,0.185074,622129,406262
1436.27,0.186792,621526,404266
1439.5,0.188742,621113,402188
1442.72,0.190816,620921,400148
1445.94,0.193426,620270,397333
1450.23,0.196917,618860,393256
1453.44,0.199899,617697,389831
1456.64,0.202406,616264,386688
1459.85,0.204905,614413,383315
1463.04,0.208541,612307,378816
1466.24,0.211431,610032,374905
1469.43,0.215487,607345,369784
1473.67,0.221813,603789,362303
1476.85,0.227381,601175,356139
1480.02,0.233165,597737,349418
1483.19,0.239122,594479,342779
1486.36,0.245262,591232,336121
1489.52,0.250045,587853,330540
1492.68,0.252860,583875,326182
1496.89,0.255878,578062,320698
1500.03,0.255936,574159,318490
1503.18,0.256358,570285,316034
1506.32,0.255250,565444,314152
1509.45,0.253728,560571,312538
1512.58,0.252057,555821,311084
1515.71,0.250162,550344,309366
1519.87,0.246966,543983,308049
1522.99,0.244074,538764,307132
1526.1,0.241637,533692,305952
1529.21,0.238821,527902,304602
1532.32,0.236223,521886,302937
1535.42,0.233229,515888,301527
1538.51,0.230729,509987,299799
1541.6,0.227169,503936,298680
1545.72,0.223274,494694,295844
1548.8,0.220521,488378,293924
1551.88,0.218370,481832,291424
1554.95,0.216297,474989,288660
1558.02,0.214774,467818,285301
1561.08,0.214034,460730,281457
1564.15,0.213500,454170,277791
1568.22,0.212009,444181,272616
1571.27,0.211116,436947,268728
1574.32,0.211129,429598,264200
1577.36,0.208780,422039,260959
1580.4,0.208172,414375,256579
1583.43,0.206480,406354,252595
1586.46,0.205276,398475,248385
1590.49,0.203190,388982,243635
1593.51,0.202060,380708,239074
1596.53,0.199286,372727,235562
1599.54,0.198012,365060,231394
1602.55,0.195533,357543,227927
1605.55,0.194467,349495,223344
1608.55,0.191528,341154,219494
1612.54,0.189746,330877,213757
1615.53,0.188296,322904,209304
1618.51,0.187079,315116,204829
1621.49,0.186893,307217,199780
1624.47,0.185487,299481,195381
1627.44,0.184482,292112,191015
1630.41,0.183923,284245,186110
1634.36,0.181921,274079,180283
1637.32,0.180975,266916,175954
1640.27,0.179904,259612,171562
1643.22,0.180170,251804,166300
1646.16,0.179653,244348,161568
1649.1,0.178481,236703,156936
1652.04,0.177644,228171,151571
1655.95,0.173127,215408,144589
1658.88,0.171071,204937,138213
1661.8,0.165056,193395,132248
1664.72,0.156665,179728,125300
1667.63,0.144408,163642,117351
1670.54,0.130134,146312,108429
1673.44,0.114187,128451,98753
1677.31,0.092745,105080,84874
1680.21,0.082484,88906,73527
1683.1,0.078588,75033,62613
1685.99,0.075451,63520,53390
1688.87,0.081757,53714,44497
1691.75,0.085496,45653,37495
1694.62,0.090885,39137,31747
1697.49,0.094583,33776,27166
1701.31,0.100606,28175,22349