Folder: textile_sorting_NIRSCAN_/samples/wool/wool-000811 (part 93)

File: Column 1_050580_20150331_121420.csv
Method:,Column 1,,
Host Date-Time:,31/3/15 @ 12:14:20,,
Header Version:,1,,
System Temp (C):,33.73,,
Detector Temp (C):,34.54,,
Humidity (%):,1.95,,
Lamp PD:,3819,,
Shift Vector Coefficients:,-10.5391,0.0761263,-0.000134223,,
Pixel to Wavelength Coefficients:,1775.68,-0.916766,-0.000235065,,
Serial Number:,5510004,,
Scan Config Name:,Column 1,,
Scan Config Type:,Slew,,
Section 1,,
Start wavelength (nm):,900,,
End wavelength (nm):,1700,,
Pattern Pixel Width (nm):,   7.03,,,,
Exposure (ms):,  0.635,,,,
Digital Resolution:,228,,
Num Repeats:,6,,
PGA Gain:,64,,
Total Measurement Time in sec:,  2.671,,
Wavelength (nm),Absorbance (AU),Reference Signal (unitless),Sample Signal (unitless)
901.51,0.071790,108485,91956
905.376,0.078041,121306,101354
909.237,0.078329,131909,110140
913.095,0.080076,143299,119170
916.948,0.080902,156982,130301
922.079,0.083245,179937,148551
925.923,0.082628,200504,165766
929.762,0.084994,222660,183083
933.597,0.083592,244426,201630
937.427,0.082912,263972,218095
941.254,0.083143,281845,232738
945.076,0.081508,297271,246402
950.165,0.081083,315605,261855
953.978,0.080111,328029,272773
957.786,0.080440,340470,282904
961.59,0.080897,352317,292440
965.389,0.080879,363056,301366
969.185,0.081247,373162,309493
972.976,0.080744,382632,317715
976.763,0.081529,391202,324244
981.806,0.081508,400190,331710
985.583,0.083074,406088,335387
989.355,0.082975,410162,338829
993.124,0.083592,412868,340580
996.888,0.084092,414263,341338
1000.65,0.084965,415476,341650
1004.4,0.085914,415479,340906
1009.41,0.086974,414358,339158
1013.15,0.087413,412923,337642
1016.89,0.088666,411526,335530
1020.63,0.087818,409066,334176
1024.36,0.087650,406777,332435
1028.09,0.088072,404427,330193
1031.82,0.087436,401911,328620
1036.78,0.087484,398410,325721
1040.49,0.087015,396204,324268
1044.2,0.086937,394236,322715
1047.91,0.086864,392042,320973
1051.61,0.086486,389823,319434
1055.31,0.085767,388234,318659
1059,0.085442,387599,318376
1063.92,0.084845,386688,318065
1067.61,0.084431,386598,318294
1071.29,0.084290,387377,319039
1074.96,0.083912,388536,320272
1078.63,0.082709,389855,322251
1082.3,0.081821,391215,324037
1085.96,0.080323,393215,326819
1090.84,0.080919,396270,328906
1094.49,0.079597,398760,331982
1098.14,0.079237,400987,334113
1101.79,0.078761,403477,336556
1105.43,0.078703,406116,338803
1109.06,0.078155,407701,340555
1112.7,0.077056,409859,343225
1117.53,0.077512,412494,345069
1121.15,0.077652,414909,346977
1124.77,0.077258,416559,348673
1128.38,0.078977,418532,348941
1131.99,0.080227,419956,349122
1135.6,0.081499,421946,349750
1139.2,0.083450,423881,349779
1143.99,0.084635,426786,351217
1147.58,0.085540,428617,351989
1151.17,0.086719,431169,353125
1154.75,0.088237,433579,353860
1158.33,0.089327,436264,355159
1161.91,0.090740,439132,356332
1165.48,0.093146,442389,356992
1169.04,0.095047,446101,358415
1173.79,0.098758,451929,360008
1177.34,0.100341,456026,361950
1180.9,0.103034,461306,363877
1184.44,0.105277,467657,366987
1187.99,0.105360,473969,371869
1191.52,0.105499,479856,376367
1195.06,0.105417,487372,382335
1199.76,0.104708,497347,390797
1203.29,0.103807,504311,397092
1206.81,0.103636,511507,402917
1210.33,0.102750,519078,409716
1213.84,0.102342,527163,416488
1217.35,0.101382,534208,422988
1220.85,0.101217,540472,428111
1225.51,0.100253,549929,436570
1229.01,0.099806,556888,442549
1232.5,0.099162,562180,447418
1235.98,0.098843,567975,452362
1239.46,0.097591,574815,459131
1242.94,0.096942,582782,466191
1246.41,0.095967,591476,474209
1251.03,0.096023,604016,484201
1254.5,0.096391,612289,490417
1257.96,0.096566,619125,495692
1261.41,0.097144,624551,499372
1264.86,0.097818,629900,502868
1268.31,0.098090,634345,506099
1271.75,0.098809,638574,508630
1276.33,0.099151,642499,511354
1279.76,0.099204,645905,514002
1283.19,0.098488,648307,516765
1286.61,0.098459,650446,518504
1290.03,0.098061,652132,520325
1293.44,0.096971,653907,523052
1296.85,0.097245,655963,524366
1301.39,0.096542,657349,526325
1304.8,0.096552,657558,526480
1308.19,0.097360,658515,526266
1311.58,0.097162,658804,526737
1314.97,0.098124,659011,525737
1318.36,0.098215,658272,525038
1321.73,0.098455,658022,524548
1326.23,0.100038,657870,522519
1329.6,0.100485,656482,520880
1332.97,0.101992,654926,517846
1336.33,0.102718,653727,516034
1339.69,0.104699,652497,512719
1343.04,0.105813,649913,509380
1346.39,0.108245,647671,504789
1349.73,0.109953,645338,500996
1354.18,0.113055,641175,494222
1357.52,0.115104,638376,489748
1360.85,0.117505,635805,485086
1364.17,0.119360,633413,481201
1367.49,0.121216,631026,477344
1370.81,0.123585,628050,472508
1374.12,0.125881,625034,467760
1378.54,0.129062,620272,460808
1381.84,0.132621,616892,454557
1385.14,0.136912,613613,447695
1388.43,0.140758,611526,442239
1391.72,0.145601,610663,436718
1395.01,0.150619,610634,431680
1398.29,0.155921,611700,427186
1402.66,0.163338,614051,421567
1405.93,0.169134,616268,417480
1409.2,0.174463,617795,413410
1412.46,0.179641,618872,409223
1415.72,0.184226,619795,405529
1418.98,0.187845,620495,402618
1422.23,0.192526,621087,398682
1426.56,0.196606,621375,395137
1429.8,0.199370,621616,392783
1433.04,0.202265,622129,390495
1436.27,0.204406,621526,388198
1439.5,0.206406,621113,386158
1442.72,0.208584,620921,384107
1445.94,0.210803,620270,381749
1450.23,0.213990,618860,378096
1453.44,0.216407,617697,375291
1456.64,0.219391,616264,371857
1459.85,0.222010,614413,368511
1463.04,0.224371,612307,365257
1466.24,0.227487,610032,361298
1469.43,0.230612,607345,357128
1473.67,0.235654,603789,350939
1476.85,0.240207,601175,345775
1480.02,0.244563,597737,340367
1483.19,0.251481,594479,333162
1486.36,0.256225,591232,327743
1489.52,0.260576,587853,322621
1492.68,0.262503,583875,319019
1496.89,0.264759,578062,314207
1500.03,0.266001,574159,311194
1503.18,0.265555,570285,309412
1506.32,0.264319,565444,307660
1509.45,0.262745,560571,306116
1512.58,0.261483,555821,304405
1515.71,0.259757,550344,302606
1519.87,0.256036,543983,301682
1522.99,0.253835,538764,300306
1526.1,0.251354,533692,299183
1529.21,0.248845,527902,297652
1532.32,0.246448,521886,295888
1535.42,0.243447,515888,294516
1538.51,0.240333,509987,293242
1541.6,0.236878,503936,292077
1545.72,0.233256,494694,289122
1548.8,0.230575,488378,287198
1551.88,0.228191,481832,284908
1554.95,0.226904,474989,281695
1558.02,0.224586,467818,278927
1561.08,0.223221,460730,275566
1564.15,0.222255,454170,272247
1568.22,0.221124,444181,266954
1571.27,0.221496,436947,262381
1574.32,0.219288,429598,259283
1577.36,0.218286,422039,255309
1580.4,0.217863,414375,250917
1583.43,0.215712,406354,247282
1586.46,0.214264,398475,243297
1590.49,0.211964,388982,238762
1593.51,0.210042,380708,234720
1596.53,0.207959,372727,230904
1599.54,0.206206,365060,227069
1602.55,0.204024,357543,223514
1605.55,0.202426,349495,219288
1608.55,0.200326,341154,215092
1612.54,0.199693,330877,208917
1615.53,0.196355,322904,205456
1618.51,0.195086,315116,201087
1621.49,0.193915,307217,196576
1624.47,0.193005,299481,192028
1627.44,0.192303,292112,187606
1630.41,0.191273,284245,182987
1634.36,0.190096,274079,176921
1637.32,0.189994,266916,172338
1640.27,0.187423,259612,168617
1643.22,0.186903,251804,163742
1646.16,0.186470,244348,159052
1649.1,0.185542,236703,154405
1652.04,0.183608,228171,149504
1655.95,0.182061,215408,141645
1658.88,0.177379,204937,136220
1661.8,0.172632,193395,129961
1664.72,0.165432,179728,122796
1667.63,0.152721,163642,115126
1670.54,0.138395,146312,106386
1673.44,0.124327,128451,96474
1677.31,0.105314,105080,82453
1680.21,0.094722,88906,71484
1683.1,0.091506,75033,60778
1685.99,0.093183,63520,51254
1688.87,0.092298,53714,43430
1691.75,0.097391,45653,36482
1694.62,0.102376,39137,30918
1697.49,0.100279,33776,26812
1701.31,0.111627,28175,21789

File: Column 1_050581_20150331_121422.csv
Method:,Column 1,,
Host Date-Time:,31/3/15 @ 12:14:22,,
Header Version:,1,,
System Temp (C):,33.73,,
Detector Temp (C):,34.57,,
Humidity (%):,1.95,,
Lamp PD:,3819,,
Shift Vector Coefficients:,-10.5391,0.0761263,-0.000134223,,
Pixel to Wavelength Coefficients:,1775.68,-0.916766,-0.000235065,,
Serial Number:,5510004,,
Scan Config Name:,Column 1,,
Scan Config Type:,Slew,,
Section 1,,
Start wavelength (nm):,900,,
End wavelength (nm):,1700,,
Pattern Pixel Width (nm):,   7.03,,,,
Exposure (ms):,  0.635,,,,
Digital Resolution:,228,,
Num Repeats:,6,,
PGA Gain:,64,,
Total Measurement Time in sec:,  2.676,,
Wavelength (nm),Absorbance (AU),Reference Signal (unitless),Sample Signal (unitless)
901.51,0.070041,108485,92327
905.376,0.075930,121306,101848
909.237,0.079906,131909,109741
913.095,0.080587,143299,119030
916.948,0.081740,156982,130050
922.079,0.083555,179937,148445
925.923,0.083750,200504,165338
929.762,0.084617,222660,183242
933.597,0.083939,244426,201469
937.427,0.083394,263972,217853
941.254,0.081798,281845,233460
945.076,0.081699,297271,246294
950.165,0.080619,315605,262135
953.978,0.080149,328029,272749
957.786,0.080139,340470,283100
961.59,0.080976,352317,292387
965.389,0.080725,363056,301473
969.185,0.080955,373162,309701
972.976,0.081288,382632,317317
976.763,0.082223,391202,323726
981.806,0.081975,400190,331353
985.583,0.082320,406088,335970
989.355,0.082948,410162,338850
993.124,0.083651,412868,340534
996.888,0.083710,414263,341638
1000.65,0.084501,415476,342015
1004.4,0.086015,415479,340827
1009.41,0.086954,414358,339173
1013.15,0.087310,412923,337722
1016.89,0.087974,411526,336065
1020.63,0.087682,409066,334281
1024.36,0.087505,406777,332546
1028.09,0.087784,404427,330412
1031.82,0.087743,401911,328388
1036.78,0.087095,398410,326013
1040.49,0.086655,396204,324537
1044.2,0.087368,394236,322395
1047.91,0.086819,392042,321006
1051.61,0.086306,389823,319567
1055.31,0.085842,388234,318604
1059,0.085204,387599,318551
1063.92,0.084916,386688,318013
1067.61,0.084272,386598,318411
1071.29,0.083803,387377,319397
1074.96,0.083028,388536,320925
1078.63,0.082845,389855,322150
1082.3,0.081754,391215,324087
1085.96,0.081367,393215,326034
1090.84,0.080409,396270,329293
1094.49,0.080275,398760,331464
1098.14,0.079134,400987,334192
1101.79,0.079141,403477,336262
1105.43,0.078167,406116,339221
1109.06,0.078013,407701,340666
1112.7,0.078049,409859,342441
1117.53,0.077197,412494,345319
1121.15,0.077422,414909,347161
1124.77,0.078140,416559,347966
1128.38,0.079016,418532,348909
1131.99,0.080118,419956,349209
1135.6,0.081929,421946,349404
1139.2,0.082889,423881,350231
1143.99,0.084810,426786,351075
1147.58,0.085934,428617,351670
1151.17,0.086820,431169,353043
1154.75,0.087435,433579,354514
1158.33,0.089019,436264,355411
1161.91,0.090620,439132,356431
1165.48,0.093180,442389,356964
1169.04,0.095775,446101,357815
1173.79,0.098537,451929,360191
1177.34,0.100610,456026,361726
1180.9,0.102663,461306,364188
1184.44,0.104534,467657,367615
1187.99,0.105314,473969,371908
1191.52,0.105362,479856,376486
1195.06,0.105204,487372,382522
1199.76,0.104150,497347,391300
1203.29,0.103909,504311,396999
1206.81,0.103219,511507,403304
1210.33,0.102623,519078,409836
1213.84,0.102125,527163,416697
1217.35,0.101488,534208,422885
1220.85,0.100720,540472,428601
1225.51,0.100335,549929,436487
1229.01,0.099386,556888,442978
1232.5,0.099457,562180,447114
1235.98,0.098844,567975,452361
1239.46,0.097494,574815,459234
1242.94,0.096792,582782,466352
1246.41,0.096175,591476,473982
1251.03,0.096339,604016,483848
1254.5,0.096141,612289,490699
1257.96,0.096776,619125,495453
1261.41,0.096952,624551,499592
1264.86,0.097491,629900,503246
1268.31,0.098103,634345,506084
1271.75,0.098708,638574,508749
1276.33,0.099477,642499,510970
1279.76,0.098655,645905,514652
1283.19,0.098270,648307,517024
1286.61,0.098185,650446,518831
1290.03,0.097789,652132,520651
1293.44,0.097554,653907,522350
1296.85,0.097548,655963,524000
1301.39,0.096913,657349,525876
1304.8,0.096895,657558,526065
1308.19,0.097357,658515,526270
1311.58,0.097207,658804,526683
1314.97,0.097975,659011,525917
1318.36,0.098241,658272,525006
1321.73,0.098680,658022,524276
1326.23,0.099768,657870,522844
1329.6,0.100662,656482,520668
1332.97,0.101780,654926,518098
1336.33,0.103229,653727,515427
1339.69,0.104330,652497,513155
1343.04,0.105956,649913,509213
1346.39,0.108399,647671,504609
1349.73,0.110414,645338,500464
1354.18,0.113220,641175,494034
1357.52,0.115255,638376,489578
1360.85,0.117556,635805,485029
1364.17,0.119380,633413,481179
1367.49,0.121062,631026,477513
1370.81,0.123904,628050,472161
1374.12,0.125775,625034,467874
1378.54,0.129370,620272,460481
1381.84,0.132600,616892,454579
1385.14,0.136134,613613,448498
1388.43,0.140180,611526,442828
1391.72,0.145155,610663,437166
1395.01,0.150331,610634,431966
1398.29,0.155890,611700,427217
1402.66,0.163069,614051,421828
1405.93,0.168953,616268,417654
1409.2,0.174493,617795,413382
1412.46,0.179518,618872,409339
1415.72,0.183877,619795,405855
1418.98,0.188208,620495,402282
1422.23,0.192365,621087,398830
1426.56,0.196285,621375,395429
1429.8,0.198962,621616,393152
1433.04,0.202208,622129,390546
1436.27,0.204110,621526,388463
1439.5,0.206374,621113,386186
1442.72,0.208298,620921,384360
1445.94,0.210622,620270,381908
1450.23,0.214017,618860,378073
1453.44,0.216502,617697,375209
1456.64,0.219452,616264,371805
1459.85,0.221587,614413,368870
1463.04,0.224088,612307,365495
1466.24,0.227326,610032,361432
1469.43,0.230302,607345,357383
1473.67,0.235546,603789,351026
1476.85,0.239886,601175,346031
1480.02,0.245034,597737,339998
1483.19,0.250766,594479,333711
1486.36,0.255326,591232,328422
1489.52,0.259772,587853,323219
1492.68,0.262203,583875,319240
1496.89,0.264620,578062,314307
1500.03,0.264864,574159,312010
1503.18,0.265135,570285,309711
1506.32,0.263639,565444,308142
1509.45,0.263216,560571,305784
1512.58,0.261338,555821,304507
1515.71,0.258849,550344,303239
1519.87,0.256376,543983,301446
1522.99,0.254377,538764,299931
1526.1,0.251598,533692,299015
1529.21,0.248754,527902,297714
1532.32,0.245425,521886,296586
1535.42,0.243567,515888,294434
1538.51,0.239411,509987,293865
1541.6,0.237156,503936,291890
1545.72,0.233269,494694,289113
1548.8,0.230316,488378,287369
1551.88,0.228551,481832,284672
1554.95,0.226250,474989,282120
1558.02,0.224804,467818,278787
1561.08,0.223465,460730,275411
1564.15,0.222220,454170,272269
1568.22,0.221407,444181,266780
1571.27,0.220878,436947,262755
1574.32,0.219529,429598,259139
1577.36,0.218084,422039,255428
1580.4,0.216660,414375,251613
1583.43,0.215422,406354,247447
1586.46,0.214109,398475,243384
1590.49,0.211453,388982,239043
1593.51,0.210214,380708,234627
1596.53,0.207441,372727,231180
1599.54,0.206480,365060,226926
1602.55,0.203629,357543,223717
1605.55,0.202577,349495,219212
1608.55,0.200098,341154,215205
1612.54,0.198609,330877,209439
1615.53,0.196862,322904,205216
1618.51,0.198491,315116,199517
1621.49,0.194363,307217,196373
1624.47,0.191609,299481,192646
1627.44,0.192148,292112,187673
1630.41,0.190872,284245,183156
1634.36,0.189969,274079,176973
1637.32,0.188396,266916,172973
1640.27,0.187820,259612,168463
1643.22,0.187558,251804,163495
1646.16,0.185837,244348,159284
1649.1,0.186457,236703,154080
1652.04,0.183936,228171,149391
1655.95,0.181145,215408,141944
1658.88,0.177453,204937,136197
1661.8,0.171531,193395,130291
1664.72,0.164802,179728,122974
1667.63,0.151475,163642,115457
1670.54,0.138640,146312,106326
1673.44,0.123136,128451,96739
1677.31,0.103883,105080,82725
1680.21,0.093448,88906,71694
1683.1,0.088863,75033,61149
1685.99,0.093691,63520,51194
1688.87,0.091838,53714,43476
1691.75,0.096273,45653,36576
1694.62,0.104262,39137,30784
1697.49,0.110423,33776,26193
1701.31,0.118194,28175,21462

File: Column 1_050581_20150331_121434.csv
Method:,Column 1,,
Host Date-Time:,31/3/15 @ 12:14:34,,
Header Version:,1,,
System Temp (C):,33.72,,
Detector Temp (C):,34.57,,
Humidity (%):,1.95,,
Lamp PD:,3818,,
Shift Vector Coefficients:,-10.5391,0.0761263,-0.000134223,,
Pixel to Wavelength Coefficients:,1775.68,-0.916766,-0.000235065,,
Serial Number:,5510004,,
Scan Config Name:,Column 1,,
Scan Config Type:,Slew,,
Section 1,,
Start wavelength (nm):,900,,
End wavelength (nm):,1700,,
Pattern Pixel Width (nm):,   7.03,,,,
Exposure (ms):,  0.635,,,,
Digital Resolution:,228,,
Num Repeats:,6,,
PGA Gain:,64,,
Total Measurement Time in sec:,  2.673,,
Wavelength (nm),Absorbance (AU),Reference Signal (unitless),Sample Signal (unitless)
901.51,0.071025,108485,92118
905.376,0.076993,121306,101599
909.237,0.079048,131909,109958
913.095,0.081760,143299,118709
916.948,0.081092,156982,130244
922.079,0.082742,179937,148723
925.923,0.082735,200504,165725
929.762,0.083862,222660,183561
933.597,0.084254,244426,201323
937.427,0.083418,263972,217841
941.254,0.082556,281845,233053
945.076,0.082078,297271,246079
950.165,0.080833,315605,262006
953.978,0.080378,328029,272605
957.786,0.080601,340470,282799
961.59,0.080601,352317,292639
965.389,0.080391,363056,301705
969.185,0.080579,373162,309969
972.976,0.081106,382632,317450
976.763,0.081985,391202,323904
981.806,0.082293,400190,331111
985.583,0.082974,406088,335464
989.355,0.083462,410162,338449
993.124,0.083674,412868,340516
996.888,0.084263,414263,341203
1000.65,0.085370,415476,341331
1004.4,0.085849,415479,340957
1009.41,0.086858,414358,339248
1013.15,0.087801,412923,337340
1016.89,0.088386,411526,335746
1020.63,0.088134,409066,333933
1024.36,0.087167,406777,332805
1028.09,0.087811,404427,330392
1031.82,0.088332,401911,327943
1036.78,0.087167,398410,325959
1040.49,0.087111,396204,324196
1044.2,0.087453,394236,322332
1047.91,0.086422,392042,321300
1051.61,0.086299,389823,319572
1055.31,0.085702,388234,318707
1059,0.085620,387599,318246
1063.92,0.084670,386688,318193
1067.61,0.084205,386598,318460
1071.29,0.084636,387377,318785
1074.96,0.083924,388536,320263
1078.63,0.082694,389855,322262
1082.3,0.082090,391215,323836
1085.96,0.081523,393215,325917
1090.84,0.080421,396270,329284
1094.49,0.079507,398760,332051
1098.14,0.079318,400987,334051
1101.79,0.079049,403477,336333
1105.43,0.078643,406116,338850
1109.06,0.078250,407701,340480
1112.7,0.077903,409859,342556
1117.53,0.077871,412494,344784
1121.15,0.078084,414909,346632
1124.77,0.078120,416559,347982
1128.38,0.078924,418532,348983
1131.99,0.080372,419956,349005
1135.6,0.081140,421946,350039
1139.2,0.083039,423881,350110
1143.99,0.084941,426786,350969
1147.58,0.085797,428617,351781
1151.17,0.086782,431169,353074
1154.75,0.087559,433579,354413
1158.33,0.089576,436264,354955
1161.91,0.090994,439132,356124
1165.48,0.093146,442389,356992
1169.04,0.095377,446101,358143
1173.79,0.098816,451929,359960
1177.34,0.100585,456026,361747
1180.9,0.102851,461306,364031
1184.44,0.104583,467657,367574
1187.99,0.104848,473969,372308
1191.52,0.105348,479856,376498
1195.06,0.105497,487372,382264
1199.76,0.104814,497347,390702
1203.29,0.104118,504311,396808
1206.81,0.103304,511507,403225
1210.33,0.102734,519078,409731
1213.84,0.102456,527163,416379
1217.35,0.101744,534208,422636
1220.85,0.100985,540472,428340
1225.51,0.100322,549929,436500
1229.01,0.099837,556888,442518
1232.5,0.099377,562180,447196
1235.98,0.098953,567975,452248
1239.46,0.097743,574815,458971
1242.94,0.096789,582782,466355
1246.41,0.096035,591476,474135
1251.03,0.096263,604016,483933
1254.5,0.095999,612289,490860
1257.96,0.096504,619125,495763
1261.41,0.097038,624551,499494
1264.86,0.097398,629900,503354
1268.31,0.097868,634345,506358
1271.75,0.098615,638574,508857
1276.33,0.098856,642499,511701
1279.76,0.098783,645905,514500
1283.19,0.098638,648307,516586
1286.61,0.098162,650446,518859
1290.03,0.097760,652132,520685
1293.44,0.097559,653907,522345
1296.85,0.097359,655963,524228
1301.39,0.097042,657349,525720
1304.8,0.096923,657558,526031
1308.19,0.096841,658515,526896
1311.58,0.097590,658804,526219
1314.97,0.098186,659011,525662
1318.36,0.098320,658272,524911
1321.73,0.098626,658022,524342
1326.23,0.099745,657870,522872
1329.6,0.100509,656482,520851
1332.97,0.101817,654926,518054
1336.33,0.102944,653727,515766
1339.69,0.104320,652497,513167
1343.04,0.106135,649913,509003
1346.39,0.108045,647671,505021
1349.73,0.109659,645338,501335
1354.18,0.113128,641175,494138
1357.52,0.115191,638376,489650
1360.85,0.116993,635805,485658
1364.17,0.118847,633413,481770
1367.49,0.121512,631026,477019
1370.81,0.124047,628050,472006
1374.12,0.125822,625034,467823
1378.54,0.129388,620272,460462
1381.84,0.132063,616892,455141
1385.14,0.136393,613613,448231
1388.43,0.140889,611526,442105
1391.72,0.145280,610663,437040
1395.01,0.150392,610634,431906
1398.29,0.155346,611700,427752
1402.66,0.162879,614051,422013
1405.93,0.168890,616268,417715
1409.2,0.174209,617795,413652
1412.46,0.179204,618872,409635
1415.72,0.184375,619795,405390
1418.98,0.187797,620495,402663
1422.23,0.191655,621087,399482
1426.56,0.196093,621375,395604
1429.8,0.198761,621616,393334
1433.04,0.201104,622129,391540
1436.27,0.203530,621526,388982
1439.5,0.205708,621113,386779
1442.72,0.208150,620921,384491
1445.94,0.210403,620270,382101
1450.23,0.213582,618860,378452
1453.44,0.215812,617697,375806
1456.64,0.218679,616264,372467
1459.85,0.221624,614413,368839
1463.04,0.223559,612307,365940
1466.24,0.226501,610032,362119
1469.43,0.229935,607345,357685
1473.67,0.235053,603789,351425
1476.85,0.239876,601175,346039
1480.02,0.245061,597737,339977
1483.19,0.250890,594479,333616
1486.36,0.255731,591232,328116
1489.52,0.259961,587853,323078
1492.68,0.262271,583875,319190
1496.89,0.264934,578062,314080
1500.03,0.265428,574159,311605
1503.18,0.265190,570285,309672
1506.32,0.264034,565444,307862
1509.45,0.263165,560571,305820
1512.58,0.261425,555821,304446
1515.71,0.258954,550344,303166
1519.87,0.256546,543983,301328
1522.99,0.253702,538764,300398
1526.1,0.251331,533692,299199
1529.21,0.248723,527902,297735
1532.32,0.245760,521886,296357
1535.42,0.242963,515888,294844
1538.51,0.240068,509987,293421
1541.6,0.237604,503936,291589
1545.72,0.233252,494694,289124
1548.8,0.230501,488378,287247
1551.88,0.228423,481832,284756
1554.95,0.225671,474989,282496
1558.02,0.224794,467818,278794
1561.08,0.223572,460730,275343
1564.15,0.222388,454170,272164
1568.22,0.221410,444181,266778
1571.27,0.220516,436947,262974
1574.32,0.219806,429598,258974
1577.36,0.218821,422039,254995
1580.4,0.216636,414375,251627
1583.43,0.215772,406354,247248
1586.46,0.214307,398475,243273
1590.49,0.211635,388982,238943
1593.51,0.209892,380708,234801
1596.53,0.207414,372727,231194
1599.54,0.206430,365060,226952
1602.55,0.203779,357543,223640
1605.55,0.202020,349495,219493
1608.55,0.199773,341154,215366
1612.54,0.198754,330877,209369
1615.53,0.196188,322904,205535
1618.51,0.195735,315116,200787
1621.49,0.195098,307217,196041
1624.47,0.193274,299481,191909
1627.44,0.191854,292112,187800
1630.41,0.191415,284245,182927
1634.36,0.189209,274079,177283
1637.32,0.189351,266916,172593
1640.27,0.189119,259612,167960
1643.22,0.187747,251804,163424
1646.16,0.186502,244348,159040
1649.1,0.184781,236703,154676
1652.04,0.183942,228171,149389
1655.95,0.181445,215408,141846
1658.88,0.176345,204937,136545
1661.8,0.173612,193395,129668
1664.72,0.164206,179728,123143
1667.63,0.152258,163642,115249
1670.54,0.138976,146312,106244
1673.44,0.121621,128451,97077
1677.31,0.104903,105080,82531
1680.21,0.092788,88906,71803
1683.1,0.086222,75033,61522
1685.99,0.092142,63520,51377
1688.87,0.093519,53714,43308
1691.75,0.098308,45653,36405
1694.62,0.103656,39137,30827
1697.49,0.106873,33776,26408
1701.31,0.117486,28175,21497