Folder: textile_sorting_NIRSCAN_/samples/wool/wool-000811 (part 18)

File: Column 1_050540_20150331_115506.csv
Method:,Column 1,,
Host Date-Time:,31/3/15 @ 11:55:6,,
Header Version:,1,,
System Temp (C):,32.25,,
Detector Temp (C):,30.5,,
Humidity (%):,3.13,,
Lamp PD:,3825,,
Shift Vector Coefficients:,-10.5391,0.0761263,-0.000134223,,
Pixel to Wavelength Coefficients:,1775.68,-0.916766,-0.000235065,,
Serial Number:,5510004,,
Scan Config Name:,Column 1,,
Scan Config Type:,Slew,,
Section 1,,
Start wavelength (nm):,900,,
End wavelength (nm):,1700,,
Pattern Pixel Width (nm):,   7.03,,,,
Exposure (ms):,  0.635,,,,
Digital Resolution:,228,,
Num Repeats:,6,,
PGA Gain:,64,,
Total Measurement Time in sec:,  2.695,,
Wavelength (nm),Absorbance (AU),Reference Signal (unitless),Sample Signal (unitless)
901.51,0.043763,108485,98086
905.376,0.051654,121306,107703
909.237,0.051840,131909,117067
913.095,0.051681,143299,127222
916.948,0.051540,156982,139415
922.079,0.052049,179937,159614
925.923,0.051935,200504,177905
929.762,0.052768,222660,197185
933.597,0.052679,244426,216505
937.427,0.053865,263972,233181
941.254,0.053759,281845,249030
945.076,0.053471,297271,262834
950.165,0.054001,315605,278704
953.978,0.053028,328029,290325
957.786,0.053544,340470,300978
961.59,0.054310,352317,310902
965.389,0.055001,363056,319869
969.185,0.054591,373162,329084
972.976,0.055898,382632,336421
976.763,0.056107,391202,343791
981.806,0.056938,400190,351017
985.583,0.058015,406088,355308
989.355,0.058606,410162,358385
993.124,0.058733,412868,360644
996.888,0.059486,414263,361235
1000.65,0.060595,415476,361369
1004.4,0.061279,415479,360803
1009.41,0.063039,414358,358374
1013.15,0.062802,412923,357328
1016.89,0.063888,411526,355230
1020.63,0.064158,409066,352887
1024.36,0.064021,406777,351023
1028.09,0.062861,404427,349928
1031.82,0.062694,401911,347885
1036.78,0.062656,398410,344885
1040.49,0.061914,396204,343562
1044.2,0.061035,394236,342548
1047.91,0.060504,392042,341058
1051.61,0.060025,389823,339502
1055.31,0.059239,388234,338731
1059,0.057786,387599,339310
1063.92,0.057451,386688,338774
1067.61,0.055898,386598,339908
1071.29,0.055600,387377,340827
1074.96,0.054752,388536,342515
1078.63,0.054153,389855,344152
1082.3,0.053265,391215,346059
1085.96,0.052278,393215,348620
1090.84,0.052136,396270,351443
1094.49,0.051900,398760,353844
1098.14,0.051403,400987,356227
1101.79,0.051468,403477,358386
1105.43,0.050513,406116,361524
1109.06,0.050241,407701,363162
1112.7,0.050378,409859,364969
1117.53,0.049787,412494,367816
1121.15,0.051907,414909,368168
1124.77,0.051489,416559,369988
1128.38,0.053712,418532,369842
1131.99,0.055334,419956,369717
1135.6,0.057201,421946,369876
1139.2,0.059160,423881,369900
1143.99,0.061755,426786,370216
1147.58,0.062836,428617,370880
1151.17,0.064532,431169,371634
1154.75,0.066060,433579,372399
1158.33,0.067963,436264,373067
1161.91,0.070332,439132,373476
1165.48,0.073289,442389,373693
1169.04,0.076296,446101,374229
1173.79,0.080898,451929,375122
1177.34,0.083222,456026,376502
1180.9,0.085706,461306,378689
1184.44,0.086894,467657,382854
1187.99,0.088055,473969,386986
1191.52,0.088243,479856,391623
1195.06,0.086961,487372,398933
1199.76,0.085975,497347,408023
1203.29,0.084528,504311,415117
1206.81,0.083251,511507,422280
1210.33,0.081894,519078,429871
1213.84,0.080933,527163,437534
1217.35,0.080052,534208,444282
1220.85,0.079216,540472,450357
1225.51,0.077501,549929,460051
1229.01,0.077296,556888,466092
1232.5,0.076144,562180,471771
1235.98,0.075008,567975,477883
1239.46,0.074108,574815,484641
1242.94,0.072887,582782,492741
1246.41,0.072223,591476,500858
1251.03,0.071963,604016,511783
1254.5,0.071644,612289,519174
1257.96,0.072084,619125,524438
1261.41,0.072697,624551,528288
1264.86,0.072844,629900,532633
1268.31,0.073811,634345,535198
1271.75,0.074506,638574,537904
1276.33,0.075105,642499,540465
1279.76,0.075066,645905,543379
1283.19,0.074303,648307,546359
1286.61,0.073943,650446,548616
1290.03,0.073427,652132,550692
1293.44,0.073112,653907,552591
1296.85,0.072672,655963,554891
1301.39,0.072374,657349,556445
1304.8,0.072539,657558,556410
1308.19,0.072550,658515,557206
1311.58,0.073461,658804,556282
1314.97,0.073751,659011,556086
1318.36,0.074214,658272,554870
1321.73,0.074569,658022,554206
1326.23,0.075868,657870,552423
1329.6,0.076966,656482,549866
1332.97,0.078262,654926,546928
1336.33,0.079387,653727,544514
1339.69,0.081455,652497,540908
1343.04,0.083285,649913,536501
1346.39,0.085764,647671,531607
1349.73,0.088259,645338,526658
1354.18,0.091828,641175,518978
1357.52,0.094386,638376,513677
1360.85,0.096212,635805,509462
1364.17,0.098659,633413,504694
1367.49,0.102210,631026,498697
1370.81,0.104456,628050,493785
1374.12,0.107248,625034,488265
1378.54,0.111338,620272,480003
1381.84,0.115191,616892,473171
1385.14,0.119557,613613,465948
1388.43,0.124983,611526,458598
1391.72,0.130840,610663,451816
1395.01,0.136356,610634,446093
1398.29,0.142955,611700,440133
1402.66,0.151659,614051,433057
1405.93,0.158269,616268,428056
1409.2,0.165195,617795,422328
1412.46,0.171126,618872,417325
1415.72,0.176150,619795,413141
1418.98,0.180865,620495,409141
1422.23,0.185413,621087,405265
1426.56,0.189840,621375,401341
1429.8,0.193675,621616,397967
1433.04,0.196331,622129,395867
1436.27,0.198838,621526,393207
1439.5,0.200793,621113,391181
1442.72,0.203406,620921,388714
1445.94,0.206069,620270,385933
1450.23,0.210254,618860,381363
1453.44,0.212789,617697,378431
1456.64,0.215837,616264,374912
1459.85,0.218588,614413,371426
1463.04,0.220921,612307,368170
1466.24,0.224557,610032,363744
1469.43,0.226980,607345,360127
1473.67,0.232856,603789,353207
1476.85,0.237337,601175,348068
1480.02,0.242790,597737,341759
1483.19,0.249269,594479,334863
1486.36,0.254115,591232,329339
1489.52,0.259863,587853,323151
1492.68,0.263950,583875,317958
1496.89,0.266798,578062,312735
1500.03,0.266723,574159,310677
1503.18,0.267764,570285,307842
1506.32,0.266948,565444,305803
1509.45,0.265513,560571,304171
1512.58,0.264164,555821,302532
1515.71,0.262043,550344,301017
1519.87,0.258642,543983,299877
1522.99,0.255807,538764,298945
1526.1,0.253669,533692,297592
1529.21,0.250250,527902,296690
1532.32,0.247233,521886,295354
1535.42,0.244406,515888,293866
1538.51,0.240866,509987,292882
1541.6,0.237173,503936,291879
1545.72,0.232202,494694,289824
1548.8,0.228963,488378,288266
1551.88,0.226855,481832,285786
1554.95,0.224865,474989,283021
1558.02,0.222257,467818,280427
1561.08,0.220747,460730,277140
1564.15,0.219512,454170,273972
1568.22,0.218727,444181,268431
1571.27,0.217762,436947,264647
1574.32,0.217153,429598,260561
1577.36,0.215240,422039,257106
1580.4,0.214402,414375,252925
1583.43,0.212674,406354,249018
1586.46,0.209531,398475,245963
1590.49,0.207738,388982,241097
1593.51,0.205796,380708,237026
1596.53,0.202563,372727,233791
1599.54,0.200027,365060,230323
1602.55,0.198068,357543,226600
1605.55,0.195465,349495,222831
1608.55,0.193022,341154,218740
1612.54,0.189980,330877,213642
1615.53,0.188715,322904,209102
1618.51,0.186984,315116,204874
1621.49,0.186628,307217,199902
1624.47,0.184005,299481,196049
1627.44,0.186012,292112,190343
1630.41,0.181566,284245,187123
1634.36,0.179076,274079,181468
1637.32,0.177357,266916,177426
1640.27,0.178627,259612,172067
1643.22,0.176351,251804,167769
1646.16,0.175968,244348,162945
1649.1,0.175357,236703,158069
1652.04,0.173220,228171,153123
1655.95,0.172202,215408,144897
1658.88,0.170384,204937,138432
1661.8,0.168839,193395,131101
1664.72,0.168680,179728,121881
1667.63,0.161443,163642,112837
1670.54,0.157498,146312,101808
1673.44,0.150164,128451,90902
1677.31,0.148484,105080,74651
1680.21,0.146164,88906,63499
1683.1,0.149782,75033,53146
1685.99,0.155176,63520,44436
1688.87,0.160281,53714,37137
1691.75,0.159343,45653,31632
1694.62,0.167461,39137,26615
1697.49,0.174577,33776,22596
1701.31,0.179814,28175,18623

File: Column 1_050540_20150331_115512.csv
Method:,Column 1,,
Host Date-Time:,31/3/15 @ 11:55:12,,
Header Version:,1,,
System Temp (C):,32.28,,
Detector Temp (C):,30.55,,
Humidity (%):,3.02,,
Lamp PD:,3825,,
Shift Vector Coefficients:,-10.5391,0.0761263,-0.000134223,,
Pixel to Wavelength Coefficients:,1775.68,-0.916766,-0.000235065,,
Serial Number:,5510004,,
Scan Config Name:,Column 1,,
Scan Config Type:,Slew,,
Section 1,,
Start wavelength (nm):,900,,
End wavelength (nm):,1700,,
Pattern Pixel Width (nm):,   7.03,,,,
Exposure (ms):,  0.635,,,,
Digital Resolution:,228,,
Num Repeats:,6,,
PGA Gain:,64,,
Total Measurement Time in sec:,  2.680,,
Wavelength (nm),Absorbance (AU),Reference Signal (unitless),Sample Signal (unitless)
901.51,0.044405,108485,97941
905.376,0.050809,121306,107913
909.237,0.049893,131909,117593
913.095,0.051958,143299,127141
916.948,0.051893,156982,139302
922.079,0.052583,179937,159418
925.923,0.051481,200504,178091
929.762,0.052500,222660,197307
933.597,0.053462,244426,216115
937.427,0.052868,263972,233717
941.254,0.054310,281845,248714
945.076,0.053631,297271,262737
950.165,0.053406,315605,279086
953.978,0.053047,328029,290312
957.786,0.053883,340470,300743
961.59,0.054848,352317,310517
965.389,0.054748,363056,320056
969.185,0.054502,373162,329151
972.976,0.055547,382632,336693
976.763,0.055859,391202,343987
981.806,0.057224,400190,350786
985.583,0.057628,406088,355625
989.355,0.058090,410162,358811
993.124,0.058282,412868,361018
996.888,0.058816,414263,361793
1000.65,0.060375,415476,361552
1004.4,0.061237,415479,360838
1009.41,0.062406,414358,358897
1013.15,0.062877,412923,357266
1016.89,0.063291,411526,355718
1020.63,0.063293,409066,353590
1024.36,0.063385,406777,351537
1028.09,0.063240,404427,349623
1031.82,0.062753,401911,347838
1036.78,0.062451,398410,345048
1040.49,0.061458,396204,343923
1044.2,0.060930,394236,342631
1047.91,0.060554,392042,341019
1051.61,0.059759,389823,339710
1055.31,0.059034,388234,338891
1059,0.058180,387599,339002
1063.92,0.056957,386688,339159
1067.61,0.055891,386598,339914
1071.29,0.055201,387377,341140
1074.96,0.055046,388536,342283
1078.63,0.054511,389855,343868
1082.3,0.053295,391215,346035
1085.96,0.052442,393215,348488
1090.84,0.052025,396270,351533
1094.49,0.051219,398760,354399
1098.14,0.051029,400987,356534
1101.79,0.050562,403477,359134
1105.43,0.050831,406116,361259
1109.06,0.050188,407701,363207
1112.7,0.049912,409859,365361
1117.53,0.050411,412494,367288
1121.15,0.051071,414909,368877
1124.77,0.051483,416559,369993
1128.38,0.053076,418532,370384
1131.99,0.055114,419956,369905
1135.6,0.056676,421946,370323
1139.2,0.058369,423881,370574
1143.99,0.061338,426786,370572
1147.58,0.063044,428617,370702
1151.17,0.063700,431169,372347
1154.75,0.065653,433579,372748
1158.33,0.067773,436264,373230
1161.91,0.069927,439132,373825
1165.48,0.072636,442389,374256
1169.04,0.075797,446101,374659
1173.79,0.079873,451929,376008
1177.34,0.083057,456026,376645
1180.9,0.085357,461306,378994
1184.44,0.087473,467657,382344
1187.99,0.088845,473969,386282
1191.52,0.087641,479856,392166
1195.06,0.086964,487372,398930
1199.76,0.086012,497347,407988
1203.29,0.084119,504311,415508
1206.81,0.083075,511507,422451
1210.33,0.082228,519078,429541
1213.84,0.081153,527163,437313
1217.35,0.080002,534208,444333
1220.85,0.078932,540472,450652
1225.51,0.077177,549929,460394
1229.01,0.076644,556888,466793
1232.5,0.076033,562180,471892
1235.98,0.075177,567975,477697
1239.46,0.074118,574815,484630
1242.94,0.072563,582782,493109
1246.41,0.071716,591476,501443
1251.03,0.071289,604016,512577
1254.5,0.071639,612289,519180
1257.96,0.071965,619125,524582
1261.41,0.072766,624551,528204
1264.86,0.072969,629900,532479
1268.31,0.073745,634345,535279
1271.75,0.074250,638574,538222
1276.33,0.074923,642499,540691
1279.76,0.074761,645905,543760
1283.19,0.074001,648307,546739
1286.61,0.073812,650446,548781
1290.03,0.073420,652132,550701
1293.44,0.072890,653907,552874
1296.85,0.072641,655963,554930
1301.39,0.072844,657349,555843
1304.8,0.072453,657558,556521
1308.19,0.072900,658515,556757
1311.58,0.073095,658804,556751
1314.97,0.073734,659011,556107
1318.36,0.073897,658272,555275
1321.73,0.074607,658022,554158
1326.23,0.075563,657870,552812
1329.6,0.076956,656482,549879
1332.97,0.078297,654926,546884
1336.33,0.079243,653727,544695
1339.69,0.081164,652497,541271
1343.04,0.082912,649913,536962
1346.39,0.085404,647671,532047
1349.73,0.088056,645338,526904
1354.18,0.091271,641175,519644
1357.52,0.094050,638376,514075
1360.85,0.096465,635805,509165
1364.17,0.098998,633413,504300
1367.49,0.101354,631026,499681
1370.81,0.104473,628050,493766
1374.12,0.107285,625034,488223
1378.54,0.110929,620272,480455
1381.84,0.114831,616892,473563
1385.14,0.119813,613613,465674
1388.43,0.125007,611526,458572
1391.72,0.130547,610663,452121
1395.01,0.136484,610634,445961
1398.29,0.142950,611700,440138
1402.66,0.151392,614051,433324
1405.93,0.158645,616268,427686
1409.2,0.164215,617795,423282
1412.46,0.170539,618872,417890
1415.72,0.176133,619795,413157
1418.98,0.180638,620495,409355
1422.23,0.184885,621087,405758
1426.56,0.190258,621375,400955
1429.8,0.192999,621616,398587
1433.04,0.195601,622129,396533
1436.27,0.198328,621526,393669
1439.5,0.200345,621113,391585
1442.72,0.203200,620921,388899
1445.94,0.206020,620270,385976
1450.23,0.209968,618860,381614
1453.44,0.212302,617697,378855
1456.64,0.215763,616264,374976
1459.85,0.218568,614413,371443
1463.04,0.220639,612307,368409
1466.24,0.224301,610032,363958
1469.43,0.227227,607345,359922
1473.67,0.232675,603789,353354
1476.85,0.237331,601175,348073
1480.02,0.242856,597737,341707
1483.19,0.248689,594479,335311
1486.36,0.254681,591232,328910
1489.52,0.259519,587853,323407
1492.68,0.263378,583875,318377
1496.89,0.266610,578062,312870
1500.03,0.267169,574159,310358
1503.18,0.267689,570285,307895
1506.32,0.267300,565444,305555
1509.45,0.265453,560571,304213
1512.58,0.264755,555821,302120
1515.71,0.261805,550344,301182
1519.87,0.259007,543983,299625
1522.99,0.256547,538764,298436
1526.1,0.253885,533692,297444
1529.21,0.250233,527902,296702
1532.32,0.247603,521886,295102
1535.42,0.243923,515888,294193
1538.51,0.240736,509987,292970
1541.6,0.237046,503936,291964
1545.72,0.232115,494694,289882
1548.8,0.229492,488378,287915
1551.88,0.225961,481832,286375
1554.95,0.224192,474989,283460
1558.02,0.222218,467818,280452
1561.08,0.221153,460730,276881
1564.15,0.219953,454170,273694
1568.22,0.218011,444181,268874
1571.27,0.218064,436947,264463
1574.32,0.216998,429598,260654
1577.36,0.215303,422039,257069
1580.4,0.213767,414375,253295
1583.43,0.211380,406354,249761
1586.46,0.209745,398475,245842
1590.49,0.206599,388982,241730
1593.51,0.205175,380708,237365
1596.53,0.202479,372727,233836
1599.54,0.200859,365060,229882
1602.55,0.197683,357543,226801
1605.55,0.196433,349495,222335
1608.55,0.194243,341154,218126
1612.54,0.190364,330877,213453
1615.53,0.188572,322904,209171
1618.51,0.187739,315116,204518
1621.49,0.186776,307217,199834
1624.47,0.185289,299481,195470
1627.44,0.182628,292112,191832
1630.41,0.181276,284245,187248
1634.36,0.178495,274079,181711
1637.32,0.178315,266916,177035
1640.27,0.176814,259612,172787
1643.22,0.176789,251804,167600
1646.16,0.176394,244348,162785
1649.1,0.175844,236703,157892
1652.04,0.173549,228171,153007
1655.95,0.172172,215408,144907
1658.88,0.169319,204937,138772
1661.8,0.168230,193395,131285
1664.72,0.167445,179728,122228
1667.63,0.161797,163642,112745
1670.54,0.155379,146312,102306
1673.44,0.151207,128451,90684
1677.31,0.145892,105080,75098
1680.21,0.144867,88906,63689
1683.1,0.147898,75033,53377
1685.99,0.155312,63520,44422
1688.87,0.159872,53714,37172
1691.75,0.168668,45653,30960
1694.62,0.171198,39137,26387
1697.49,0.172334,33776,22713
1701.31,0.177744,28175,18712

File: Column 1_050541_20150331_115532.csv
Method:,Column 1,,
Host Date-Time:,31/3/15 @ 11:55:32,,
Header Version:,1,,
System Temp (C):,32.35,,
Detector Temp (C):,30.63,,
Humidity (%):,2.92,,
Lamp PD:,3824,,
Shift Vector Coefficients:,-10.5391,0.0761263,-0.000134223,,
Pixel to Wavelength Coefficients:,1775.68,-0.916766,-0.000235065,,
Serial Number:,5510004,,
Scan Config Name:,Column 1,,
Scan Config Type:,Slew,,
Section 1,,
Start wavelength (nm):,900,,
End wavelength (nm):,1700,,
Pattern Pixel Width (nm):,   7.03,,,,
Exposure (ms):,  0.635,,,,
Digital Resolution:,228,,
Num Repeats:,6,,
PGA Gain:,64,,
Total Measurement Time in sec:,  2.733,,
Wavelength (nm),Absorbance (AU),Reference Signal (unitless),Sample Signal (unitless)
901.51,0.043754,108485,98088
905.376,0.049470,121306,108246
909.237,0.050654,131909,117387
913.095,0.051773,143299,127195
916.948,0.052804,156982,139010
922.079,0.052651,179937,159393
925.923,0.053243,200504,177370
929.762,0.052546,222660,197286
933.597,0.053350,244426,216171
937.427,0.053366,263972,233449
941.254,0.053888,281845,248956
945.076,0.053990,297271,262520
950.165,0.053979,315605,278718
953.978,0.053360,328029,290103
957.786,0.053909,340470,300725
961.59,0.055059,352317,310366
965.389,0.054518,363056,320225
969.185,0.054938,373162,328821
972.976,0.055450,382632,336768
976.763,0.056486,391202,343491
981.806,0.056771,400190,351152
985.583,0.057864,406088,355432
989.355,0.058419,410162,358539
993.124,0.058936,412868,360475
996.888,0.059193,414263,361479
1000.65,0.060427,415476,361509
1004.4,0.061513,415479,360609
1009.41,0.062637,414358,358706
1013.15,0.063267,412923,356946
1016.89,0.063674,411526,355405
1020.63,0.063320,409066,353568
1024.36,0.063844,406777,351166
1028.09,0.063715,404427,349241
1031.82,0.063078,401911,347578
1036.78,0.062792,398410,344777
1040.49,0.062125,396204,343395
1044.2,0.061065,394236,342524
1047.91,0.060741,392042,340872
1051.61,0.059856,389823,339634
1055.31,0.059795,388234,338297
1059,0.058911,387599,338432
1063.92,0.056991,386688,339133
1067.61,0.056374,386598,339536
1071.29,0.054875,387377,341396
1074.96,0.054764,388536,342505
1078.63,0.054544,389855,343842
1082.3,0.052920,391215,346334
1085.96,0.052518,393215,348427
1090.84,0.051876,396270,351654
1094.49,0.051856,398760,353880
1098.14,0.050688,400987,356814
1101.79,0.050496,403477,359189
1105.43,0.050724,406116,361348
1109.06,0.050597,407701,362865
1112.7,0.050455,409859,364905
1117.53,0.050591,412494,367136
1121.15,0.051181,414909,368784
1124.77,0.051429,416559,370039
1128.38,0.053129,418532,370339
1131.99,0.054569,419956,370369
1135.6,0.057217,421946,369862
1139.2,0.058959,423881,370071
1143.99,0.061910,426786,370084
1147.58,0.062794,428617,370916
1151.17,0.064242,431169,371882
1154.75,0.065634,433579,372764
1158.33,0.068157,436264,372900
1161.91,0.070107,439132,373670
1165.48,0.073127,442389,373833
1169.04,0.075769,446101,374683
1173.79,0.079957,451929,375935
1177.34,0.082927,456026,376758
1180.9,0.085450,461306,378913
1184.44,0.087479,467657,382339
1187.99,0.088243,473969,386818
1191.52,0.087923,479856,391911
1195.06,0.087363,487372,398564
1199.76,0.085554,497347,408419
1203.29,0.084283,504311,415351
1206.81,0.083132,511507,422396
1210.33,0.081475,519078,430286
1213.84,0.080760,527163,437708
1217.35,0.079619,534208,444725
1220.85,0.078706,540472,450886
1225.51,0.077312,549929,460251
1229.01,0.076952,556888,466462
1232.5,0.075829,562180,472114
1235.98,0.074951,567975,477945
1239.46,0.074012,574815,484748
1242.94,0.072775,582782,492869
1246.41,0.071742,591476,501412
1251.03,0.071664,604016,512135
1254.5,0.071609,612289,519215
1257.96,0.072200,619125,524298
1261.41,0.072638,624551,528360
1264.86,0.073129,629900,532283
1268.31,0.073500,634345,535581
1271.75,0.074514,638574,537895
1276.33,0.074978,642499,540623
1279.76,0.074867,645905,543628
1283.19,0.074259,648307,546414
1286.61,0.073694,650446,548930
1290.03,0.073633,652132,550430
1293.44,0.072609,653907,553232
1296.85,0.072507,655963,555102
1301.39,0.072541,657349,556231
1304.8,0.072202,657558,556842
1308.19,0.072555,658515,557199
1311.58,0.072939,658804,556951
1314.97,0.073718,659011,556128
1318.36,0.073872,658272,555307
1321.73,0.074535,658022,554249
1326.23,0.075761,657870,552559
1329.6,0.076900,656482,549949
1332.97,0.077910,654926,547372
1336.33,0.079441,653727,544447
1339.69,0.081202,652497,541223
1343.04,0.083240,649913,536556
1346.39,0.085450,647671,531991
1349.73,0.088012,645338,526957
1354.18,0.091759,641175,519060
1357.52,0.094135,638376,513974
1360.85,0.096687,635805,508905
1364.17,0.098686,633413,504663
1367.49,0.101751,631026,499225
1370.81,0.104512,628050,493722
1374.12,0.107107,625034,488424
1378.54,0.110880,620272,480510
1381.84,0.114769,616892,473631
1385.14,0.119501,613613,466008
1388.43,0.124422,611526,459191
1391.72,0.130597,610663,452069
1395.01,0.136234,610634,446218
1398.29,0.142448,611700,440647
1402.66,0.151171,614051,433544
1405.93,0.157725,616268,428593
1409.2,0.164750,617795,422760
1412.46,0.170325,618872,418096
1415.72,0.175868,619795,413409
1418.98,0.180658,620495,409336
1422.23,0.184118,621087,406476
1426.56,0.189311,621375,401830
1429.8,0.192176,621616,399343
1433.04,0.195402,622129,396715
1436.27,0.197943,621526,394018
1439.5,0.200117,621113,391790
1442.72,0.202966,620921,389108
1445.94,0.205757,620270,386210
1450.23,0.209026,618860,382443
1453.44,0.212110,617697,379023
1456.64,0.214832,616264,375781
1459.85,0.218049,614413,371887
1463.04,0.220302,612307,368695
1466.24,0.223555,610032,364584
1469.43,0.226590,607345,360450
1473.67,0.231721,603789,354131
1476.85,0.236554,601175,348696
1480.02,0.241904,597737,342457
1483.19,0.248410,594479,335526
1486.36,0.253979,591232,329442
1489.52,0.259757,587853,323230
1492.68,0.262526,583875,319002
1496.89,0.265717,578062,313514
1500.03,0.266344,574159,310948
1503.18,0.266741,570285,308568
1506.32,0.266630,565444,306027
1509.45,0.264855,560571,304632
1512.58,0.264454,555821,302330
1515.71,0.261580,550344,301338
1519.87,0.258870,543983,299720
1522.99,0.255724,538764,299002
1526.1,0.252856,533692,298150
1529.21,0.250647,527902,296419
1532.32,0.246851,521886,295614
1535.42,0.243349,515888,294582
1538.51,0.239998,509987,293468
1541.6,0.237220,503936,291847
1545.72,0.232490,494694,289632
1548.8,0.229306,488378,288038
1551.88,0.226102,481832,286282
1554.95,0.223983,474989,283596
1558.02,0.221575,467818,280868
1561.08,0.220707,460730,277166
1564.15,0.220045,454170,273636
1568.22,0.218097,444181,268821
1571.27,0.217462,436947,264830
1574.32,0.217300,429598,260473
1577.36,0.214353,422039,257632
1580.4,0.214513,414375,252860
1583.43,0.211721,406354,249565
1586.46,0.208947,398475,246294
1590.49,0.206585,388982,241738
1593.51,0.204579,380708,237691
1596.53,0.202925,372727,233596
1599.54,0.200272,365060,230193
1602.55,0.197733,357543,226775
1605.55,0.195731,349495,222695
1608.55,0.191983,341154,219264
1612.54,0.190171,330877,213548
1615.53,0.187247,322904,209810
1618.51,0.185999,315116,205339
1621.49,0.184924,307217,200688
1624.47,0.183071,299481,196471
1627.44,0.182108,292112,192062
1630.41,0.180495,284245,187585
1634.36,0.178303,274079,181791
1637.32,0.177431,266916,177396
1640.27,0.176922,259612,172744
1643.22,0.175945,251804,167926
1646.16,0.174980,244348,163316
1649.1,0.174303,236703,158453
1652.04,0.172687,228171,153311
1655.95,0.169871,215408,145677
1658.88,0.169785,204937,138623
1661.8,0.168161,193395,131306
1664.72,0.167136,179728,122315
1667.63,0.159542,163642,113332
1670.54,0.155825,146312,102201
1673.44,0.149353,128451,91072
1677.31,0.145666,105080,75137
1680.21,0.142968,88906,63968
1683.1,0.145060,75033,53727
1685.99,0.151477,63520,44816
1688.87,0.157774,53714,37352
1691.75,0.160828,45653,31524
1694.62,0.158802,39137,27151
1697.49,0.170312,33776,22819
1701.31,0.167899,28175,19141