Folder: textile_sorting_NIRSCAN_/samples/wool/wool-000811 (part 152)

File: Column 1_050615_20150331_123037.csv
Method:,Column 1,,
Host Date-Time:,31/3/15 @ 12:30:37,,
Header Version:,1,,
System Temp (C):,34.07,,
Detector Temp (C):,34.98,,
Humidity (%):,1.66,,
Lamp PD:,3818,,
Shift Vector Coefficients:,-10.5391,0.0761263,-0.000134223,,
Pixel to Wavelength Coefficients:,1775.68,-0.916766,-0.000235065,,
Serial Number:,5510004,,
Scan Config Name:,Column 1,,
Scan Config Type:,Slew,,
Section 1,,
Start wavelength (nm):,900,,
End wavelength (nm):,1700,,
Pattern Pixel Width (nm):,   7.03,,,,
Exposure (ms):,  0.635,,,,
Digital Resolution:,228,,
Num Repeats:,6,,
PGA Gain:,64,,
Total Measurement Time in sec:,  2.669,,
Wavelength (nm),Absorbance (AU),Reference Signal (unitless),Sample Signal (unitless)
901.51,0.069623,108485,92416
905.376,0.074589,121306,102163
909.237,0.076735,131909,110545
913.095,0.079428,143299,119348
916.948,0.079192,156982,130815
922.079,0.080665,179937,149436
925.923,0.080933,200504,166414
929.762,0.082171,222660,184277
933.597,0.082194,244426,202280
937.427,0.081288,263972,218912
941.254,0.080118,281845,234365
945.076,0.081995,297271,246126
950.165,0.077657,315605,263929
953.978,0.076595,328029,274990
957.786,0.077321,340470,284943
961.59,0.077570,352317,294689
965.389,0.077390,363056,303797
969.185,0.077680,373162,312045
972.976,0.077391,382632,320177
976.763,0.078231,391202,326716
981.806,0.079094,400190,333559
985.583,0.079358,406088,338269
989.355,0.080023,410162,341140
993.124,0.080135,412868,343302
996.888,0.081037,414263,343747
1000.65,0.081408,415476,344459
1004.4,0.082516,415479,343584
1009.41,0.083872,414358,341589
1013.15,0.084428,412923,339970
1016.89,0.084919,411526,338437
1020.63,0.084576,409066,336680
1024.36,0.084806,406777,334619
1028.09,0.084254,404427,333109
1031.82,0.084268,401911,331026
1036.78,0.083729,398410,328550
1040.49,0.083419,396204,326964
1044.2,0.083868,394236,325004
1047.91,0.083739,392042,323291
1051.61,0.083186,389823,321871
1055.31,0.083215,388234,320537
1059,0.081939,387599,320955
1063.92,0.081267,386688,320696
1067.61,0.080383,386598,321275
1071.29,0.080380,387377,321924
1074.96,0.080256,388536,322980
1078.63,0.078725,389855,325221
1082.3,0.078010,391215,326893
1085.96,0.078207,393215,328415
1090.84,0.076437,396270,332318
1094.49,0.075933,398760,334795
1098.14,0.075632,400987,336898
1101.79,0.075147,403477,339369
1105.43,0.074928,406116,341761
1109.06,0.073367,407701,344330
1112.7,0.073944,409859,345693
1117.53,0.073427,412494,348330
1121.15,0.073791,414909,350076
1124.77,0.074021,416559,351282
1128.38,0.074822,418532,352295
1131.99,0.075731,419956,352755
1135.6,0.077456,421946,353021
1139.2,0.078540,423881,353756
1143.99,0.080647,426786,354457
1147.58,0.080995,428617,355692
1151.17,0.082184,431169,356832
1154.75,0.082994,433579,358158
1158.33,0.084763,436264,358911
1161.91,0.086547,439132,359789
1165.48,0.088564,442389,360778
1169.04,0.090400,446101,362271
1173.79,0.093966,451929,364002
1177.34,0.095691,456026,365846
1180.9,0.098106,461306,368030
1184.44,0.099502,467657,371899
1187.99,0.101075,473969,375556
1191.52,0.101325,479856,380002
1195.06,0.100611,487372,386589
1199.76,0.100303,497347,394781
1203.29,0.099430,504311,401115
1206.81,0.098633,511507,407585
1210.33,0.098123,519078,414104
1213.84,0.097884,527163,420786
1217.35,0.097421,534208,426864
1220.85,0.096502,540472,432784
1225.51,0.095824,549929,441045
1229.01,0.095251,556888,447215
1232.5,0.094639,562180,452102
1235.98,0.093803,567975,457642
1239.46,0.092996,574815,464015
1242.94,0.092598,582782,470878
1246.41,0.091011,591476,479652
1251.03,0.091683,604016,489064
1254.5,0.091471,612289,496004
1257.96,0.092272,619125,500618
1261.41,0.092563,624551,504667
1264.86,0.092857,629900,508645
1268.31,0.093593,634345,511367
1271.75,0.094213,638574,514041
1276.33,0.094578,642499,516767
1279.76,0.093928,645905,520284
1283.19,0.094089,648307,522025
1286.61,0.093521,650446,524433
1290.03,0.093003,652132,526420
1293.44,0.092418,653907,528564
1296.85,0.092072,655963,530649
1301.39,0.092204,657349,531609
1304.8,0.092299,657558,531661
1308.19,0.092439,658515,532263
1311.58,0.092175,658804,532821
1314.97,0.092576,659011,532496
1318.36,0.093014,658272,531363
1321.73,0.093361,658022,530737
1326.23,0.094238,657870,529544
1329.6,0.094651,656482,527925
1332.97,0.095409,654926,525755
1336.33,0.096695,653727,523241
1339.69,0.097925,652497,520779
1343.04,0.099557,649913,516771
1346.39,0.101519,647671,512667
1349.73,0.103066,645338,509004
1354.18,0.106288,641175,501982
1357.52,0.108259,638376,497528
1360.85,0.110294,635805,493208
1364.17,0.112411,633413,488963
1367.49,0.114598,631026,484673
1370.81,0.116805,628050,479943
1374.12,0.118769,625034,475483
1378.54,0.121307,620272,469110
1381.84,0.124374,616892,463271
1385.14,0.127513,613613,457490
1388.43,0.130889,611526,452403
1391.72,0.134729,610663,447788
1395.01,0.138623,610634,443770
1398.29,0.143196,611700,439888
1402.66,0.148734,614051,435984
1405.93,0.153944,616268,432340
1409.2,0.158804,617795,428588
1412.46,0.163122,618872,425088
1415.72,0.166758,619795,422173
1418.98,0.170165,620495,419347
1422.23,0.173211,621087,416813
1426.56,0.177368,621375,413034
1429.8,0.179926,621616,410768
1433.04,0.181984,622129,409163
1436.27,0.184098,621526,406782
1439.5,0.186189,621113,404559
1442.72,0.188581,620921,402212
1445.94,0.190814,620270,399730
1450.23,0.194401,618860,395541
1453.44,0.197060,617697,392388
1456.64,0.200615,616264,388286
1459.85,0.203125,614413,384889
1463.04,0.206069,612307,380978
1466.24,0.209770,610032,376342
1469.43,0.213416,607345,371552
1473.67,0.219801,603789,363986
1476.85,0.225471,601175,357709
1480.02,0.231971,597737,350380
1483.19,0.237867,594479,343771
1486.36,0.243833,591232,337229
1489.52,0.249156,587853,331217
1492.68,0.252345,583875,326569
1496.89,0.253740,578062,322281
1500.03,0.255360,574159,318913
1503.18,0.255434,570285,316707
1506.32,0.253838,565444,315175
1509.45,0.252505,560571,313419
1512.58,0.250772,555821,312006
1515.71,0.249424,550344,309892
1519.87,0.245964,543983,308760
1522.99,0.243289,538764,307687
1526.1,0.240604,533692,306681
1529.21,0.238557,527902,304787
1532.32,0.235039,521886,303764
1535.42,0.232226,515888,302224
1538.51,0.228983,509987,301007
1541.6,0.225966,503936,299509
1545.72,0.222400,494694,296440
1548.8,0.219749,488378,294447
1551.88,0.216924,481832,292396
1554.95,0.215460,474989,289217
1558.02,0.213536,467818,286115
1561.08,0.212459,460730,282480
1564.15,0.211407,454170,279133
1568.22,0.211156,444181,273152
1571.27,0.210307,436947,269229
1574.32,0.209567,429598,265152
1577.36,0.208464,422039,261149
1580.4,0.206971,414375,257290
1583.43,0.206066,406354,252836
1586.46,0.204869,398475,248618
1590.49,0.202851,388982,243825
1593.51,0.200567,380708,239897
1596.53,0.198530,372727,235972
1599.54,0.196839,365060,232020
1602.55,0.195072,357543,228169
1605.55,0.192198,349495,224514
1608.55,0.190502,341154,220013
1612.54,0.189927,330877,213668
1615.53,0.187535,322904,209671
1618.51,0.186708,315116,205004
1621.49,0.185335,307217,200498
1624.47,0.184027,299481,196039
1627.44,0.183272,292112,191548
1630.41,0.182972,284245,186518
1634.36,0.180870,274079,180720
1637.32,0.180423,266916,176178
1640.27,0.179544,259612,171704
1643.22,0.178677,251804,166873
1646.16,0.178298,244348,162073
1649.1,0.177194,236703,157402
1652.04,0.175769,228171,152227
1655.95,0.171630,215408,145088
1658.88,0.168403,204937,139065
1661.8,0.162786,193395,132941
1664.72,0.154169,179728,126022
1667.63,0.143462,163642,117607
1670.54,0.127336,146312,109130
1673.44,0.110884,128451,99507
1677.31,0.092715,105080,84880
1680.21,0.077703,88906,74341
1683.1,0.074350,75033,63227
1685.99,0.072766,63520,53721
1688.87,0.075420,53714,45151
1691.75,0.083428,45653,37674
1694.62,0.083076,39137,32323
1697.49,0.084657,33776,27794
1701.31,0.090313,28175,22885

File: Column 1_050615_20150331_123040.csv
Method:,Column 1,,
Host Date-Time:,31/3/15 @ 12:30:40,,
Header Version:,1,,
System Temp (C):,34.09,,
Detector Temp (C):,34.95,,
Humidity (%):,1.66,,
Lamp PD:,3818,,
Shift Vector Coefficients:,-10.5391,0.0761263,-0.000134223,,
Pixel to Wavelength Coefficients:,1775.68,-0.916766,-0.000235065,,
Serial Number:,5510004,,
Scan Config Name:,Column 1,,
Scan Config Type:,Slew,,
Section 1,,
Start wavelength (nm):,900,,
End wavelength (nm):,1700,,
Pattern Pixel Width (nm):,   7.03,,,,
Exposure (ms):,  0.635,,,,
Digital Resolution:,228,,
Num Repeats:,6,,
PGA Gain:,64,,
Total Measurement Time in sec:,  2.672,,
Wavelength (nm),Absorbance (AU),Reference Signal (unitless),Sample Signal (unitless)
901.51,0.068201,108485,92719
905.376,0.076096,121306,101809
909.237,0.075797,131909,110784
913.095,0.076657,143299,120112
916.948,0.078648,156982,130979
922.079,0.080892,179937,149358
925.923,0.081947,200504,166026
929.762,0.082282,222660,184230
933.597,0.081463,244426,202621
937.427,0.081245,263972,218934
941.254,0.079516,281845,234690
945.076,0.079213,297271,247708
950.165,0.078124,315605,263645
953.978,0.077463,328029,274441
957.786,0.077855,340470,284593
961.59,0.077996,352317,294400
965.389,0.077141,363056,303971
969.185,0.077562,373162,312130
972.976,0.077849,382632,319840
976.763,0.078513,391202,326504
981.806,0.078963,400190,333659
985.583,0.079266,406088,338341
989.355,0.079996,410162,341161
993.124,0.079954,412868,343445
996.888,0.080679,414263,344031
1000.65,0.081701,415476,344227
1004.4,0.082603,415479,343515
1009.41,0.083914,414358,341556
1013.15,0.084344,412923,340036
1016.89,0.084780,411526,338546
1020.63,0.084932,409066,336404
1024.36,0.085364,406777,334189
1028.09,0.085041,404427,332506
1031.82,0.084391,401911,330932
1036.78,0.083934,398410,328395
1040.49,0.083560,396204,326858
1044.2,0.083778,394236,325071
1047.91,0.083009,392042,323835
1051.61,0.083122,389823,321918
1055.31,0.083435,388234,320375
1059,0.081960,387599,320939
1063.92,0.081606,386688,320446
1067.61,0.080665,386598,321066
1071.29,0.080363,387377,321937
1074.96,0.080046,388536,323136
1078.63,0.079001,389855,325014
1082.3,0.078421,391215,326584
1085.96,0.077780,393215,328738
1090.84,0.076785,396270,332052
1094.49,0.076266,398760,334538
1098.14,0.075417,400987,337065
1101.79,0.074777,403477,339658
1105.43,0.074388,406116,342186
1109.06,0.074107,407701,343744
1112.7,0.072983,409859,346459
1117.53,0.073028,412494,348650
1121.15,0.074627,414909,349402
1124.77,0.074466,416559,350922
1128.38,0.074938,418532,352201
1131.99,0.075419,419956,353008
1135.6,0.077139,421946,353279
1139.2,0.079216,423881,353206
1143.99,0.081043,426786,354134
1147.58,0.081356,428617,355397
1151.17,0.082567,431169,356517
1154.75,0.082775,433579,358338
1158.33,0.084363,436264,359241
1161.91,0.085763,439132,360439
1165.48,0.088135,442389,361135
1169.04,0.090450,446101,362229
1173.79,0.094298,451929,363724
1177.34,0.096226,456026,365396
1180.9,0.098479,461306,367714
1184.44,0.100284,467657,371230
1187.99,0.100377,473969,376160
1191.52,0.100907,479856,380368
1195.06,0.100819,487372,386404
1199.76,0.100301,497347,394783
1203.29,0.099541,504311,401012
1206.81,0.099030,511507,407213
1210.33,0.098260,519078,413974
1213.84,0.097853,527163,420816
1217.35,0.097313,534208,426970
1220.85,0.096846,540472,432441
1225.51,0.095889,549929,440979
1229.01,0.095167,556888,447302
1232.5,0.094802,562180,451932
1235.98,0.094134,567975,457294
1239.46,0.093471,574815,463508
1242.94,0.092361,582782,471135
1246.41,0.091758,591476,478827
1251.03,0.091599,604016,489158
1254.5,0.091313,612289,496185
1257.96,0.092195,619125,500707
1261.41,0.092756,624551,504443
1264.86,0.093413,629900,507994
1268.31,0.093637,634345,511315
1271.75,0.094244,638574,514005
1276.33,0.094498,642499,516862
1279.76,0.094528,645905,519566
1283.19,0.093545,648307,522680
1286.61,0.093312,650446,524686
1290.03,0.092854,652132,526601
1293.44,0.092591,653907,528354
1296.85,0.092349,655963,530311
1301.39,0.091834,657349,532062
1304.8,0.092070,657558,531942
1308.19,0.092168,658515,532596
1311.58,0.092264,658804,532712
1314.97,0.092703,659011,532341
1318.36,0.093336,658272,530969
1321.73,0.093499,658022,530568
1326.23,0.093987,657870,529850
1329.6,0.095202,656482,527255
1332.97,0.095894,654926,525168
1336.33,0.096346,653727,523661
1339.69,0.098207,652497,520441
1343.04,0.099219,649913,517174
1346.39,0.101417,647671,512788
1349.73,0.103560,645338,508425
1354.18,0.106327,641175,501937
1357.52,0.108306,638376,497474
1360.85,0.110281,635805,493222
1364.17,0.112481,633413,488884
1367.49,0.114353,631026,484947
1370.81,0.116637,628050,480128
1374.12,0.118356,625034,475935
1378.54,0.121427,620272,468981
1381.84,0.124617,616892,463012
1385.14,0.127103,613613,457922
1388.43,0.130645,611526,452658
1391.72,0.134976,610663,447534
1395.01,0.138851,610634,443537
1398.29,0.143238,611700,439846
1402.66,0.148908,614051,435809
1405.93,0.153976,616268,432308
1409.2,0.158072,617795,429311
1412.46,0.162787,618872,425416
1415.72,0.166841,619795,422092
1418.98,0.170145,620495,419366
1422.23,0.173750,621087,416296
1426.56,0.177414,621375,412990
1429.8,0.179599,621616,411077
1433.04,0.181924,622129,409220
1436.27,0.184173,621526,406711
1439.5,0.185856,621113,404869
1442.72,0.188494,620921,402293
1445.94,0.191341,620270,399245
1450.23,0.194524,618860,395429
1453.44,0.197259,617697,392208
1456.64,0.200304,616264,388564
1459.85,0.203387,614413,384657
1463.04,0.205967,612307,381068
1466.24,0.209396,610032,376666
1469.43,0.213357,607345,371602
1473.67,0.219937,603789,363872
1476.85,0.225708,601175,357514
1480.02,0.232125,597737,350256
1483.19,0.238383,594479,343363
1486.36,0.244417,591232,336776
1489.52,0.248918,587853,331399
1492.68,0.252305,583875,326599
1496.89,0.254902,578062,321420
1500.03,0.255751,574159,318626
1503.18,0.255400,570285,316732
1506.32,0.254378,565444,314783
1509.45,0.252419,560571,313481
1512.58,0.250890,555821,311921
1515.71,0.248713,550344,310400
1519.87,0.246502,543983,308378
1522.99,0.243871,538764,307275
1526.1,0.241118,533692,306318
1529.21,0.237545,527902,305498
1532.32,0.234484,521886,304153
1535.42,0.231994,515888,302386
1538.51,0.229382,509987,300730
1541.6,0.226985,503936,298807
1545.72,0.222129,494694,296625
1548.8,0.219712,488378,294472
1551.88,0.216568,481832,292636
1554.95,0.215217,474989,289379
1558.02,0.213378,467818,286219
1561.08,0.212457,460730,282481
1564.15,0.212138,454170,278664
1568.22,0.210071,444181,273835
1571.27,0.210491,436947,269115
1574.32,0.209962,429598,264911
1577.36,0.208614,422039,261059
1580.4,0.207080,414375,257225
1583.43,0.206404,406354,252639
1586.46,0.204291,398475,248949
1590.49,0.201796,388982,244418
1593.51,0.200323,380708,240032
1596.53,0.199372,372727,235515
1599.54,0.197753,365060,231532
1602.55,0.194786,357543,228319
1605.55,0.193208,349495,223992
1608.55,0.190698,341154,219914
1612.54,0.189553,330877,213852
1615.53,0.187179,322904,209843
1618.51,0.187034,315116,204850
1621.49,0.185340,307217,200496
1624.47,0.184375,299481,195882
1627.44,0.183909,292112,191267
1630.41,0.182195,284245,186852
1634.36,0.180560,274079,180849
1637.32,0.179492,266916,176556
1640.27,0.180291,259612,171409
1643.22,0.178346,251804,167000
1646.16,0.178842,244348,161870
1649.1,0.176435,236703,157677
1652.04,0.175361,228171,152370
1655.95,0.172187,215408,144902
1658.88,0.168378,204937,139073
1661.8,0.164059,193395,132552
1664.72,0.155056,179728,125765
1667.63,0.142772,163642,117794
1670.54,0.129586,146312,108566
1673.44,0.112958,128451,99033
1677.31,0.091933,105080,85033
1680.21,0.080834,88906,73807
1683.1,0.072889,75033,63440
1685.99,0.076004,63520,53322
1688.87,0.076672,53714,45021
1691.75,0.077065,45653,38230
1694.62,0.083829,39137,32267
1697.49,0.102439,33776,26679
1701.31,0.099073,28175,22428

File: Column 1_050615_20150331_123048.csv
Method:,Column 1,,
Host Date-Time:,31/3/15 @ 12:30:48,,
Header Version:,1,,
System Temp (C):,34.1,,
Detector Temp (C):,34.93,,
Humidity (%):,1.66,,
Lamp PD:,3818,,
Shift Vector Coefficients:,-10.5391,0.0761263,-0.000134223,,
Pixel to Wavelength Coefficients:,1775.68,-0.916766,-0.000235065,,
Serial Number:,5510004,,
Scan Config Name:,Column 1,,
Scan Config Type:,Slew,,
Section 1,,
Start wavelength (nm):,900,,
End wavelength (nm):,1700,,
Pattern Pixel Width (nm):,   7.03,,,,
Exposure (ms):,  0.635,,,,
Digital Resolution:,228,,
Num Repeats:,6,,
PGA Gain:,64,,
Total Measurement Time in sec:,  2.700,,
Wavelength (nm),Absorbance (AU),Reference Signal (unitless),Sample Signal (unitless)
901.51,0.069280,108485,92489
905.376,0.076250,121306,101773
909.237,0.078207,131909,110171
913.095,0.077004,143299,120016
916.948,0.078241,156982,131102
922.079,0.080052,179937,149647
925.923,0.081814,200504,166077
929.762,0.082041,222660,184332
933.597,0.082790,244426,202003
937.427,0.080862,263972,219127
941.254,0.080264,281845,234286
945.076,0.079319,297271,247647
950.165,0.078202,315605,263598
953.978,0.077867,328029,274186
957.786,0.077354,340470,284921
961.59,0.077826,352317,294515
965.389,0.077575,363056,303668
969.185,0.077395,373162,312250
972.976,0.077783,382632,319888
976.763,0.078904,391202,326210
981.806,0.078941,400190,333676
985.583,0.079813,406088,337915
989.355,0.079892,410162,341243
993.124,0.080782,412868,342791
996.888,0.081148,414263,343659
1000.65,0.081889,415476,344078
1004.4,0.082390,415479,343684
1009.41,0.083854,414358,341603
1013.15,0.084181,412923,340164
1016.89,0.084899,411526,338453
1020.63,0.084828,409066,336485
1024.36,0.084920,406777,334531
1028.09,0.084409,404427,332990
1031.82,0.084725,401911,330678
1036.78,0.083944,398410,328387
1040.49,0.084080,396204,326467
1044.2,0.083838,394236,325026
1047.91,0.083372,392042,323564
1051.61,0.082854,389823,322117
1055.31,0.082712,388234,320909
1059,0.081910,387599,320976
1063.92,0.081660,386688,320406
1067.61,0.080921,386598,320877
1071.29,0.080221,387377,322042
1074.96,0.079484,388536,323554
1078.63,0.079540,389855,324611
1082.3,0.078393,391215,326605
1085.96,0.078039,393215,328542
1090.84,0.076500,396270,332270
1094.49,0.076047,398760,334707
1098.14,0.075066,400987,337337
1101.79,0.075062,403477,339435
1105.43,0.075090,406116,341633
1109.06,0.074028,407701,343806
1112.7,0.073437,409859,346097
1117.53,0.073096,412494,348595
1121.15,0.074256,414909,349701
1124.77,0.073603,416559,351620
1128.38,0.075052,418532,352109
1131.99,0.075736,419956,352751
1135.6,0.077592,421946,352911
1139.2,0.078604,423881,353704
1143.99,0.080834,426786,354304
1147.58,0.080968,428617,355714
1151.17,0.082767,431169,356353
1154.75,0.082783,433579,358332
1158.33,0.084319,436264,359278
1161.91,0.086535,439132,359799
1165.48,0.088504,442389,360828
1169.04,0.090470,446101,362212
1173.79,0.093971,451929,363998
1177.34,0.096382,456026,365265
1180.9,0.097930,461306,368179
1184.44,0.100097,467657,371390
1187.99,0.100408,473969,376133
1191.52,0.101212,479856,380101
1195.06,0.101135,487372,386123
1199.76,0.100170,497347,394902
1203.29,0.099662,504311,400900
1206.81,0.099208,511507,407046
1210.33,0.098575,519078,413673
1213.84,0.097853,527163,420816
1217.35,0.097275,534208,427007
1220.85,0.096320,540472,432965
1225.51,0.095459,549929,441416
1229.01,0.095505,556888,446954
1232.5,0.094712,562180,452026
1235.98,0.094187,567975,457238
1239.46,0.093092,574815,463912
1242.94,0.092642,582782,470830
1246.41,0.091935,591476,478632
1251.03,0.091619,604016,489136
1254.5,0.091456,612289,496021
1257.96,0.092358,619125,500519
1261.41,0.092431,624551,504820
1264.86,0.092905,629900,508588
1268.31,0.093607,634345,511350
1271.75,0.094551,638574,513642
1276.33,0.094152,642499,517274
1279.76,0.094216,645905,519939
1283.19,0.093654,648307,522549
1286.61,0.093254,650446,524756
1290.03,0.093223,652132,526153
1293.44,0.092539,653907,528417
1296.85,0.092614,655963,529987
1301.39,0.091962,657349,531905
1304.8,0.092105,657558,531899
1308.19,0.091996,658515,532807
1311.58,0.092115,658804,532894
1314.97,0.092788,659011,532237
1318.36,0.093295,658272,531019
1321.73,0.093270,658022,530848
1326.23,0.094073,657870,529745
1329.6,0.094789,656482,527757
1332.97,0.095570,654926,525560
1336.33,0.096415,653727,523578
1339.69,0.097678,652497,521075
1343.04,0.099428,649913,516925
1346.39,0.101539,647671,512644
1349.73,0.103296,645338,508734
1354.18,0.106339,641175,501924
1357.52,0.108140,638376,497664
1360.85,0.110076,635805,493456
1364.17,0.112286,633413,489104
1367.49,0.114383,631026,484914
1370.81,0.117023,628050,479702
1374.12,0.118781,625034,475470
1378.54,0.121868,620272,468505
1381.84,0.124385,616892,463259
1385.14,0.127127,613613,457897
1388.43,0.130908,611526,452384
1391.72,0.135378,610663,447119
1395.01,0.138590,610634,443804
1398.29,0.143013,611700,440074
1402.66,0.149083,614051,435634
1405.93,0.153481,616268,432801
1409.2,0.158624,617795,428766
1412.46,0.162683,618872,425518
1415.72,0.166488,619795,422435
1418.98,0.170014,620495,419493
1422.23,0.173060,621087,416958
1426.56,0.177187,621375,413206
1429.8,0.179237,621616,411420
1433.04,0.181814,622129,409323
1436.27,0.184151,621526,406732
1439.5,0.186462,621113,404305
1442.72,0.189215,620921,401626
1445.94,0.191737,620270,398881
1450.23,0.194866,618860,395118
1453.44,0.197811,617697,391710
1456.64,0.199818,616264,388999
1459.85,0.203125,614413,384889
1463.04,0.205705,612307,381298
1466.24,0.209319,610032,376733
1469.43,0.213633,607345,371366
1473.67,0.219548,603789,364198
1476.85,0.225501,601175,357684
1480.02,0.232110,597737,350268
1483.19,0.237819,594479,343809
1486.36,0.244399,591232,336790
1489.52,0.249042,587853,331304
1492.68,0.252493,583875,326458
1496.89,0.255015,578062,321336
1500.03,0.255130,574159,319082
1503.18,0.255262,570285,316833
1506.32,0.254017,565444,315045
1509.45,0.253022,560571,313046
1512.58,0.250989,555821,311850
1515.71,0.248929,550344,310245
1519.87,0.246429,543983,308430
1522.99,0.243535,538764,307513
1526.1,0.241233,533692,306237
1529.21,0.238308,527902,304962
1532.32,0.235049,521886,303757
1535.42,0.232352,515888,302137
1538.51,0.229798,509987,300442
1541.6,0.227008,503936,298791
1545.72,0.221677,494694,296934
1548.8,0.220167,488378,294164
1551.88,0.217413,481832,292067
1554.95,0.215110,474989,289450
1558.02,0.213638,467818,286048
1561.08,0.212430,460730,282499
1564.15,0.212354,454170,278525
1568.22,0.211291,444181,273067
1571.27,0.210849,436947,268893
1574.32,0.209757,429598,265036
1577.36,0.208712,422039,261000
1580.4,0.207148,414375,257185
1583.43,0.206389,406354,252648
1586.46,0.204900,398475,248600
1590.49,0.202727,388982,243895
1593.51,0.200674,380708,239838
1596.53,0.198849,372727,235799
1599.54,0.196749,365060,232068
1602.55,0.195032,357543,228190
1605.55,0.192356,349495,224432
1608.55,0.190615,341154,219956
1612.54,0.189196,330877,214028
1615.53,0.187688,322904,209597
1618.51,0.186153,315116,205266
1621.49,0.185652,307217,200352
1624.47,0.184692,299481,195739
1627.44,0.183533,292112,191433
1630.41,0.183172,284245,186432
1634.36,0.181218,274079,180575
1637.32,0.180071,266916,176321
1640.27,0.179613,259612,171677
1643.22,0.179098,251804,166711
1646.16,0.178405,244348,162033
1649.1,0.176741,236703,157566
1652.04,0.175846,228171,152200
1655.95,0.172250,215408,144881
1658.88,0.169569,204937,138692
1661.8,0.162992,193395,132878
1664.72,0.155581,179728,125613
1667.63,0.143307,163642,117649
1670.54,0.128272,146312,108895
1673.44,0.112822,128451,99064
1677.31,0.090113,105080,85390
1680.21,0.080845,88906,73805
1683.1,0.074528,75033,63201
1685.99,0.076738,63520,53232
1688.87,0.078219,53714,44861
1691.75,0.081449,45653,37846
1694.62,0.088987,39137,31886
1697.49,0.087542,33776,27610
1701.31,0.103785,28175,22186