Folder: textile_sorting_NIRSCAN_/samples/wool/wool-000811 (part 19)

File: Column 1_050541_20150331_115535.csv
Method:,Column 1,,
Host Date-Time:,31/3/15 @ 11:55:35,,
Header Version:,1,,
System Temp (C):,32.36,,
Detector Temp (C):,30.66,,
Humidity (%):,2.92,,
Lamp PD:,3825,,
Shift Vector Coefficients:,-10.5391,0.0761263,-0.000134223,,
Pixel to Wavelength Coefficients:,1775.68,-0.916766,-0.000235065,,
Serial Number:,5510004,,
Scan Config Name:,Column 1,,
Scan Config Type:,Slew,,
Section 1,,
Start wavelength (nm):,900,,
End wavelength (nm):,1700,,
Pattern Pixel Width (nm):,   7.03,,,,
Exposure (ms):,  0.635,,,,
Digital Resolution:,228,,
Num Repeats:,6,,
PGA Gain:,64,,
Total Measurement Time in sec:,  2.720,,
Wavelength (nm),Absorbance (AU),Reference Signal (unitless),Sample Signal (unitless)
901.51,0.043989,108485,98035
905.376,0.048348,121306,108526
909.237,0.050765,131909,117357
913.095,0.051633,143299,127236
916.948,0.051961,156982,139280
922.079,0.052085,179937,159601
925.923,0.051786,200504,177966
929.762,0.053789,222660,196722
933.597,0.053051,244426,216320
937.427,0.053118,263972,233582
941.254,0.053480,281845,249190
945.076,0.053848,297271,262606
950.165,0.053362,315605,279114
953.978,0.052579,328029,290625
957.786,0.053354,340470,301110
961.59,0.054727,352317,310604
965.389,0.054104,363056,320531
969.185,0.054902,373162,328848
972.976,0.055355,382632,336842
976.763,0.055608,391202,344186
981.806,0.057083,400190,350900
985.583,0.057820,406088,355468
989.355,0.058303,410162,358635
993.124,0.058568,412868,360781
996.888,0.059242,414263,361438
1000.65,0.060310,415476,361606
1004.4,0.061396,415479,360706
1009.41,0.062745,414358,358617
1013.15,0.062419,412923,357643
1016.89,0.063544,411526,355511
1020.63,0.063430,409066,353479
1024.36,0.063006,406777,351844
1028.09,0.063261,404427,349606
1031.82,0.062366,401911,348148
1036.78,0.061777,398410,345584
1040.49,0.061307,396204,344042
1044.2,0.060760,394236,342765
1047.91,0.060618,392042,340969
1051.61,0.059699,389823,339757
1055.31,0.059062,388234,338869
1059,0.058160,387599,339018
1063.92,0.057361,386688,338844
1067.61,0.055929,386598,339884
1071.29,0.055103,387377,341217
1074.96,0.054644,388536,342600
1078.63,0.054414,389855,343945
1082.3,0.052957,391215,346305
1085.96,0.052313,393215,348592
1090.84,0.051995,396270,351557
1094.49,0.051478,398760,354188
1098.14,0.050733,400987,356777
1101.79,0.050530,403477,359161
1105.43,0.050473,406116,361557
1109.06,0.050237,407701,363166
1112.7,0.050131,409859,365177
1117.53,0.050406,412494,367292
1121.15,0.050906,414909,369017
1124.77,0.051083,416559,370334
1128.38,0.053763,418532,369799
1131.99,0.054702,419956,370256
1135.6,0.056312,421946,370634
1139.2,0.058642,423881,370341
1143.99,0.061632,426786,370321
1147.58,0.062312,428617,371328
1151.17,0.063966,431169,372119
1154.75,0.065264,433579,373082
1158.33,0.067647,436264,373338
1161.91,0.069917,439132,373833
1165.48,0.073340,442389,373649
1169.04,0.076058,446101,374434
1173.79,0.080495,451929,375470
1177.34,0.083174,456026,376544
1180.9,0.085654,461306,378735
1184.44,0.087679,467657,382163
1187.99,0.087755,473969,387253
1191.52,0.087436,479856,392351
1195.06,0.086736,487372,399139
1199.76,0.085587,497347,408388
1203.29,0.084342,504311,415295
1206.81,0.083277,511507,422255
1210.33,0.082292,519078,429478
1213.84,0.080877,527163,437591
1217.35,0.079855,534208,444483
1220.85,0.078788,540472,450801
1225.51,0.077784,549929,459751
1229.01,0.076329,556888,467131
1232.5,0.075470,562180,472504
1235.98,0.074734,567975,478184
1239.46,0.073611,574815,485196
1242.94,0.072489,582782,493193
1246.41,0.072080,591476,501022
1251.03,0.071518,604016,512307
1254.5,0.071557,612289,519278
1257.96,0.071816,619125,524762
1261.41,0.072257,624551,528824
1264.86,0.072997,629900,532445
1268.31,0.073462,634345,535628
1271.75,0.074481,638574,537936
1276.33,0.074644,642499,541039
1279.76,0.074606,645905,543955
1283.19,0.073716,648307,547097
1286.61,0.073706,650446,548915
1290.03,0.073263,652132,550900
1293.44,0.072737,653907,553069
1296.85,0.072702,655963,554852
1301.39,0.072350,657349,556475
1304.8,0.072335,657558,556671
1308.19,0.072643,658515,557086
1311.58,0.072768,658804,557171
1314.97,0.073558,659011,556333
1318.36,0.074368,658272,554674
1321.73,0.074688,658022,554055
1326.23,0.075937,657870,552336
1329.6,0.076219,656482,550812
1332.97,0.077667,654926,547678
1336.33,0.079184,653727,544769
1339.69,0.081173,652497,541260
1343.04,0.083069,649913,536768
1346.39,0.085113,647671,532404
1349.73,0.087850,645338,527154
1354.18,0.091155,641175,519783
1357.52,0.093675,638376,514519
1360.85,0.096516,635805,509106
1364.17,0.098587,633413,504777
1367.49,0.101284,631026,499762
1370.81,0.104309,628050,493952
1374.12,0.106830,625034,488735
1378.54,0.111006,620272,480370
1381.84,0.114650,616892,473761
1385.14,0.119196,613613,466336
1388.43,0.124399,611526,459215
1391.72,0.129830,610663,452868
1395.01,0.136201,610634,446252
1398.29,0.142381,611700,440715
1402.66,0.150967,614051,433748
1405.93,0.157839,616268,428480
1409.2,0.163997,617795,423494
1412.46,0.169973,618872,418435
1415.72,0.175342,619795,413910
1418.98,0.180270,620495,409702
1422.23,0.184302,621087,406303
1426.56,0.189033,621375,402088
1429.8,0.192098,621616,399415
1433.04,0.195367,622129,396747
1436.27,0.197574,621526,394353
1439.5,0.200115,621113,391792
1442.72,0.202606,620921,389431
1445.94,0.205090,620270,386804
1450.23,0.208741,618860,382694
1453.44,0.212355,617697,378809
1456.64,0.215107,616264,375543
1459.85,0.217311,614413,372520
1463.04,0.220254,612307,368736
1466.24,0.223416,610032,364701
1469.43,0.226186,607345,360786
1473.67,0.231640,603789,354197
1476.85,0.236727,601175,348557
1480.02,0.242020,597737,342366
1483.19,0.248599,594479,335380
1486.36,0.254276,591232,329217
1489.52,0.259342,587853,323539
1492.68,0.263250,583875,318471
1496.89,0.266397,578062,313024
1500.03,0.266326,574159,310961
1503.18,0.266827,570285,308507
1506.32,0.266739,565444,305950
1509.45,0.264852,560571,304634
1512.58,0.263348,555821,303101
1515.71,0.261595,550344,301328
1519.87,0.258234,543983,300159
1522.99,0.255444,538764,299195
1526.1,0.253249,533692,297880
1529.21,0.249930,527902,296909
1532.32,0.246065,521886,296149
1535.42,0.243376,515888,294564
1538.51,0.239954,509987,293498
1541.6,0.237359,503936,291754
1545.72,0.231641,494694,290199
1548.8,0.229089,488378,288182
1551.88,0.225648,481832,286581
1554.95,0.223287,474989,284051
1558.02,0.221680,467818,280800
1561.08,0.220645,460730,277205
1564.15,0.219775,454170,273806
1568.22,0.218465,444181,268593
1571.27,0.217437,436947,264845
1574.32,0.216482,429598,260964
1577.36,0.214967,422039,257268
1580.4,0.212875,414375,253816
1583.43,0.211418,406354,249739
1586.46,0.208611,398475,246485
1590.49,0.206780,388982,241629
1593.51,0.204609,380708,237675
1596.53,0.202151,372727,234013
1599.54,0.199471,365060,230618
1602.55,0.196727,357543,227301
1605.55,0.194830,349495,223157
1608.55,0.192633,341154,218936
1612.54,0.189576,330877,213841
1615.53,0.187107,322904,209878
1618.51,0.186388,315116,205155
1621.49,0.185946,307217,200216
1624.47,0.182801,299481,196593
1627.44,0.182291,292112,191981
1630.41,0.180580,284245,187548
1634.36,0.179229,274079,181404
1637.32,0.177928,266916,177193
1640.27,0.178541,259612,172101
1643.22,0.175203,251804,168213
1646.16,0.174406,244348,163532
1649.1,0.174366,236703,158430
1652.04,0.172764,228171,153284
1655.95,0.169972,215408,145643
1658.88,0.168978,204937,138881
1661.8,0.169549,193395,130887
1664.72,0.166062,179728,122618
1667.63,0.159803,163642,113264
1670.54,0.154073,146312,102614
1673.44,0.149353,128451,91072
1677.31,0.143222,105080,75561
1680.21,0.139015,88906,64553
1683.1,0.142722,75033,54017
1685.99,0.153235,63520,44635
1688.87,0.153309,53714,37738
1691.75,0.155992,45653,31877
1694.62,0.162238,39137,26937
1697.49,0.165053,33776,23097
1701.31,0.178138,28175,18695

File: Column 1_050541_20150331_115538.csv
Method:,Column 1,,
Host Date-Time:,31/3/15 @ 11:55:38,,
Header Version:,1,,
System Temp (C):,32.41,,
Detector Temp (C):,30.7,,
Humidity (%):,2.92,,
Lamp PD:,3825,,
Shift Vector Coefficients:,-10.5391,0.0761263,-0.000134223,,
Pixel to Wavelength Coefficients:,1775.68,-0.916766,-0.000235065,,
Serial Number:,5510004,,
Scan Config Name:,Column 1,,
Scan Config Type:,Slew,,
Section 1,,
Start wavelength (nm):,900,,
End wavelength (nm):,1700,,
Pattern Pixel Width (nm):,   7.03,,,,
Exposure (ms):,  0.635,,,,
Digital Resolution:,228,,
Num Repeats:,6,,
PGA Gain:,64,,
Total Measurement Time in sec:,  2.688,,
Wavelength (nm),Absorbance (AU),Reference Signal (unitless),Sample Signal (unitless)
901.51,0.045915,108485,97601
905.376,0.049852,121306,108151
909.237,0.052237,131909,116960
913.095,0.053155,143299,126791
916.948,0.052551,156982,139091
922.079,0.052698,179937,159376
925.923,0.053603,200504,177223
929.762,0.053549,222660,196831
933.597,0.054362,244426,215668
937.427,0.054325,263972,232934
941.254,0.054944,281845,248351
945.076,0.053972,297271,262531
950.165,0.054603,315605,278318
953.978,0.053612,328029,289935
957.786,0.054506,340470,300312
961.59,0.055834,352317,309813
965.389,0.055534,363056,319477
969.185,0.055842,373162,328137
972.976,0.056165,382632,336214
976.763,0.056872,391202,343186
981.806,0.057077,400190,350905
985.583,0.057777,406088,355503
989.355,0.059129,410162,357953
993.124,0.058415,412868,360908
996.888,0.059751,414263,361015
1000.65,0.061052,415476,360989
1004.4,0.061744,415479,360417
1009.41,0.063524,414358,357974
1013.15,0.063309,412923,356911
1016.89,0.064180,411526,354991
1020.63,0.063724,409066,353240
1024.36,0.063241,406777,351654
1028.09,0.063302,404427,349573
1031.82,0.063120,401911,347544
1036.78,0.062422,398410,345071
1040.49,0.061787,396204,343662
1044.2,0.061532,394236,342156
1047.91,0.060904,392042,340744
1051.61,0.060061,389823,339474
1055.31,0.059289,388234,338692
1059,0.058593,387599,338680
1063.92,0.057221,386688,338953
1067.61,0.057051,386598,339007
1071.29,0.055862,387377,340621
1074.96,0.055695,388536,341772
1078.63,0.054096,389855,344197
1082.3,0.053472,391215,345894
1085.96,0.053667,393215,347507
1090.84,0.052447,396270,351192
1094.49,0.052091,398760,353688
1098.14,0.051446,400987,356192
1101.79,0.051357,403477,358477
1105.43,0.051250,406116,360911
1109.06,0.050518,407701,362931
1112.7,0.050559,409859,364817
1117.53,0.050619,412494,367112
1121.15,0.051625,414909,368407
1124.77,0.052181,416559,369399
1128.38,0.053388,418532,370118
1131.99,0.055189,419956,369841
1135.6,0.057564,421946,369567
1139.2,0.059622,423881,369506
1143.99,0.062207,426786,369831
1147.58,0.063105,428617,370650
1151.17,0.064614,431169,371564
1154.75,0.066278,433579,372212
1158.33,0.068440,436264,372657
1161.91,0.070835,439132,373044
1165.48,0.073910,442389,373159
1169.04,0.075983,446101,374499
1173.79,0.080549,451929,375423
1177.34,0.083099,456026,376609
1180.9,0.085838,461306,378574
1184.44,0.087428,467657,382384
1187.99,0.088703,473969,386409
1191.52,0.088358,479856,391519
1195.06,0.087301,487372,398620
1199.76,0.086323,497347,407696
1203.29,0.084523,504311,415122
1206.81,0.083681,511507,421862
1210.33,0.082118,519078,429650
1213.84,0.081183,527163,437282
1217.35,0.080179,534208,444152
1220.85,0.079108,540472,450469
1225.51,0.077862,549929,459668
1229.01,0.076848,556888,466573
1232.5,0.075848,562180,472093
1235.98,0.075415,567975,477435
1239.46,0.073819,574815,484964
1242.94,0.072543,582782,493132
1246.41,0.072354,591476,500706
1251.03,0.071955,604016,511792
1254.5,0.072031,612289,518711
1257.96,0.072239,619125,524251
1261.41,0.073231,624551,527639
1264.86,0.073751,629900,531521
1268.31,0.073887,634345,535104
1271.75,0.074712,638574,537650
1276.33,0.075172,642499,540382
1279.76,0.075122,645905,543309
1283.19,0.074629,648307,545948
1286.61,0.074067,650446,548459
1290.03,0.073629,652132,550435
1293.44,0.073167,653907,552521
1296.85,0.073268,655963,554130
1301.39,0.072689,657349,556041
1304.8,0.072758,657558,556130
1308.19,0.073262,658515,556293
1311.58,0.073067,658804,556787
1314.97,0.073941,659011,555842
1318.36,0.074484,658272,554525
1321.73,0.075104,658022,553524
1326.23,0.075733,657870,552595
1329.6,0.077172,656482,549605
1332.97,0.078337,654926,546834
1336.33,0.079693,653727,544131
1339.69,0.081804,652497,540474
1343.04,0.083385,649913,536377
1346.39,0.085898,647671,531443
1349.73,0.088419,645338,526463
1354.18,0.091925,641175,518862
1357.52,0.094062,638376,514061
1360.85,0.096612,635805,508993
1364.17,0.099335,633413,503909
1367.49,0.102193,631026,498717
1370.81,0.104099,628050,494191
1374.12,0.107299,625034,488208
1378.54,0.111155,620272,480205
1381.84,0.115208,616892,473152
1385.14,0.119521,613613,465987
1388.43,0.125091,611526,458484
1391.72,0.131054,610663,451593
1395.01,0.136312,610634,446138
1398.29,0.143115,611700,439970
1402.66,0.151956,614051,432761
1405.93,0.157965,616268,428356
1409.2,0.164141,617795,423354
1412.46,0.170778,618872,417660
1415.72,0.176003,619795,413281
1418.98,0.180485,620495,409499
1422.23,0.184549,621087,406072
1426.56,0.189421,621375,401729
1429.8,0.192493,621616,399052
1433.04,0.195350,622129,396762
1436.27,0.198095,621526,393880
1439.5,0.199969,621113,391924
1442.72,0.203047,620921,389036
1445.94,0.205685,620270,386274
1450.23,0.209602,618860,381936
1453.44,0.211770,617697,379320
1456.64,0.215238,616264,375430
1459.85,0.218550,614413,371459
1463.04,0.220825,612307,368251
1466.24,0.223092,610032,364973
1469.43,0.227162,607345,359976
1473.67,0.231973,603789,353926
1476.85,0.236756,601175,348534
1480.02,0.242995,597737,341598
1483.19,0.249083,594479,335007
1486.36,0.254950,591232,328706
1489.52,0.259644,587853,323314
1492.68,0.263360,583875,318390
1496.89,0.266151,578062,313201
1500.03,0.267497,574159,310124
1503.18,0.267410,570285,308093
1506.32,0.267556,565444,305375
1509.45,0.265927,560571,303881
1512.58,0.264725,555821,302141
1515.71,0.262612,550344,300623
1519.87,0.259406,543983,299350
1522.99,0.256469,538764,298490
1526.1,0.253919,533692,297421
1529.21,0.250381,527902,296601
1532.32,0.247108,521886,295439
1535.42,0.244442,515888,293842
1538.51,0.240872,509987,292878
1541.6,0.238041,503936,291296
1545.72,0.232591,494694,289565
1548.8,0.228890,488378,288314
1551.88,0.226417,481832,286074
1554.95,0.223942,474989,283623
1558.02,0.222330,467818,280380
1561.08,0.221373,460730,276741
1564.15,0.220080,454170,273614
1568.22,0.218685,444181,268457
1571.27,0.217744,436947,264658
1574.32,0.216641,429598,260868
1577.36,0.215105,422039,257186
1580.4,0.213443,414375,253484
1583.43,0.211656,406354,249602
1586.46,0.210350,398475,245500
1590.49,0.207550,388982,241201
1593.51,0.205496,380708,237190
1596.53,0.203787,372727,233133
1599.54,0.201090,365060,229760
1602.55,0.198210,357543,226526
1605.55,0.195951,349495,222582
1608.55,0.193054,341154,218724
1612.54,0.190881,330877,213199
1615.53,0.188674,322904,209122
1618.51,0.186888,315116,204919
1621.49,0.185574,307217,200388
1624.47,0.182993,299481,196506
1627.44,0.182427,292112,191921
1630.41,0.180833,284245,187439
1634.36,0.180168,274079,181012
1637.32,0.179172,266916,176686
1640.27,0.177148,259612,172654
1643.22,0.176597,251804,167674
1646.16,0.175592,244348,163086
1649.1,0.176411,236703,157686
1652.04,0.174100,228171,152813
1655.95,0.172319,215408,144858
1658.88,0.170058,204937,138536
1661.8,0.169267,193395,130972
1664.72,0.164965,179728,122928
1667.63,0.160962,163642,112962
1670.54,0.154997,146312,102396
1673.44,0.151001,128451,90727
1677.31,0.146193,105080,75046
1680.21,0.144812,88906,63697
1683.1,0.145132,75033,53718
1685.99,0.151351,63520,44829
1688.87,0.157995,53714,37333
1691.75,0.166318,45653,31128
1694.62,0.165507,39137,26735
1697.49,0.162447,33776,23236
1701.31,0.180561,28175,18591

File: Column 1_050541_20150331_115541.csv
Method:,Column 1,,
Host Date-Time:,31/3/15 @ 11:55:41,,
Header Version:,1,,
System Temp (C):,32.41,,
Detector Temp (C):,30.73,,
Humidity (%):,2.92,,
Lamp PD:,3825,,
Shift Vector Coefficients:,-10.5391,0.0761263,-0.000134223,,
Pixel to Wavelength Coefficients:,1775.68,-0.916766,-0.000235065,,
Serial Number:,5510004,,
Scan Config Name:,Column 1,,
Scan Config Type:,Slew,,
Section 1,,
Start wavelength (nm):,900,,
End wavelength (nm):,1700,,
Pattern Pixel Width (nm):,   7.03,,,,
Exposure (ms):,  0.635,,,,
Digital Resolution:,228,,
Num Repeats:,6,,
PGA Gain:,64,,
Total Measurement Time in sec:,  2.732,,
Wavelength (nm),Absorbance (AU),Reference Signal (unitless),Sample Signal (unitless)
901.51,0.044055,108485,98020
905.376,0.050442,121306,108004
909.237,0.051062,131909,117277
913.095,0.052084,143299,127104
916.948,0.052295,156982,139173
922.079,0.051593,179937,159782
925.923,0.053037,200504,177454
929.762,0.053999,222660,196627
933.597,0.054940,244426,215381
937.427,0.053826,263972,233202
941.254,0.054350,281845,248691
945.076,0.054800,297271,262031
950.165,0.054715,315605,278246
953.978,0.054502,328029,289341
957.786,0.054646,340470,300215
961.59,0.055517,352317,310039
965.389,0.055435,363056,319550
969.185,0.055543,373162,328363
972.976,0.056345,382632,336075
976.763,0.056684,391202,343334
981.806,0.057612,400190,350473
985.583,0.058465,406088,354940
989.355,0.059184,410162,357908
993.124,0.058849,412868,360547
996.888,0.059928,414263,360868
1000.65,0.060968,415476,361059
1004.4,0.061738,415479,360422
1009.41,0.063124,414358,358304
1013.15,0.063677,412923,356609
1016.89,0.064240,411526,354942
1020.63,0.064088,409066,352944
1024.36,0.064023,406777,351021
1028.09,0.064027,404427,348990
1031.82,0.063420,401911,347304
1036.78,0.062948,398410,344653
1040.49,0.062267,396204,343283
1044.2,0.061731,394236,341999
1047.91,0.061481,392042,340292
1051.61,0.060467,389823,339157
1055.31,0.059476,388234,338546
1059,0.059077,387599,338303
1063.92,0.057437,386688,338785
1067.61,0.056227,386598,339651
1071.29,0.056493,387377,340127
1074.96,0.055428,388536,341982
1078.63,0.055252,389855,343282
1082.3,0.054521,391215,345060
1085.96,0.052632,393215,348336
1090.84,0.052385,396270,351242
1094.49,0.052202,398760,353598
1098.14,0.052061,400987,355688
1101.79,0.051331,403477,358499
1105.43,0.051284,406116,360883
1109.06,0.050918,407701,362597
1112.7,0.050425,409859,364930
1117.53,0.050997,412494,366793
1121.15,0.051375,414909,368619
1124.77,0.051919,416559,369622
1128.38,0.053442,418532,370072
1131.99,0.055293,419956,369752
1135.6,0.057316,421946,369778
1139.2,0.059275,423881,369802
1143.99,0.062330,426786,369726
1147.58,0.063836,428617,370027
1151.17,0.064437,431169,371715
1154.75,0.066372,433579,372131
1158.33,0.068074,436264,372971
1161.91,0.070532,439132,373304
1165.48,0.073862,442389,373201
1169.04,0.076617,446101,373952
1173.79,0.080241,451929,375690
1177.34,0.083526,456026,376239
1180.9,0.085987,461306,378444
1184.44,0.087965,467657,381911
1187.99,0.088997,473969,386147
1191.52,0.088338,479856,391537
1195.06,0.087811,487372,398153
1199.76,0.086187,497347,407824
1203.29,0.084898,504311,414763
1206.81,0.083836,511507,421712
1210.33,0.082328,519078,429442
1213.84,0.081448,527163,437016
1217.35,0.080194,534208,444136
1220.85,0.079387,540472,450180
1225.51,0.077863,549929,459667
1229.01,0.077432,556888,465946
1232.5,0.076250,562180,471656
1235.98,0.075107,567975,477774
1239.46,0.075010,574815,483635
1242.94,0.072631,582782,493032
1246.41,0.072492,591476,500547
1251.03,0.071944,604016,511805
1254.5,0.071827,612289,518955
1257.96,0.072459,619125,523986
1261.41,0.073154,624551,527732
1264.86,0.073540,629900,531779
1268.31,0.074238,634345,534672
1271.75,0.074977,638574,537321
1276.33,0.075299,642499,540223
1279.76,0.074822,645905,543684
1283.19,0.074808,648307,545724
1286.61,0.074477,650446,547941
1290.03,0.073974,652132,549999
1293.44,0.073339,653907,552303
1296.85,0.073241,655963,554164
1301.39,0.073067,657349,555558
1304.8,0.072752,657558,556137
1308.19,0.073402,658515,556114
1311.58,0.073389,658804,556374
1314.97,0.074106,659011,555631
1318.36,0.074633,658272,554335
1321.73,0.075135,658022,553485
1326.23,0.076295,657870,551880
1329.6,0.076918,656482,549927
1332.97,0.078471,654926,546665
1336.33,0.079773,653727,544031
1339.69,0.081417,652497,540956
1343.04,0.083345,649913,536427
1346.39,0.085595,647671,531814
1349.73,0.088226,645338,526698
1354.18,0.091622,641175,519224
1357.52,0.094201,638376,513896
1360.85,0.096806,635805,508766
1364.17,0.099153,633413,504120
1367.49,0.101853,631026,499108
1370.81,0.104741,628050,493461
1374.12,0.107883,625034,487552
1378.54,0.111247,620272,480104
1381.84,0.115178,616892,473185
1385.14,0.119910,613613,465570
1388.43,0.125080,611526,458495
1391.72,0.130927,610663,451725
1395.01,0.136640,610634,445801
1398.29,0.142883,611700,440206
1402.66,0.151459,614051,433257
1405.93,0.158288,616268,428037
1409.2,0.164497,617795,423007
1412.46,0.170488,618872,417939
1415.72,0.175692,619795,413577
1418.98,0.180717,620495,409281
1422.23,0.184790,621087,405847
1426.56,0.189642,621375,401524
1429.8,0.192424,621616,399115
1433.04,0.195544,622129,396585
1436.27,0.197884,621526,394072
1439.5,0.200427,621113,391511
1442.72,0.202968,620921,389106
1445.94,0.205088,620270,386806
1450.23,0.209128,618860,382353
1453.44,0.212447,617697,378729
1456.64,0.214986,616264,375648
1459.85,0.217836,614413,372070
1463.04,0.220379,612307,368630
1466.24,0.223449,610032,364673
1469.43,0.226648,607345,360402
1473.67,0.231553,603789,354268
1476.85,0.237014,601175,348327
1480.02,0.242985,597737,341606
1483.19,0.248603,594479,335377
1486.36,0.254689,591232,328904
1489.52,0.259608,587853,323341
1492.68,0.263052,583875,318616
1496.89,0.266128,578062,313218
1500.03,0.266843,574159,310591
1503.18,0.267555,570285,307990
1506.32,0.267157,565444,305656
1509.45,0.265550,560571,304145
1512.58,0.263733,555821,302832
1515.71,0.262411,550344,300762
1519.87,0.258930,543983,299678
1522.99,0.256556,538764,298430
1526.1,0.253648,533692,297607
1529.21,0.250366,527902,296611
1532.32,0.246964,521886,295537
1535.42,0.244257,515888,293967
1538.51,0.240517,509987,293118
1541.6,0.237440,503936,291699
1545.72,0.232826,494694,289408
1548.8,0.229543,488378,287881
1551.88,0.226832,481832,285801
1554.95,0.224285,474989,283399
1558.02,0.222494,467818,280274
1561.08,0.220902,460730,277041
1564.15,0.219580,454170,273929
1568.22,0.218389,444181,268640
1571.27,0.218333,436947,264299
1574.32,0.216072,429598,261210
1577.36,0.215769,422039,256793
1580.4,0.213851,414375,253246
1583.43,0.211425,406354,249735
1586.46,0.209911,398475,245748
1590.49,0.207451,388982,241256
1593.51,0.205152,380708,237378
1596.53,0.202647,372727,233746
1599.54,0.199629,365060,230534
1602.55,0.197704,357543,226790
1605.55,0.195119,349495,223009
1608.55,0.192560,341154,218973
1612.54,0.190405,330877,213433
1615.53,0.187107,322904,209878
1618.51,0.186759,315116,204980
1621.49,0.185782,307217,200292
1624.47,0.183865,299481,196112
1627.44,0.182676,292112,191811
1630.41,0.180629,284245,187527
1634.36,0.178430,274079,181738
1637.32,0.177832,266916,177232
1640.27,0.176738,259612,172817
1643.22,0.175575,251804,168069
1646.16,0.175973,244348,162943
1649.1,0.174794,236703,158274
1652.04,0.173212,228171,153126
1655.95,0.170659,215408,145413
1658.88,0.170208,204937,138488
1661.8,0.168276,193395,131271
1664.72,0.164516,179728,123055
1667.63,0.159868,163642,113247
1670.54,0.154925,146312,102413
1673.44,0.152564,128451,90401
1677.31,0.143067,105080,75588
1680.21,0.141545,88906,64178
1683.1,0.145529,75033,53669
1685.99,0.152710,63520,44689
1688.87,0.154415,53714,37642
1691.75,0.163495,45653,31331
1694.62,0.165475,39137,26737
1697.49,0.170464,33776,22811
1701.31,0.174645,28175,18846