Folder: textile_sorting_NIRSCAN_/samples/wool/wool-000811 (part 94)

File: Column 1_050582_20150331_121459.csv
Method:,Column 1,,
Host Date-Time:,31/3/15 @ 12:14:59,,
Header Version:,1,,
System Temp (C):,33.74,,
Detector Temp (C):,34.54,,
Humidity (%):,1.95,,
Lamp PD:,3819,,
Shift Vector Coefficients:,-10.5391,0.0761263,-0.000134223,,
Pixel to Wavelength Coefficients:,1775.68,-0.916766,-0.000235065,,
Serial Number:,5510004,,
Scan Config Name:,Column 1,,
Scan Config Type:,Slew,,
Section 1,,
Start wavelength (nm):,900,,
End wavelength (nm):,1700,,
Pattern Pixel Width (nm):,   7.03,,,,
Exposure (ms):,  0.635,,,,
Digital Resolution:,228,,
Num Repeats:,6,,
PGA Gain:,64,,
Total Measurement Time in sec:,  2.676,,
Wavelength (nm),Absorbance (AU),Reference Signal (unitless),Sample Signal (unitless)
901.51,0.070931,108485,92138
905.376,0.075857,121306,101865
909.237,0.077667,131909,110308
913.095,0.080145,143299,119151
916.948,0.080110,156982,130539
922.079,0.082728,179937,148728
925.923,0.083215,200504,165542
929.762,0.083566,222660,183686
933.597,0.083859,244426,201506
937.427,0.082472,263972,218316
941.254,0.082869,281845,232885
945.076,0.081715,297271,246285
950.165,0.080655,315605,262113
953.978,0.079826,328029,272952
957.786,0.080196,340470,283063
961.59,0.080854,352317,292469
965.389,0.080897,363056,301354
969.185,0.080819,373162,309798
972.976,0.080604,382632,317817
976.763,0.081639,391202,324162
981.806,0.081840,400190,331456
985.583,0.082587,406088,335763
989.355,0.083472,410162,338441
993.124,0.082777,412868,341220
996.888,0.083885,414263,341500
1000.65,0.084519,415476,342001
1004.4,0.085448,415479,341272
1009.41,0.086870,414358,339239
1013.15,0.087954,412923,337221
1016.89,0.087916,411526,336110
1020.63,0.087557,409066,334377
1024.36,0.087688,406777,332406
1028.09,0.087602,404427,330551
1031.82,0.087198,401911,328800
1036.78,0.087049,398410,326048
1040.49,0.086594,396204,324582
1044.2,0.087376,394236,322389
1047.91,0.086641,392042,321138
1051.61,0.085860,389823,319895
1055.31,0.086149,388234,318379
1059,0.085497,387599,318336
1063.92,0.085088,386688,317887
1067.61,0.083879,386598,318699
1071.29,0.083480,387377,319635
1074.96,0.083331,388536,320701
1078.63,0.082672,389855,322278
1082.3,0.082178,391215,323771
1085.96,0.080567,393215,326635
1090.84,0.080156,396270,329485
1094.49,0.079240,398760,332255
1098.14,0.078956,400987,334329
1101.79,0.078919,403477,336434
1105.43,0.078514,406116,338950
1109.06,0.077938,407701,340725
1112.7,0.077176,409859,343130
1117.53,0.077117,412494,345383
1121.15,0.077194,414909,347343
1124.77,0.077558,416559,348432
1128.38,0.078809,418532,349076
1131.99,0.079137,419956,349999
1135.6,0.081212,421946,349981
1139.2,0.082308,423881,350700
1143.99,0.084833,426786,351057
1147.58,0.085048,428617,352388
1151.17,0.086423,431169,353366
1154.75,0.087474,433579,354482
1158.33,0.088806,436264,355585
1161.91,0.091007,439132,356113
1165.48,0.093621,442389,356602
1169.04,0.094881,446101,358552
1173.79,0.098437,451929,360274
1177.34,0.100675,456026,361672
1180.9,0.102414,461306,364397
1184.44,0.104459,467657,367679
1187.99,0.105076,473969,372112
1191.52,0.105053,479856,376754
1195.06,0.104798,487372,382880
1199.76,0.104588,497347,390905
1203.29,0.104068,504311,396854
1206.81,0.103824,511507,402743
1210.33,0.102492,519078,409959
1213.84,0.102191,527163,416633
1217.35,0.101504,534208,422870
1220.85,0.100786,540472,428536
1225.51,0.100013,549929,436811
1229.01,0.099305,556888,443060
1232.5,0.098759,562180,447833
1235.98,0.098444,567975,452778
1239.46,0.097747,574815,458967
1242.94,0.096769,582782,466377
1246.41,0.095901,591476,474281
1251.03,0.095756,604016,484499
1254.5,0.095799,612289,491086
1257.96,0.096233,619125,496073
1261.41,0.096736,624551,499841
1264.86,0.096960,629900,503862
1268.31,0.097545,634345,506735
1271.75,0.098337,638574,509183
1276.33,0.098846,642499,511713
1279.76,0.098453,645905,514891
1283.19,0.097910,648307,517453
1286.61,0.097904,650446,519167
1290.03,0.097227,652132,521325
1293.44,0.096797,653907,523262
1296.85,0.096919,655963,524760
1301.39,0.096706,657349,526126
1304.8,0.096666,657558,526342
1308.19,0.096751,658515,527005
1311.58,0.097214,658804,526674
1314.97,0.097904,659011,526004
1318.36,0.098165,658272,525098
1321.73,0.098222,658022,524830
1326.23,0.099677,657870,522953
1329.6,0.100478,656482,520888
1332.97,0.101769,654926,518111
1336.33,0.102329,653727,516497
1339.69,0.104073,652497,513459
1343.04,0.105577,649913,509657
1346.39,0.107356,647671,505823
1349.73,0.109343,645338,501700
1354.18,0.112462,641175,494897
1357.52,0.114574,638376,490346
1360.85,0.116965,635805,485690
1364.17,0.118728,633413,481902
1367.49,0.120986,631026,477597
1370.81,0.123291,628050,472828
1374.12,0.125418,625034,468259
1378.54,0.128538,620272,461364
1381.84,0.131631,616892,455594
1385.14,0.136069,613613,448565
1388.43,0.139979,611526,443033
1391.72,0.144972,610663,437350
1395.01,0.149596,610634,432698
1398.29,0.155104,611700,427991
1402.66,0.161756,614051,423105
1405.93,0.167449,616268,419103
1409.2,0.173317,617795,414503
1412.46,0.178580,618872,410224
1415.72,0.183063,619795,406617
1418.98,0.187021,620495,403383
1422.23,0.190824,621087,400247
1426.56,0.194792,621375,396791
1429.8,0.197950,621616,394069
1433.04,0.199985,622129,392550
1436.27,0.202420,621526,389977
1439.5,0.204735,621113,387646
1442.72,0.207039,620921,385476
1445.94,0.209440,620270,382949
1450.23,0.212271,618860,379596
1453.44,0.214825,617697,376661
1456.64,0.218058,616264,373000
1459.85,0.220162,614413,370082
1463.04,0.222539,612307,366801
1466.24,0.225764,610032,362734
1469.43,0.228831,607345,358595
1473.67,0.234230,603789,352091
1476.85,0.239241,601175,346545
1480.02,0.244755,597737,340216
1483.19,0.249217,594479,334903
1486.36,0.254911,591232,328736
1489.52,0.259918,587853,323110
1492.68,0.261530,583875,319735
1496.89,0.263970,578062,314778
1500.03,0.265125,574159,311822
1503.18,0.264403,570285,310234
1506.32,0.263436,565444,308286
1509.45,0.262175,560571,306518
1512.58,0.260910,555821,304807
1515.71,0.258408,550344,303547
1519.87,0.255481,543983,302068
1522.99,0.252542,538764,301201
1526.1,0.251120,533692,299344
1529.21,0.248368,527902,297979
1532.32,0.245706,521886,296394
1535.42,0.242786,515888,294964
1538.51,0.239501,509987,293804
1541.6,0.236630,503936,292244
1545.72,0.232603,494694,289557
1548.8,0.229558,488378,287871
1551.88,0.227766,481832,285187
1554.95,0.225038,474989,282908
1558.02,0.223470,467818,279645
1561.08,0.222785,460730,275843
1564.15,0.221709,454170,272590
1568.22,0.220579,444181,267289
1571.27,0.220184,436947,263175
1574.32,0.218783,429598,259585
1577.36,0.218084,422039,255428
1580.4,0.216869,414375,251492
1583.43,0.214337,406354,248066
1586.46,0.212476,398475,244301
1590.49,0.210358,388982,239647
1593.51,0.209439,380708,235046
1596.53,0.208168,372727,230793
1599.54,0.205413,365060,227484
1602.55,0.203959,357543,223547
1605.55,0.201263,349495,219876
1608.55,0.199765,341154,215370
1612.54,0.197594,330877,209929
1615.53,0.194987,322904,206104
1618.51,0.194027,315116,201578
1621.49,0.193729,307217,196660
1624.47,0.192225,299481,192373
1627.44,0.191526,292112,187942
1630.41,0.189986,284245,183530
1634.36,0.188748,274079,177471
1637.32,0.188411,266916,172967
1640.27,0.187220,259612,168696
1643.22,0.187094,251804,163670
1646.16,0.185978,244348,159232
1649.1,0.185874,236703,154287
1652.04,0.183375,228171,149584
1655.95,0.180100,215408,142286
1658.88,0.175963,204937,136665
1661.8,0.170256,193395,130674
1664.72,0.163829,179728,123250
1667.63,0.152175,163642,115271
1670.54,0.138257,146312,106420
1673.44,0.122517,128451,96877
1677.31,0.105098,105080,82494
1680.21,0.093273,88906,71723
1683.1,0.087678,75033,61316
1685.99,0.089143,63520,51733
1688.87,0.092148,53714,43445
1691.75,0.098451,45653,36393
1694.62,0.099646,39137,31113
1697.49,0.104675,33776,26542
1701.31,0.122117,28175,21269

File: Column 1_050582_20150331_121505.csv
Method:,Column 1,,
Host Date-Time:,31/3/15 @ 12:15:5,,
Header Version:,1,,
System Temp (C):,33.73,,
Detector Temp (C):,34.49,,
Humidity (%):,1.95,,
Lamp PD:,3818,,
Shift Vector Coefficients:,-10.5391,0.0761263,-0.000134223,,
Pixel to Wavelength Coefficients:,1775.68,-0.916766,-0.000235065,,
Serial Number:,5510004,,
Scan Config Name:,Column 1,,
Scan Config Type:,Slew,,
Section 1,,
Start wavelength (nm):,900,,
End wavelength (nm):,1700,,
Pattern Pixel Width (nm):,   7.03,,,,
Exposure (ms):,  0.635,,,,
Digital Resolution:,228,,
Num Repeats:,6,,
PGA Gain:,64,,
Total Measurement Time in sec:,  2.729,,
Wavelength (nm),Absorbance (AU),Reference Signal (unitless),Sample Signal (unitless)
901.51,0.070582,108485,92212
905.376,0.077450,121306,101492
909.237,0.080159,131909,109677
913.095,0.080824,143299,118965
916.948,0.081669,156982,130071
922.079,0.081879,179937,149019
925.923,0.083328,200504,165499
929.762,0.084342,222660,183358
933.597,0.085185,244426,200892
937.427,0.082775,263972,218164
941.254,0.082584,281845,233038
945.076,0.080897,297271,246749
950.165,0.081576,315605,261558
953.978,0.080273,328029,272671
957.786,0.080286,340470,283004
961.59,0.080183,352317,292921
965.389,0.080849,363056,301387
969.185,0.080794,373162,309816
972.976,0.081154,382632,317415
976.763,0.081389,391202,324349
981.806,0.081733,400190,331538
985.583,0.082399,406088,335909
989.355,0.082975,410162,338829
993.124,0.083386,412868,340742
996.888,0.083962,414263,341440
1000.65,0.084785,415476,341791
1004.4,0.085695,415479,341078
1009.41,0.086843,414358,339260
1013.15,0.087317,412923,337716
1016.89,0.088367,411526,335761
1020.63,0.088091,409066,333966
1024.36,0.088424,406777,331843
1028.09,0.087122,404427,330916
1031.82,0.087790,401911,328352
1036.78,0.087218,398410,325921
1040.49,0.086838,396204,324400
1044.2,0.087037,394236,322641
1047.91,0.086507,392042,321237
1051.61,0.086373,389823,319517
1055.31,0.086406,388234,318191
1059,0.086110,387599,317887
1063.92,0.084759,386688,318128
1067.61,0.083901,386598,318683
1071.29,0.084203,387377,319103
1074.96,0.083405,388536,320646
1078.63,0.082841,389855,322153
1082.3,0.081661,391215,324156
1085.96,0.081048,393215,326274
1090.84,0.079820,396270,329740
1094.49,0.079487,398760,332066
1098.14,0.079289,400987,334073
1101.79,0.078505,403477,336755
1105.43,0.078363,406116,339068
1109.06,0.077915,407701,340743
1112.7,0.077924,409859,342539
1117.53,0.077092,412494,345403
1121.15,0.077542,414909,347065
1124.77,0.077961,416559,348109
1128.38,0.079381,418532,348616
1131.99,0.079692,419956,349552
1135.6,0.080778,421946,350331
1139.2,0.082682,423881,350398
1143.99,0.084699,426786,351165
1147.58,0.085237,428617,352235
1151.17,0.086816,431169,353046
1154.75,0.087668,433579,354324
1158.33,0.089312,436264,355171
1161.91,0.090403,439132,356609
1165.48,0.093197,442389,356950
1169.04,0.095338,446101,358175
1173.79,0.098674,451929,360078
1177.34,0.100479,456026,361835
1180.9,0.102420,461306,364392
1184.44,0.104027,467657,368045
1187.99,0.105160,473969,372040
1191.52,0.105160,479856,376661
1195.06,0.104829,487372,382853
1199.76,0.104542,497347,390947
1203.29,0.103883,504311,397023
1206.81,0.103278,511507,403249
1210.33,0.102456,519078,409993
1213.84,0.102098,527163,416722
1217.35,0.101974,534208,422412
1220.85,0.100813,540472,428509
1225.51,0.099983,549929,436841
1229.01,0.099458,556888,442904
1232.5,0.099404,562180,447169
1235.98,0.098208,567975,453024
1239.46,0.097240,574815,459503
1242.94,0.096060,582782,467139
1246.41,0.095899,591476,474284
1251.03,0.095939,604016,484294
1254.5,0.095684,612289,491216
1257.96,0.096507,619125,495760
1261.41,0.096638,624551,499954
1264.86,0.097007,629900,503808
1268.31,0.098015,634345,506186
1271.75,0.098617,638574,508855
1276.33,0.098860,642499,511696
1279.76,0.098668,645905,514637
1283.19,0.098215,648307,517089
1286.61,0.098105,650446,518927
1290.03,0.097555,652132,520931
1293.44,0.097313,653907,522640
1296.85,0.097095,655963,524547
1301.39,0.096677,657349,526161
1304.8,0.096564,657558,526466
1308.19,0.096945,658515,526770
1311.58,0.096946,658804,526999
1314.97,0.097692,659011,526260
1318.36,0.098034,658272,525256
1321.73,0.098641,658022,524324
1326.23,0.099311,657870,523394
1329.6,0.100453,656482,520919
1332.97,0.101356,654926,518605
1336.33,0.102663,653727,516099
1339.69,0.104007,652497,513537
1343.04,0.105772,649913,509428
1346.39,0.107443,647671,505722
1349.73,0.109663,645338,501331
1354.18,0.112621,641175,494716
1357.52,0.114515,638376,490413
1360.85,0.117137,635805,485497
1364.17,0.118448,633413,482213
1367.49,0.120984,631026,477599
1370.81,0.122874,628050,473282
1374.12,0.125243,625034,468447
1378.54,0.128602,620272,461297
1381.84,0.131713,616892,455508
1385.14,0.135404,613613,449253
1388.43,0.140075,611526,442935
1391.72,0.144577,610663,437748
1395.01,0.149487,610634,432807
1398.29,0.154706,611700,428383
1402.66,0.161929,614051,422937
1405.93,0.168168,616268,418410
1409.2,0.173244,617795,414572
1412.46,0.178224,618872,410560
1415.72,0.182641,619795,407012
1418.98,0.186896,620495,403499
1422.23,0.190610,621087,400445
1426.56,0.195104,621375,396506
1429.8,0.197273,621616,394684
1433.04,0.200382,622129,392192
1436.27,0.202464,621526,389938
1439.5,0.204666,621113,387708
1442.72,0.206766,620921,385718
1445.94,0.208958,620270,383374
1450.23,0.212377,618860,379503
1453.44,0.214974,617697,376532
1456.64,0.217967,616264,373078
1459.85,0.220417,614413,369865
1463.04,0.222748,612307,366624
1466.24,0.225974,610032,362559
1469.43,0.229167,607345,358318
1473.67,0.234665,603789,351739
1476.85,0.239196,601175,346581
1480.02,0.244282,597737,340587
1483.19,0.249772,594479,334476
1486.36,0.254383,591232,329136
1489.52,0.258941,587853,323838
1492.68,0.261960,583875,319418
1496.89,0.263314,578062,315254
1500.03,0.264773,574159,312075
1503.18,0.264106,570285,310446
1506.32,0.263608,565444,308164
1509.45,0.262505,560571,306285
1512.58,0.260887,555821,304823
1515.71,0.258374,550344,303571
1519.87,0.255071,543983,302353
1522.99,0.253293,538764,300681
1526.1,0.250576,533692,299719
1529.21,0.247817,527902,298357
1532.32,0.244843,521886,296984
1535.42,0.242569,515888,295112
1538.51,0.239626,509987,293720
1541.6,0.236114,503936,292591
1545.72,0.231988,494694,289967
1548.8,0.229914,488378,287635
1551.88,0.227585,481832,285306
1554.95,0.225249,474989,282771
1558.02,0.224199,467818,279176
1561.08,0.222196,460730,276217
1564.15,0.221956,454170,272435
1568.22,0.220384,444181,267409
1571.27,0.219980,436947,263299
1574.32,0.219508,429598,259152
1577.36,0.217853,422039,255564
1580.4,0.216553,414375,251675
1583.43,0.214672,406354,247875
1586.46,0.213629,398475,243653
1590.49,0.211813,388982,238845
1593.51,0.208874,380708,235352
1596.53,0.206900,372727,231468
1599.54,0.205341,365060,227522
1602.55,0.202863,357543,224112
1605.55,0.201176,349495,219920
1608.55,0.199568,341154,215468
1612.54,0.198004,330877,209731
1615.53,0.196517,322904,205379
1618.51,0.195097,315116,201082
1621.49,0.193438,307217,196792
1624.47,0.192241,299481,192366
1627.44,0.190964,292112,188185
1630.41,0.189974,284245,183535
1634.36,0.188974,274079,177379
1637.32,0.187699,266916,173251
1640.27,0.187895,259612,168434
1643.22,0.186338,251804,163955
1646.16,0.186358,244348,159093
1649.1,0.186024,236703,154234
1652.04,0.184090,228171,149338
1655.95,0.180295,215408,142222
1658.88,0.176192,204937,136593
1661.8,0.170895,193395,130482
1664.72,0.163741,179728,123275
1667.63,0.152812,163642,115102
1670.54,0.138249,146312,106422
1673.44,0.124561,128451,96422
1677.31,0.104309,105080,82644
1680.21,0.092867,88906,71790
1683.1,0.091492,75033,60780
1685.99,0.090918,63520,51522
1688.87,0.092388,53714,43421
1691.75,0.101001,45653,36180
1694.62,0.107136,39137,30581
1697.49,0.102553,33776,26672
1701.31,0.111806,28175,21780

File: Column 1_050582_20150331_121508.csv
Method:,Column 1,,
Host Date-Time:,31/3/15 @ 12:15:8,,
Header Version:,1,,
System Temp (C):,33.75,,
Detector Temp (C):,34.49,,
Humidity (%):,1.95,,
Lamp PD:,3819,,
Shift Vector Coefficients:,-10.5391,0.0761263,-0.000134223,,
Pixel to Wavelength Coefficients:,1775.68,-0.916766,-0.000235065,,
Serial Number:,5510004,,
Scan Config Name:,Column 1,,
Scan Config Type:,Slew,,
Section 1,,
Start wavelength (nm):,900,,
End wavelength (nm):,1700,,
Pattern Pixel Width (nm):,   7.03,,,,
Exposure (ms):,  0.635,,,,
Digital Resolution:,228,,
Num Repeats:,6,,
PGA Gain:,64,,
Total Measurement Time in sec:,  2.676,,
Wavelength (nm),Absorbance (AU),Reference Signal (unitless),Sample Signal (unitless)
901.51,0.072021,108485,91907
905.376,0.077519,121306,101476
909.237,0.079795,131909,109769
913.095,0.079661,143299,119284
916.948,0.082321,156982,129876
922.079,0.083523,179937,148456
925.923,0.083501,200504,165433
929.762,0.083800,222660,183587
933.597,0.083784,244426,201541
937.427,0.082588,263972,218258
941.254,0.082940,281845,232847
945.076,0.081344,297271,246495
950.165,0.081002,315605,261904
953.978,0.080272,328029,272672
957.786,0.079923,340470,283241
961.59,0.081365,352317,292125
965.389,0.080269,363056,301790
969.185,0.080100,373162,310311
972.976,0.080778,382632,317690
976.763,0.081579,391202,324207
981.806,0.081931,400190,331387
985.583,0.082415,406088,335896
989.355,0.083147,410162,338695
993.124,0.083268,412868,340834
996.888,0.083734,414263,341619
1000.65,0.085139,415476,341513
1004.4,0.085470,415479,341255
1009.41,0.086783,414358,339307
1013.15,0.087756,412923,337375
1016.89,0.088255,411526,335848
1020.63,0.087635,409066,334317
1024.36,0.087454,406777,332585
1028.09,0.088028,404427,330227
1031.82,0.087361,401911,328677
1036.78,0.086852,398410,326196
1040.49,0.086783,396204,324441
1044.2,0.087239,394236,322491
1047.91,0.086581,392042,321182
1051.61,0.085670,389823,320035
1055.31,0.086091,388234,318422
1059,0.085437,387599,318380
1063.92,0.085148,386688,317843
1067.61,0.083570,386598,318926
1071.29,0.083352,387377,319729
1074.96,0.083736,388536,320402
1078.63,0.082278,389855,322571
1082.3,0.081311,391215,324418
1085.96,0.080735,393215,326509
1090.84,0.079947,396270,329643
1094.49,0.080160,398760,331552
1098.14,0.079349,400987,334027
1101.79,0.078420,403477,336821
1105.43,0.078818,406116,338713
1109.06,0.077726,407701,340891
1112.7,0.077715,409859,342704
1117.53,0.076745,412494,345679
1121.15,0.077347,414909,347221
1124.77,0.077653,416559,348356
1128.38,0.078372,418532,349427
1131.99,0.080103,419956,349221
1135.6,0.081234,421946,349964
1139.2,0.082106,423881,350863
1143.99,0.085091,426786,350848
1147.58,0.085364,428617,352132
1151.17,0.086199,431169,353548
1154.75,0.087651,433579,354338
1158.33,0.088804,436264,355587
1161.91,0.090139,439132,356826
1165.48,0.093219,442389,356932
1169.04,0.094946,446101,358498
1173.79,0.098075,451929,360575
1177.34,0.100203,456026,362065
1180.9,0.102370,461306,364434
1184.44,0.104238,467657,367866
1187.99,0.105549,473969,371707
1191.52,0.105129,479856,376688
1195.06,0.104895,487372,382794
1199.76,0.104288,497347,391175
1203.29,0.103747,504311,397147
1206.81,0.102604,511507,403876
1210.33,0.102163,519078,410270
1213.84,0.101606,527163,417195
1217.35,0.101726,534208,422653
1220.85,0.100574,540472,428745
1225.51,0.100068,549929,436756
1229.01,0.099323,556888,443042
1232.5,0.098823,562180,447767
1235.98,0.098349,567975,452877
1239.46,0.097329,574815,459409
1242.94,0.096778,582782,466367
1246.41,0.096103,591476,474061
1251.03,0.096090,604016,484126
1254.5,0.095860,612289,491017
1257.96,0.096195,619125,496116
1261.41,0.096599,624551,499999
1264.86,0.097467,629900,503274
1268.31,0.097694,634345,506561
1271.75,0.098435,638574,509069
1276.33,0.098931,642499,511613
1279.76,0.098914,645905,514345
1283.19,0.098143,648307,517175
1286.61,0.097884,650446,519191
1290.03,0.097801,652132,520636
1293.44,0.096813,653907,523243
1296.85,0.096713,655963,525008
1301.39,0.096395,657349,526503
1304.8,0.096349,657558,526726
1308.19,0.096753,658515,527002
1311.58,0.096773,658804,527210
1314.97,0.097306,659011,526728
1318.36,0.098352,658272,524872
1321.73,0.098156,658022,524910
1326.23,0.099416,657870,523268
1329.6,0.100189,656482,521235
1332.97,0.101333,654926,518632
1336.33,0.102604,653727,516170
1339.69,0.103746,652497,513845
1343.04,0.105607,649913,509622
1346.39,0.107736,647671,505381
1349.73,0.109505,645338,501513
1354.18,0.112782,641175,494532
1357.52,0.114503,638376,490426
1360.85,0.116548,635805,486156
1364.17,0.118217,633413,482470
1367.49,0.120993,631026,477589
1370.81,0.123199,628050,472928
1374.12,0.125110,625034,468591
1378.54,0.128634,620272,461262
1381.84,0.131698,616892,455524
1385.14,0.135627,613613,449022
1388.43,0.139945,611526,443068
1391.72,0.144340,610663,437987
1395.01,0.149712,610634,432583
1398.29,0.154778,611700,428312
1402.66,0.161763,614051,423098
1405.93,0.167567,616268,418989
1409.2,0.173382,617795,414441
1412.46,0.177952,618872,410817
1415.72,0.182420,619795,407219
1418.98,0.187011,620495,403392
1422.23,0.190283,621087,400746
1426.56,0.194784,621375,396798
1429.8,0.197531,621616,394449
1433.04,0.200406,622129,392170
1436.27,0.202419,621526,389978
1439.5,0.204408,621113,387938
1442.72,0.206281,620921,386149
1445.94,0.208802,620270,383512
1450.23,0.212345,618860,379531
1453.44,0.214341,617697,377081
1456.64,0.217697,616264,373310
1459.85,0.220098,614413,370137
1463.04,0.222997,612307,366414
1466.24,0.225750,610032,362746
1469.43,0.228629,607345,358762
1473.67,0.234233,603789,352089
1476.85,0.238797,601175,346900
1480.02,0.244086,597737,340741
1483.19,0.249999,594479,334301
1486.36,0.254381,591232,329137
1489.52,0.259270,587853,323593
1492.68,0.261671,583875,319631
1496.89,0.263297,578062,315266
1500.03,0.263927,574159,312684
1503.18,0.264291,570285,310314
1506.32,0.263463,565444,308267
1509.45,0.261716,560571,306842
1512.58,0.260002,555821,305445
1515.71,0.258199,550344,303693
1519.87,0.255486,543983,302064
1522.99,0.252747,538764,301059
1526.1,0.250319,533692,299897
1529.21,0.248436,527902,297932
1532.32,0.245062,521886,296834
1535.42,0.241613,515888,295762
1538.51,0.239033,509987,294121
1541.6,0.236304,503936,292463
1545.72,0.232805,494694,289422
1548.8,0.229406,488378,287972
1551.88,0.227221,481832,285545
1554.95,0.224886,474989,283007
1558.02,0.224308,467818,279106
1561.08,0.222292,460730,276156
1564.15,0.221102,454170,272971
1568.22,0.220150,444181,267553
1571.27,0.219798,436947,263409
1574.32,0.219230,429598,259318
1577.36,0.217243,422039,255923
1580.4,0.216158,414375,251904
1583.43,0.214488,406354,247980
1586.46,0.213141,398475,243927
1590.49,0.211292,388982,239132
1593.51,0.209171,380708,235191
1596.53,0.207174,372727,231322
1599.54,0.205343,365060,227521
1602.55,0.203082,357543,223999
1605.55,0.201421,349495,219796
1608.55,0.199505,341154,215499
1612.54,0.197458,330877,209995
1615.53,0.195447,322904,205886
1618.51,0.194642,315116,201293
1621.49,0.193608,307217,196715
1624.47,0.191564,299481,192666
1627.44,0.191334,292112,188025
1630.41,0.189525,284245,183725
1634.36,0.188631,274079,177519
1637.32,0.189211,266916,172649
1640.27,0.188866,259612,168058
1643.22,0.187295,251804,163594
1646.16,0.184821,244348,159657
1649.1,0.187070,236703,153863
1652.04,0.184693,228171,149131
1655.95,0.181387,215408,141865
1658.88,0.176383,204937,136533
1661.8,0.172141,193395,130108
1664.72,0.164121,179728,123167
1667.63,0.153344,163642,114961
1670.54,0.136888,146312,106756
1673.44,0.123563,128451,96644
1677.31,0.103841,105080,82733
1680.21,0.093012,88906,71766
1683.1,0.087756,75033,61305
1685.99,0.088933,63520,51758
1688.87,0.093850,53714,43275
1691.75,0.094957,45653,36687
1694.62,0.106285,39137,30641
1697.49,0.110954,33776,26161
1701.31,0.117890,28175,21477