Folder: textile_sorting_NIRSCAN_/samples/wool/wool-000811 (part 165)

File: Column 1_050622_20150331_123417.csv
Method:,Column 1,,
Host Date-Time:,31/3/15 @ 12:34:17,,
Header Version:,1,,
System Temp (C):,34.13,,
Detector Temp (C):,35.01,,
Humidity (%):,1.56,,
Lamp PD:,3817,,
Shift Vector Coefficients:,-10.5391,0.0761263,-0.000134223,,
Pixel to Wavelength Coefficients:,1775.68,-0.916766,-0.000235065,,
Serial Number:,5510004,,
Scan Config Name:,Column 1,,
Scan Config Type:,Slew,,
Section 1,,
Start wavelength (nm):,900,,
End wavelength (nm):,1700,,
Pattern Pixel Width (nm):,   7.03,,,,
Exposure (ms):,  0.635,,,,
Digital Resolution:,228,,
Num Repeats:,6,,
PGA Gain:,64,,
Total Measurement Time in sec:,  2.726,,
Wavelength (nm),Absorbance (AU),Reference Signal (unitless),Sample Signal (unitless)
901.51,0.068032,108485,92755
905.376,0.075065,121306,102051
909.237,0.076276,131909,110662
913.095,0.077794,143299,119798
916.948,0.079053,156982,130857
922.079,0.080357,179937,149542
925.923,0.082010,200504,166002
929.762,0.082645,222660,184076
933.597,0.082635,244426,202075
937.427,0.081368,263972,218872
941.254,0.080474,281845,234173
945.076,0.079439,297271,247579
950.165,0.078520,315605,263405
953.978,0.077316,328029,274534
957.786,0.077728,340470,284676
961.59,0.077593,352317,294673
965.389,0.077304,363056,303857
969.185,0.077984,373162,311827
972.976,0.077763,382632,319903
976.763,0.078506,391202,326509
981.806,0.079361,400190,333354
985.583,0.079344,406088,338280
989.355,0.080010,410162,341150
993.124,0.080391,412868,343100
996.888,0.080795,414263,343939
1000.65,0.081378,415476,344483
1004.4,0.082746,415479,343402
1009.41,0.084639,414358,340986
1013.15,0.084681,412923,339772
1016.89,0.084899,411526,338453
1020.63,0.083791,409066,337289
1024.36,0.084872,406777,334568
1028.09,0.084140,404427,333196
1031.82,0.083885,401911,331318
1036.78,0.084036,398410,328318
1040.49,0.083453,396204,326938
1044.2,0.083901,394236,324979
1047.91,0.083331,392042,323595
1051.61,0.082920,389823,322068
1055.31,0.082848,388234,320808
1059,0.082675,387599,320411
1063.92,0.081102,386688,320818
1067.61,0.080780,386598,320981
1071.29,0.080321,387377,321968
1074.96,0.079307,388536,323686
1078.63,0.079354,389855,324750
1082.3,0.077897,391215,326978
1085.96,0.077121,393215,329237
1090.84,0.076577,396270,332211
1094.49,0.076155,398760,334624
1098.14,0.075971,400987,336635
1101.79,0.074826,403477,339620
1105.43,0.074821,406116,341845
1109.06,0.074074,407701,343770
1112.7,0.073557,409859,346001
1117.53,0.073030,412494,348648
1121.15,0.073767,414909,350095
1124.77,0.074084,416559,351231
1128.38,0.074411,418532,352629
1131.99,0.075029,419956,353325
1135.6,0.076818,421946,353540
1139.2,0.078458,423881,353823
1143.99,0.080375,426786,354679
1147.58,0.080823,428617,355833
1151.17,0.082119,431169,356885
1154.75,0.083040,433579,358120
1158.33,0.083949,436264,359584
1161.91,0.085710,439132,360483
1165.48,0.088350,442389,360956
1169.04,0.090106,446101,362516
1173.79,0.093689,451929,364235
1177.34,0.095503,456026,366005
1180.9,0.097894,461306,368210
1184.44,0.099793,467657,371650
1187.99,0.100646,473969,375927
1191.52,0.100592,479856,380644
1195.06,0.100444,487372,386738
1199.76,0.100081,497347,394983
1203.29,0.099407,504311,401136
1206.81,0.099137,511507,407113
1210.33,0.098018,519078,414204
1213.84,0.097694,527163,420970
1217.35,0.097470,534208,426816
1220.85,0.096120,540472,433165
1225.51,0.095553,549929,441320
1229.01,0.095332,556888,447132
1232.5,0.094482,562180,452265
1235.98,0.093681,567975,457771
1239.46,0.092769,574815,464258
1242.94,0.092014,582782,471511
1246.41,0.091572,591476,479033
1251.03,0.091569,604016,489192
1254.5,0.091072,612289,496460
1257.96,0.091870,619125,501082
1261.41,0.092375,624551,504885
1264.86,0.092803,629900,508708
1268.31,0.093550,634345,511417
1271.75,0.093859,638574,514461
1276.33,0.094169,642499,517253
1279.76,0.093632,645905,520639
1283.19,0.093650,648307,522554
1286.61,0.093216,650446,524802
1290.03,0.092861,652132,526592
1293.44,0.092474,653907,528496
1296.85,0.092169,655963,530531
1301.39,0.091639,657349,532301
1304.8,0.091358,657558,532814
1308.19,0.092024,658515,532772
1311.58,0.091842,658804,533229
1314.97,0.092515,659011,532571
1318.36,0.092864,658272,531547
1321.73,0.093090,658022,531068
1326.23,0.093891,657870,529967
1329.6,0.094913,656482,527606
1332.97,0.095301,654926,525885
1336.33,0.096574,653727,523386
1339.69,0.097990,652497,520701
1343.04,0.099099,649913,517316
1346.39,0.100830,647671,513481
1349.73,0.102600,645338,509550
1354.18,0.105745,641175,502611
1357.52,0.107915,638376,497922
1360.85,0.109701,635805,493882
1364.17,0.111545,633413,489939
1367.49,0.113692,631026,485686
1370.81,0.115966,628050,480871
1374.12,0.118171,625034,476138
1378.54,0.120863,620272,469590
1381.84,0.123665,616892,464028
1385.14,0.126705,613613,458342
1388.43,0.130111,611526,453215
1391.72,0.134030,610663,448509
1395.01,0.137950,610634,444458
1398.29,0.141919,611700,441184
1402.66,0.147484,614051,437241
1405.93,0.152530,616268,433750
1409.2,0.156915,617795,430457
1412.46,0.161262,618872,426912
1415.72,0.165159,619795,423730
1418.98,0.168306,620495,421146
1422.23,0.171503,621087,418456
1426.56,0.175387,621375,414922
1429.8,0.177941,621616,412649
1433.04,0.180355,622129,410701
1436.27,0.182736,621526,408059
1439.5,0.184499,621113,406136
1442.72,0.187042,620921,403640
1445.94,0.189690,620270,400766
1450.23,0.193508,618860,396355
1453.44,0.195663,617697,393652
1456.64,0.198887,616264,389834
1459.85,0.201381,614413,386438
1463.04,0.204490,612307,382366
1466.24,0.208127,610032,377768
1469.43,0.211444,607345,373243
1473.67,0.218150,603789,365372
1476.85,0.224096,601175,358843
1480.02,0.230606,597737,351483
1483.19,0.236853,594479,344575
1486.36,0.243715,591232,337321
1489.52,0.248379,587853,331810
1492.68,0.251703,583875,327052
1496.89,0.253748,578062,322275
1500.03,0.254624,574159,319454
1503.18,0.254359,570285,317492
1506.32,0.253686,565444,315285
1509.45,0.251801,560571,313928
1512.58,0.250288,555821,312354
1515.71,0.248300,550344,310695
1519.87,0.244683,543983,309672
1522.99,0.242511,538764,308239
1526.1,0.240118,533692,307024
1529.21,0.237939,527902,305221
1532.32,0.234579,521886,304086
1535.42,0.231697,515888,302593
1538.51,0.228131,509987,301598
1541.6,0.225411,503936,299892
1545.72,0.221743,494694,296889
1548.8,0.219363,488378,294709
1551.88,0.216273,481832,292835
1554.95,0.214951,474989,289556
1558.02,0.212776,467818,286616
1561.08,0.211545,460730,283075
1564.15,0.211384,454170,279148
1568.22,0.210599,444181,273502
1571.27,0.209260,436947,269879
1574.32,0.208635,429598,265722
1577.36,0.208020,422039,261416
1580.4,0.206133,414375,257787
1583.43,0.205083,406354,253409
1586.46,0.203334,398475,249498
1590.49,0.202193,388982,244195
1593.51,0.199582,380708,240442
1596.53,0.198059,372727,236228
1599.54,0.195629,365060,232667
1602.55,0.193694,357543,228894
1605.55,0.192228,349495,224498
1608.55,0.189774,341154,220382
1612.54,0.187928,330877,214654
1615.53,0.186540,322904,210152
1618.51,0.184901,315116,205859
1621.49,0.185600,307217,200376
1624.47,0.183792,299481,196145
1627.44,0.183093,292112,191627
1630.41,0.181652,284245,187086
1634.36,0.180274,274079,180968
1637.32,0.179352,266916,176613
1640.27,0.179357,259612,171778
1643.22,0.178060,251804,167110
1646.16,0.176477,244348,162754
1649.1,0.176863,236703,157522
1652.04,0.174319,228171,152736
1655.95,0.171295,215408,145200
1658.88,0.167482,204937,139360
1661.8,0.163718,193395,132656
1664.72,0.155253,179728,125708
1667.63,0.143225,163642,117671
1670.54,0.127057,146312,109200
1673.44,0.112835,128451,99061
1677.31,0.090658,105080,85283
1680.21,0.077154,88906,74435
1683.1,0.071065,75033,63707
1685.99,0.074654,63520,53488
1688.87,0.076036,53714,45087
1691.75,0.080738,45653,37908
1694.62,0.092543,39137,31626
1697.49,0.087605,33776,27606
1701.31,0.093551,28175,22715

File: Column 1_050623_20150331_123420.csv
Method:,Column 1,,
Host Date-Time:,31/3/15 @ 12:34:20,,
Header Version:,1,,
System Temp (C):,34.12,,
Detector Temp (C):,35.01,,
Humidity (%):,1.56,,
Lamp PD:,3818,,
Shift Vector Coefficients:,-10.5391,0.0761263,-0.000134223,,
Pixel to Wavelength Coefficients:,1775.68,-0.916766,-0.000235065,,
Serial Number:,5510004,,
Scan Config Name:,Column 1,,
Scan Config Type:,Slew,,
Section 1,,
Start wavelength (nm):,900,,
End wavelength (nm):,1700,,
Pattern Pixel Width (nm):,   7.03,,,,
Exposure (ms):,  0.635,,,,
Digital Resolution:,228,,
Num Repeats:,6,,
PGA Gain:,64,,
Total Measurement Time in sec:,  2.677,,
Wavelength (nm),Absorbance (AU),Reference Signal (unitless),Sample Signal (unitless)
901.51,0.070017,108485,92332
905.376,0.075580,121306,101930
909.237,0.077939,131909,110239
913.095,0.078817,143299,119516
916.948,0.079601,156982,130692
922.079,0.081389,179937,149187
925.923,0.082827,200504,165690
929.762,0.082423,222660,184170
933.597,0.082824,244426,201987
937.427,0.081433,263972,218839
941.254,0.080383,281845,234222
945.076,0.079021,297271,247817
950.165,0.078365,315605,263499
953.978,0.077694,328029,274295
957.786,0.077702,340470,284693
961.59,0.078194,352317,294266
965.389,0.077702,363056,303579
969.185,0.077630,373162,312081
972.976,0.078938,382632,319039
976.763,0.078393,391202,326594
981.806,0.078728,400190,333840
985.583,0.079836,406088,337897
989.355,0.079999,410162,341159
993.124,0.080351,412868,343131
996.888,0.080797,414263,343937
1000.65,0.082227,415476,343810
1004.4,0.082928,415479,343258
1009.41,0.084159,414358,341363
1013.15,0.084611,412923,339827
1016.89,0.085154,411526,338254
1020.63,0.084992,409066,336358
1024.36,0.085247,406777,334279
1028.09,0.084216,404427,333138
1031.82,0.084559,401911,330804
1036.78,0.084325,398410,328099
1040.49,0.084451,396204,326188
1044.2,0.083985,394236,324916
1047.91,0.084004,392042,323094
1051.61,0.083350,389823,321749
1055.31,0.083111,388234,320614
1059,0.082449,387599,320578
1063.92,0.081762,386688,320331
1067.61,0.080457,386598,321220
1071.29,0.080037,387377,322179
1074.96,0.079560,388536,323498
1078.63,0.079226,389855,324846
1082.3,0.078482,391215,326538
1085.96,0.077788,393215,328732
1090.84,0.076573,396270,332214
1094.49,0.076256,398760,334546
1098.14,0.076091,400987,336542
1101.79,0.074625,403477,339777
1105.43,0.075020,406116,341688
1109.06,0.074359,407701,343544
1112.7,0.073405,409859,346122
1117.53,0.073508,412494,348265
1121.15,0.074106,414909,349822
1124.77,0.073896,416559,351383
1128.38,0.075005,418532,352147
1131.99,0.076137,419956,352425
1135.6,0.077006,421946,353387
1139.2,0.078810,423881,353536
1143.99,0.080810,426786,354324
1147.58,0.080997,428617,355691
1151.17,0.082214,431169,356807
1154.75,0.083015,433579,358140
1158.33,0.084562,436264,359077
1161.91,0.086518,439132,359813
1165.48,0.088767,442389,360610
1169.04,0.090025,446101,362584
1173.79,0.093816,451929,364128
1177.34,0.095989,456026,365595
1180.9,0.097825,461306,368268
1184.44,0.099946,467657,371519
1187.99,0.100913,473969,375696
1191.52,0.100858,479856,380411
1195.06,0.101159,487372,386102
1199.76,0.100629,497347,394485
1203.29,0.099935,504311,400648
1206.81,0.099543,511507,406732
1210.33,0.098001,519078,414221
1213.84,0.097967,527163,420705
1217.35,0.097262,534208,427020
1220.85,0.096785,540472,432502
1225.51,0.095893,549929,440975
1229.01,0.095247,556888,447220
1232.5,0.094422,562180,452328
1235.98,0.094059,567975,457373
1239.46,0.092945,574815,464070
1242.94,0.092323,582782,471176
1246.41,0.091566,591476,479039
1251.03,0.091463,604016,489312
1254.5,0.091394,612289,496092
1257.96,0.091844,619125,501112
1261.41,0.092462,624551,504784
1264.86,0.093028,629900,508445
1268.31,0.093674,634345,511271
1271.75,0.094333,638574,513900
1276.33,0.094265,642499,517139
1279.76,0.094362,645905,519765
1283.19,0.093800,648307,522373
1286.61,0.093501,650446,524458
1290.03,0.093233,652132,526142
1293.44,0.092558,653907,528394
1296.85,0.092162,655963,530539
1301.39,0.091879,657349,532007
1304.8,0.091963,657558,532073
1308.19,0.091838,658515,533001
1311.58,0.092252,658804,532726
1314.97,0.092723,659011,532316
1318.36,0.093131,658272,531220
1321.73,0.093274,658022,530843
1326.23,0.093581,657870,530346
1329.6,0.094406,656482,528222
1332.97,0.095249,654926,525949
1336.33,0.096304,653727,523712
1339.69,0.097840,652497,520881
1343.04,0.099695,649913,516607
1346.39,0.101265,647671,512967
1349.73,0.103080,645338,508988
1354.18,0.105898,641175,502433
1357.52,0.107711,638376,498156
1360.85,0.109947,635805,493602
1364.17,0.112115,633413,489296
1367.49,0.114436,631026,484854
1370.81,0.116848,628050,479895
1374.12,0.118121,625034,476193
1378.54,0.120917,620272,469532
1381.84,0.124113,616892,463549
1385.14,0.127185,613613,457836
1388.43,0.130362,611526,452953
1391.72,0.134447,610663,448079
1395.01,0.137552,610634,444866
1398.29,0.142404,611700,440691
1402.66,0.148124,614051,436597
1405.93,0.152735,616268,433545
1409.2,0.157101,617795,430272
1412.46,0.161589,618872,426591
1415.72,0.164665,619795,424212
1418.98,0.168921,620495,420550
1422.23,0.172304,621087,417685
1426.56,0.175736,621375,414589
1429.8,0.177639,621616,412936
1433.04,0.180554,622129,410513
1436.27,0.183113,621526,407705
1439.5,0.184933,621113,405730
1442.72,0.187352,620921,403352
1445.94,0.189939,620270,400536
1450.23,0.193528,618860,396337
1453.44,0.196335,617697,393043
1456.64,0.198914,616264,389810
1459.85,0.201549,614413,386288
1463.04,0.204502,612307,382355
1466.24,0.208101,610032,377791
1469.43,0.212498,607345,372338
1473.67,0.218772,603789,364849
1476.85,0.224737,601175,358314
1480.02,0.230707,597737,351401
1483.19,0.237832,594479,343799
1486.36,0.243451,591232,337526
1489.52,0.248768,587853,331513
1492.68,0.252300,583875,326603
1496.89,0.254209,578062,321933
1500.03,0.255001,574159,319177
1503.18,0.254935,570285,317071
1506.32,0.253951,565444,315093
1509.45,0.252410,560571,313488
1512.58,0.251233,555821,311675
1515.71,0.248420,550344,310609
1519.87,0.245853,543983,308839
1522.99,0.243138,538764,307794
1526.1,0.240352,533692,306859
1529.21,0.237041,527902,305853
1532.32,0.234085,521886,304432
1535.42,0.231675,515888,302608
1538.51,0.229134,509987,300902
1541.6,0.226337,503936,299253
1545.72,0.220914,494694,297456
1548.8,0.218881,488378,295036
1551.88,0.216765,481832,292503
1554.95,0.215089,474989,289464
1558.02,0.213178,467818,286351
1561.08,0.211903,460730,282842
1564.15,0.211494,454170,279077
1568.22,0.209970,444181,273899
1571.27,0.210167,436947,269316
1574.32,0.209145,429598,265410
1577.36,0.207801,422039,261548
1580.4,0.207518,414375,256966
1583.43,0.205564,406354,253128
1586.46,0.203965,398475,249136
1590.49,0.201631,388982,244511
1593.51,0.199956,380708,240235
1596.53,0.198087,372727,236213
1599.54,0.197101,365060,231880
1602.55,0.195034,357543,228189
1605.55,0.192052,349495,224589
1608.55,0.190358,341154,220086
1612.54,0.188709,330877,214268
1615.53,0.187440,322904,209717
1618.51,0.186029,315116,205325
1621.49,0.184792,307217,200749
1624.47,0.184095,299481,196008
1627.44,0.182651,292112,191822
1630.41,0.182290,284245,186811
1634.36,0.180617,274079,180825
1637.32,0.181536,266916,175727
1640.27,0.179795,259612,171605
1643.22,0.178841,251804,166810
1646.16,0.178199,244348,162110
1649.1,0.178376,236703,156974
1652.04,0.175541,228171,152307
1655.95,0.172172,215408,144907
1658.88,0.168699,204937,138970
1661.8,0.163447,193395,132739
1664.72,0.155630,179728,125599
1667.63,0.143019,163642,117727
1670.54,0.128276,146312,108894
1673.44,0.113462,128451,98918
1677.31,0.092438,105080,84934
1680.21,0.080245,88906,73907
1683.1,0.073787,75033,63309
1685.99,0.073835,63520,53589
1688.87,0.073118,53714,45391
1691.75,0.079446,45653,38021
1694.62,0.086570,39137,32064
1697.49,0.091159,33776,27381
1701.31,0.100664,28175,22346

File: Column 1_050623_20150331_123428.csv
Method:,Column 1,,
Host Date-Time:,31/3/15 @ 12:34:28,,
Header Version:,1,,
System Temp (C):,34.13,,
Detector Temp (C):,35.03,,
Humidity (%):,1.56,,
Lamp PD:,3818,,
Shift Vector Coefficients:,-10.5391,0.0761263,-0.000134223,,
Pixel to Wavelength Coefficients:,1775.68,-0.916766,-0.000235065,,
Serial Number:,5510004,,
Scan Config Name:,Column 1,,
Scan Config Type:,Slew,,
Section 1,,
Start wavelength (nm):,900,,
End wavelength (nm):,1700,,
Pattern Pixel Width (nm):,   7.03,,,,
Exposure (ms):,  0.635,,,,
Digital Resolution:,228,,
Num Repeats:,6,,
PGA Gain:,64,,
Total Measurement Time in sec:,  2.666,,
Wavelength (nm),Absorbance (AU),Reference Signal (unitless),Sample Signal (unitless)
901.51,0.069294,108485,92486
905.376,0.077142,121306,101564
909.237,0.076574,131909,110586
913.095,0.078251,143299,119672
916.948,0.080246,156982,130498
922.079,0.082229,179937,148899
925.923,0.082635,200504,165763
929.762,0.083032,222660,183912
933.597,0.083239,244426,201794
937.427,0.081130,263972,218992
941.254,0.080166,281845,234339
945.076,0.079064,297271,247793
950.165,0.078340,315605,263514
953.978,0.077793,328029,274233
957.786,0.077809,340470,284623
961.59,0.077792,352317,294538
965.389,0.077497,363056,303722
969.185,0.077896,373162,311890
972.976,0.077973,382632,319748
976.763,0.078639,391202,326409
981.806,0.079466,400190,333273
985.583,0.079853,406088,337884
989.355,0.079958,410162,341191
993.124,0.079838,412868,343537
996.888,0.080594,414263,344098
1000.65,0.081232,415476,344599
1004.4,0.082573,415479,343539
1009.41,0.083916,414358,341554
1013.15,0.084540,412923,339883
1016.89,0.084603,411526,338684
1020.63,0.084875,409066,336448
1024.36,0.085168,406777,334340
1028.09,0.084620,404427,332828
1031.82,0.084139,401911,331124
1036.78,0.084221,398410,328178
1040.49,0.083943,396204,326570
1044.2,0.083933,394236,324955
1047.91,0.083328,392042,323597
1051.61,0.082920,389823,322068
1055.31,0.082913,388234,320760
1059,0.082530,387599,320518
1063.92,0.081602,386688,320449
1067.61,0.080779,386598,320982
1071.29,0.080324,387377,321966
1074.96,0.079681,388536,323408
1078.63,0.079267,389855,324815
1082.3,0.077933,391215,326951
1085.96,0.077845,393215,328689
1090.84,0.076833,396270,332015
1094.49,0.076262,398760,334541
1098.14,0.075316,400987,337143
1101.79,0.075223,403477,339309
1105.43,0.074271,406116,342278
1109.06,0.073790,407701,343995
1112.7,0.073803,409859,345805
1117.53,0.073487,412494,348282
1121.15,0.073931,414909,349963
1124.77,0.074116,416559,351205
1128.38,0.075232,418532,351963
1131.99,0.075997,419956,352539
1135.6,0.077026,421946,353371
1139.2,0.078723,423881,353607
1143.99,0.081029,426786,354145
1147.58,0.081279,428617,355460
1151.17,0.082433,431169,356627
1154.75,0.083708,433579,357569
1158.33,0.084420,436264,359194
1161.91,0.086372,439132,359934
1165.48,0.088300,442389,360998
1169.04,0.090183,446101,362452
1173.79,0.094054,451929,363929
1177.34,0.096420,456026,365233
1180.9,0.098079,461306,368053
1184.44,0.099528,467657,371877
1187.99,0.101370,473969,375301
1191.52,0.101400,479856,379936
1195.06,0.101208,487372,386058
1199.76,0.100070,497347,394993
1203.29,0.099453,504311,401093
1206.81,0.098561,511507,407653
1210.33,0.097884,519078,414332
1213.84,0.097663,527163,421000
1217.35,0.096977,534208,427300
1220.85,0.096245,540472,433040
1225.51,0.095307,549929,441570
1229.01,0.095102,556888,447369
1232.5,0.094180,562180,452580
1235.98,0.094076,567975,457355
1239.46,0.092939,574815,464076
1242.94,0.092234,582782,471272
1246.41,0.091309,591476,479323
1251.03,0.091542,604016,489223
1254.5,0.091635,612289,495817
1257.96,0.092068,619125,500853
1261.41,0.092264,624551,505015
1264.86,0.093429,629900,507975
1268.31,0.093401,634345,511593
1271.75,0.094194,638574,514064
1276.33,0.094444,642499,516926
1279.76,0.094553,645905,519536
1283.19,0.093488,648307,522748
1286.61,0.093216,650446,524802
1290.03,0.093079,652132,526328
1293.44,0.092686,653907,528239
1296.85,0.092085,655963,530633
1301.39,0.091852,657349,532040
1304.8,0.091564,657558,532562
1308.19,0.092276,658515,532463
1311.58,0.092154,658804,532847
1314.97,0.092598,659011,532469
1318.36,0.092734,658272,531706
1321.73,0.093165,658022,530977
1326.23,0.094254,657870,529524
1329.6,0.095055,656482,527434
1332.97,0.095123,654926,526101
1336.33,0.096437,653727,523551
1339.69,0.097761,652497,520976
1343.04,0.099266,649913,517117
1346.39,0.101239,647671,512998
1349.73,0.103030,645338,509046
1354.18,0.105989,641175,502328
1357.52,0.108094,638376,497717
1360.85,0.110056,635805,493478
1364.17,0.111691,633413,489774
1367.49,0.114344,631026,484957
1370.81,0.116467,628050,480316
1374.12,0.118171,625034,476138
1378.54,0.121093,620272,469342
1381.84,0.124037,616892,463631
1385.14,0.126875,613613,458162
1388.43,0.130679,611526,452622
1391.72,0.133650,610663,448902
1395.01,0.137759,610634,444654
1398.29,0.141829,611700,441275
1402.66,0.147818,614051,436904
1405.93,0.152866,616268,433415
1409.2,0.157732,617795,429648
1412.46,0.161415,618872,426762
1415.72,0.164976,619795,423908
1418.98,0.168301,620495,421150
1422.23,0.172039,621087,417940
1426.56,0.175708,621375,414616
1429.8,0.178206,621616,412398
1433.04,0.180655,622129,410417
1436.27,0.182806,621526,407994
1439.5,0.184884,621113,405776
1442.72,0.187077,620921,403608
1445.94,0.189871,620270,400599
1450.23,0.193275,618860,396568
1453.44,0.196076,617697,393278
1456.64,0.199355,616264,389414
1459.85,0.201318,614413,386494
1463.04,0.204938,612307,381972
1466.24,0.208002,610032,377877
1469.43,0.212055,607345,372718
1473.67,0.218755,603789,364863
1476.85,0.223812,601175,359078
1480.02,0.230629,597737,351464
1483.19,0.237670,594479,343927
1486.36,0.243926,591232,337157
1489.52,0.248284,587853,331883
1492.68,0.251880,583875,326919
1496.89,0.254584,578062,321655
1500.03,0.254376,574159,319636
1503.18,0.254258,570285,317566
1506.32,0.253604,565444,315345
1509.45,0.252665,560571,313304
1512.58,0.250698,555821,312059
1515.71,0.248032,550344,310887
1519.87,0.244739,543983,309632
1522.99,0.242995,538764,307896
1526.1,0.240523,533692,306738
1529.21,0.237704,527902,305386
1532.32,0.234077,521886,304438
1535.42,0.231481,515888,302743
1538.51,0.229043,509987,300965
1541.6,0.226010,503936,299478
1545.72,0.222063,494694,296670
1548.8,0.219031,488378,294934
1551.88,0.216130,481832,292931
1554.95,0.214638,474989,289765
1558.02,0.212574,467818,286750
1561.08,0.211675,460730,282990
1564.15,0.211642,454170,278982
1568.22,0.210882,444181,273324
1571.27,0.210338,436947,269210
1574.32,0.209363,429598,265277
1577.36,0.207459,422039,261754
1580.4,0.207381,414375,257047
1583.43,0.204858,406354,253540
1586.46,0.204137,398475,249037
1590.49,0.202365,388982,244098
1593.51,0.200634,380708,239860
1596.53,0.198676,372727,235893
1599.54,0.196669,365060,232111
1602.55,0.193739,357543,228870
1605.55,0.192428,349495,224395
1608.55,0.190899,341154,219812
1612.54,0.188624,330877,214310
1615.53,0.187057,322904,209902
1618.51,0.186062,315116,205309
1621.49,0.184911,307217,200694
1624.47,0.183730,299481,196173
1627.44,0.182318,292112,191969
1630.41,0.181942,284245,186961
1634.36,0.181189,274079,180587
1637.32,0.180204,266916,176267
1640.27,0.179894,259612,171566
1643.22,0.179565,251804,166532
1646.16,0.177361,244348,162423
1649.1,0.177806,236703,157180
1652.04,0.175843,228171,152201
1655.95,0.171858,215408,145012
1658.88,0.168318,204937,139092
1661.8,0.163643,193395,132679
1664.72,0.155526,179728,125629
1667.63,0.142267,163642,117931
1670.54,0.127814,146312,109010
1673.44,0.111696,128451,99321
1677.31,0.094663,105080,84500
1680.21,0.080575,88906,73851
1683.1,0.073088,75033,63411
1685.99,0.074678,63520,53485
1688.87,0.078277,53714,44855
1691.75,0.082092,45653,37790
1694.62,0.082740,39137,32348
1697.49,0.091381,33776,27367
1701.31,0.109499,28175,21896