Folder: textile_sorting_NIRSCAN_/samples/wool/wool-000811 (part 92)

File: Column 1_050580_20150331_121405.csv
Method:,Column 1,,
Host Date-Time:,31/3/15 @ 12:14:5,,
Header Version:,1,,
System Temp (C):,33.79,,
Detector Temp (C):,34.6,,
Humidity (%):,1.95,,
Lamp PD:,3819,,
Shift Vector Coefficients:,-10.5391,0.0761263,-0.000134223,,
Pixel to Wavelength Coefficients:,1775.68,-0.916766,-0.000235065,,
Serial Number:,5510004,,
Scan Config Name:,Column 1,,
Scan Config Type:,Slew,,
Section 1,,
Start wavelength (nm):,900,,
End wavelength (nm):,1700,,
Pattern Pixel Width (nm):,   7.03,,,,
Exposure (ms):,  0.635,,,,
Digital Resolution:,228,,
Num Repeats:,6,,
PGA Gain:,64,,
Total Measurement Time in sec:,  2.682,,
Wavelength (nm),Absorbance (AU),Reference Signal (unitless),Sample Signal (unitless)
901.51,0.071605,108485,91995
905.376,0.076549,121306,101703
909.237,0.080484,131909,109595
913.095,0.080751,143299,118985
916.948,0.080369,156982,130461
922.079,0.083102,179937,148600
925.923,0.083427,200504,165461
929.762,0.085607,222660,182825
933.597,0.084241,244426,201329
937.427,0.083434,263972,217833
941.254,0.082412,281845,233130
945.076,0.080922,297271,246735
950.165,0.080518,315605,262196
953.978,0.080248,328029,272687
957.786,0.080627,340470,282782
961.59,0.080693,352317,292577
965.389,0.080797,363056,301423
969.185,0.080847,373162,309778
972.976,0.081656,382632,317048
976.763,0.081719,391202,324102
981.806,0.082202,400190,331180
985.583,0.083216,406088,335277
989.355,0.083253,410162,338612
993.124,0.083521,412868,340636
996.888,0.084414,414263,341085
1000.65,0.084610,415476,341929
1004.4,0.085566,415479,341180
1009.41,0.086788,414358,339303
1013.15,0.087871,412923,337286
1016.89,0.088187,411526,335900
1020.63,0.088561,409066,333605
1024.36,0.087803,406777,332318
1028.09,0.087953,404427,330284
1031.82,0.088063,401911,328146
1036.78,0.087215,398410,325923
1040.49,0.086976,396204,324297
1044.2,0.087190,394236,322527
1047.91,0.086635,392042,321142
1051.61,0.086952,389823,319092
1055.31,0.086196,388234,318345
1059,0.086307,387599,317743
1063.92,0.084983,386688,317964
1067.61,0.084228,386598,318443
1071.29,0.083863,387377,319353
1074.96,0.083651,388536,320465
1078.63,0.082317,389855,322542
1082.3,0.082127,391215,323809
1085.96,0.081666,393215,325810
1090.84,0.080625,396270,329129
1094.49,0.080093,398760,331603
1098.14,0.079602,400987,333832
1101.79,0.079534,403477,335958
1105.43,0.078636,406116,338855
1109.06,0.077882,407701,340769
1112.7,0.077486,409859,342885
1117.53,0.077030,412494,345452
1121.15,0.077393,414909,347184
1124.77,0.077929,416559,348135
1128.38,0.079353,418532,348639
1131.99,0.079911,419956,349376
1135.6,0.081909,421946,349420
1139.2,0.082225,423881,350767
1143.99,0.084769,426786,351108
1147.58,0.085937,428617,351668
1151.17,0.086937,431169,352948
1154.75,0.088716,433579,353470
1158.33,0.089483,436264,355031
1161.91,0.090966,439132,356147
1165.48,0.093399,442389,356784
1169.04,0.095539,446101,358009
1173.79,0.098713,451929,360045
1177.34,0.100641,456026,361700
1180.9,0.103126,461306,363800
1184.44,0.105203,467657,367049
1187.99,0.105781,473969,371509
1191.52,0.105336,479856,376509
1195.06,0.105513,487372,382250
1199.76,0.104874,497347,390648
1203.29,0.104101,504311,396824
1206.81,0.103969,511507,402608
1210.33,0.102623,519078,409836
1213.84,0.102535,527163,416303
1217.35,0.102401,534208,421997
1220.85,0.101207,540472,428121
1225.51,0.100241,549929,436582
1229.01,0.099883,556888,442471
1232.5,0.099340,562180,447235
1235.98,0.098528,567975,452690
1239.46,0.098036,574815,458661
1242.94,0.097115,582782,466006
1246.41,0.096436,591476,473697
1251.03,0.096062,604016,484157
1254.5,0.096268,612289,490556
1257.96,0.096361,619125,495926
1261.41,0.097113,624551,499407
1264.86,0.097682,629900,503025
1268.31,0.098077,634345,506114
1271.75,0.098912,638574,508510
1276.33,0.099036,642499,511489
1279.76,0.099404,645905,513765
1283.19,0.098312,648307,516974
1286.61,0.098368,650446,518613
1290.03,0.098143,652132,520226
1293.44,0.097163,653907,522821
1296.85,0.097232,655963,524381
1301.39,0.096694,657349,526141
1304.8,0.096949,657558,525999
1308.19,0.097506,658515,526089
1311.58,0.097785,658804,525982
1314.97,0.098299,659011,525525
1318.36,0.098712,658272,524437
1321.73,0.099031,658022,523853
1326.23,0.100005,657870,522559
1329.6,0.100733,656482,520583
1332.97,0.101584,654926,518332
1336.33,0.102856,653727,515870
1339.69,0.104811,652497,512587
1343.04,0.106068,649913,509081
1346.39,0.108567,647671,504414
1349.73,0.110886,645338,499921
1354.18,0.113304,641175,493938
1357.52,0.115719,638376,489055
1360.85,0.117537,635805,485051
1364.17,0.119473,633413,481076
1367.49,0.121601,631026,476921
1370.81,0.124208,628050,471831
1374.12,0.126554,625034,467035
1378.54,0.129857,620272,459965
1381.84,0.132731,616892,454442
1385.14,0.136476,613613,448145
1388.43,0.140957,611526,442036
1391.72,0.145894,610663,436423
1395.01,0.150764,610634,431536
1398.29,0.155962,611700,427146
1402.66,0.163967,614051,420957
1405.93,0.169239,616268,417379
1409.2,0.174867,617795,413026
1412.46,0.180321,618872,408583
1415.72,0.184550,619795,405227
1418.98,0.189335,620495,401239
1422.23,0.192695,621087,398527
1426.56,0.197002,621375,394777
1429.8,0.200238,621616,391998
1433.04,0.202717,622129,390089
1436.27,0.204849,621526,387802
1439.5,0.206205,621113,386336
1442.72,0.209030,620921,383713
1445.94,0.211448,620270,381182
1450.23,0.214486,618860,377665
1453.44,0.216968,617697,374807
1456.64,0.220013,616264,371325
1459.85,0.222177,614413,368369
1463.04,0.224872,612307,364836
1466.24,0.228123,610032,360769
1469.43,0.230902,607345,356889
1473.67,0.235857,603789,350775
1476.85,0.241215,601175,344974
1480.02,0.245986,597737,339253
1483.19,0.251140,594479,333424
1486.36,0.256104,591232,327834
1489.52,0.260330,587853,322804
1492.68,0.263115,583875,318570
1496.89,0.264901,578062,314104
1500.03,0.265790,574159,311345
1503.18,0.264837,570285,309924
1506.32,0.264513,565444,307522
1509.45,0.263631,560571,305492
1512.58,0.261495,555821,304397
1515.71,0.259354,550344,302887
1519.87,0.256637,543983,301265
1522.99,0.254267,538764,300007
1526.1,0.251455,533692,299113
1529.21,0.248805,527902,297679
1532.32,0.246112,521886,296117
1535.42,0.243404,515888,294545
1538.51,0.240404,509987,293194
1541.6,0.237631,503936,291571
1545.72,0.234010,494694,288620
1548.8,0.231069,488378,286871
1551.88,0.228502,481832,284704
1554.95,0.226692,474989,281833
1558.02,0.224204,467818,279173
1561.08,0.223215,460730,275570
1564.15,0.222203,454170,272280
1568.22,0.221555,444181,266689
1571.27,0.221025,436947,262666
1574.32,0.220073,429598,258815
1577.36,0.219082,422039,254842
1580.4,0.217485,414375,251136
1583.43,0.216266,406354,246967
1586.46,0.214118,398475,243379
1590.49,0.212454,388982,238493
1593.51,0.210151,380708,234661
1596.53,0.208057,372727,230852
1599.54,0.206750,365060,226785
1602.55,0.204233,357543,223406
1605.55,0.202018,349495,219494
1608.55,0.200866,341154,214825
1612.54,0.198812,330877,209341
1615.53,0.197343,322904,204989
1618.51,0.195331,315116,200974
1621.49,0.195058,307217,196059
1624.47,0.192973,299481,192042
1627.44,0.192796,292112,187393
1630.41,0.191496,284245,182893
1634.36,0.190804,274079,176633
1637.32,0.190175,266916,172266
1640.27,0.188687,259612,168127
1643.22,0.187912,251804,163362
1646.16,0.187703,244348,158601
1649.1,0.185301,236703,154491
1652.04,0.184064,228171,149347
1655.95,0.181880,215408,141704
1658.88,0.177635,204937,136140
1661.8,0.172682,193395,129946
1664.72,0.164880,179728,122952
1667.63,0.152412,163642,115208
1670.54,0.140368,146312,105904
1673.44,0.123558,128451,96645
1677.31,0.103359,105080,82825
1680.21,0.093466,88906,71691
1683.1,0.087905,75033,61284
1685.99,0.089412,63520,51701
1688.87,0.095238,53714,43137
1691.75,0.094295,45653,36743
1694.62,0.105421,39137,30702
1697.49,0.103547,33776,26611
1701.31,0.119004,28175,21422

File: Column 1_050580_20150331_121408.csv
Method:,Column 1,,
Host Date-Time:,31/3/15 @ 12:14:8,,
Header Version:,1,,
System Temp (C):,33.78,,
Detector Temp (C):,34.6,,
Humidity (%):,1.95,,
Lamp PD:,3819,,
Shift Vector Coefficients:,-10.5391,0.0761263,-0.000134223,,
Pixel to Wavelength Coefficients:,1775.68,-0.916766,-0.000235065,,
Serial Number:,5510004,,
Scan Config Name:,Column 1,,
Scan Config Type:,Slew,,
Section 1,,
Start wavelength (nm):,900,,
End wavelength (nm):,1700,,
Pattern Pixel Width (nm):,   7.03,,,,
Exposure (ms):,  0.635,,,,
Digital Resolution:,228,,
Num Repeats:,6,,
PGA Gain:,64,,
Total Measurement Time in sec:,  2.725,,
Wavelength (nm),Absorbance (AU),Reference Signal (unitless),Sample Signal (unitless)
901.51,0.072541,108485,91797
905.376,0.077999,121306,101364
909.237,0.079387,131909,109872
913.095,0.080288,143299,119112
916.948,0.083339,156982,129572
922.079,0.083283,179937,148538
925.923,0.085110,200504,164821
929.762,0.084430,222660,183321
933.597,0.084917,244426,201016
937.427,0.084147,263972,217476
941.254,0.082869,281845,232885
945.076,0.081655,297271,246319
950.165,0.081060,315605,261869
953.978,0.080664,328029,272426
957.786,0.080521,340470,282851
961.59,0.080791,352317,292511
965.389,0.081336,363056,301049
969.185,0.081059,373162,309627
972.976,0.080938,382632,317573
976.763,0.082434,391202,323569
981.806,0.082158,400190,331214
985.583,0.082876,406088,335540
989.355,0.083410,410162,338490
993.124,0.083782,412868,340431
996.888,0.084323,414263,341156
1000.65,0.085410,415476,341300
1004.4,0.086062,415479,340790
1009.41,0.087341,414358,338871
1013.15,0.087312,412923,337720
1016.89,0.088425,411526,335716
1020.63,0.088225,409066,333863
1024.36,0.088016,406777,332155
1028.09,0.088095,404427,330176
1031.82,0.087416,401911,328635
1036.78,0.086998,398410,326086
1040.49,0.087237,396204,324102
1044.2,0.087317,394236,322433
1047.91,0.086887,392042,320956
1051.61,0.085937,389823,319838
1055.31,0.085913,388234,318552
1059,0.085856,387599,318073
1063.92,0.084802,386688,318096
1067.61,0.084321,386598,318375
1071.29,0.084315,387377,319021
1074.96,0.083895,388536,320285
1078.63,0.082995,389855,322039
1082.3,0.081948,391215,323942
1085.96,0.081215,393215,326148
1090.84,0.080725,396270,329053
1094.49,0.080270,398760,331468
1098.14,0.079621,400987,333818
1101.79,0.080006,403477,335593
1105.43,0.078708,406116,338799
1109.06,0.078063,407701,340627
1112.7,0.078003,409859,342477
1117.53,0.077094,412494,345401
1121.15,0.078400,414909,346380
1124.77,0.077793,416559,348244
1128.38,0.078895,418532,349007
1131.99,0.080421,419956,348966
1135.6,0.082015,421946,349335
1139.2,0.082941,423881,350189
1143.99,0.084880,426786,351019
1147.58,0.085428,428617,352080
1151.17,0.087072,431169,352838
1154.75,0.088328,433579,353786
1158.33,0.089618,436264,354921
1161.91,0.091697,439132,355548
1165.48,0.093658,442389,356571
1169.04,0.095172,446101,358312
1173.79,0.098897,451929,359893
1177.34,0.100665,456026,361680
1180.9,0.102689,461306,364167
1184.44,0.104938,467657,367273
1187.99,0.105207,473969,372000
1191.52,0.105623,479856,376260
1195.06,0.105353,487372,382391
1199.76,0.104802,497347,390713
1203.29,0.103995,504311,396920
1206.81,0.103181,511507,403339
1210.33,0.103071,519078,409413
1213.84,0.102637,527163,416206
1217.35,0.101797,534208,422584
1220.85,0.101301,540472,428028
1225.51,0.100791,549929,436029
1229.01,0.100337,556888,442009
1232.5,0.099695,562180,446869
1235.98,0.098779,567975,452429
1239.46,0.097873,574815,458834
1242.94,0.096952,582782,466181
1246.41,0.096643,591476,473472
1251.03,0.096247,604016,483951
1254.5,0.096418,612289,490387
1257.96,0.097037,619125,495155
1261.41,0.097208,624551,499298
1264.86,0.097856,629900,502824
1268.31,0.098282,634345,505875
1271.75,0.098937,638574,508481
1276.33,0.099119,642499,511392
1279.76,0.099133,645905,514086
1283.19,0.098620,648307,516608
1286.61,0.098211,650446,518800
1290.03,0.097897,652132,520521
1293.44,0.097567,653907,522335
1296.85,0.097151,655963,524479
1301.39,0.096868,657349,525930
1304.8,0.097019,657558,525915
1308.19,0.097388,658515,526233
1311.58,0.097550,658804,526267
1314.97,0.098013,659011,525871
1318.36,0.098679,658272,524477
1321.73,0.098828,658022,524098
1326.23,0.099868,657870,522723
1329.6,0.100726,656482,520591
1332.97,0.102243,654926,517546
1336.33,0.102949,653727,515760
1339.69,0.104807,652497,512592
1343.04,0.106396,649913,508697
1346.39,0.108362,647671,504653
1349.73,0.110323,645338,500569
1354.18,0.113272,641175,493975
1357.52,0.115117,638376,489733
1360.85,0.117366,635805,485241
1364.17,0.119211,633413,481367
1367.49,0.121451,631026,477086
1370.81,0.123795,628050,472280
1374.12,0.126402,625034,467199
1378.54,0.129609,620272,460228
1381.84,0.132702,616892,454472
1385.14,0.136618,613613,447999
1388.43,0.140698,611526,442300
1391.72,0.146099,610663,436217
1395.01,0.150475,610634,431823
1398.29,0.156059,611700,427051
1402.66,0.163575,614051,421337
1405.93,0.168844,616268,417759
1409.2,0.175110,617795,412795
1412.46,0.179588,618872,409273
1415.72,0.185026,619795,404783
1418.98,0.188719,620495,401809
1422.23,0.192638,621087,398579
1426.56,0.197097,621375,394691
1429.8,0.199902,621616,392302
1433.04,0.202944,622129,389885
1436.27,0.205006,621526,387662
1439.5,0.206285,621113,386265
1442.72,0.208820,620921,383898
1445.94,0.211000,620270,381576
1450.23,0.215250,618860,377001
1453.44,0.216989,617697,374789
1456.64,0.220116,616264,371237
1459.85,0.222644,614413,367973
1463.04,0.224873,612307,364835
1466.24,0.228073,610032,360811
1469.43,0.231181,607345,356660
1473.67,0.236264,603789,350446
1476.85,0.240857,601175,345258
1480.02,0.245730,597737,339453
1483.19,0.251621,594479,333055
1486.36,0.256384,591232,327623
1489.52,0.259749,587853,323236
1492.68,0.263159,583875,318538
1496.89,0.265398,578062,313745
1500.03,0.265499,574159,311554
1503.18,0.265099,570285,309737
1506.32,0.264122,565444,307799
1509.45,0.263483,560571,305596
1512.58,0.262116,555821,303962
1515.71,0.259529,550344,302765
1519.87,0.256350,543983,301464
1522.99,0.254361,538764,299942
1526.1,0.252140,533692,298642
1529.21,0.249122,527902,297462
1532.32,0.246007,521886,296189
1535.42,0.243699,515888,294345
1538.51,0.240210,509987,293325
1541.6,0.237551,503936,291625
1545.72,0.233670,494694,288846
1548.8,0.231669,488378,286475
1551.88,0.228877,481832,284458
1554.95,0.226564,474989,281916
1558.02,0.225362,467818,278429
1561.08,0.223459,460730,275415
1564.15,0.223172,454170,271673
1568.22,0.222080,444181,266367
1571.27,0.221697,436947,262260
1574.32,0.219405,429598,259213
1577.36,0.218309,422039,255296
1580.4,0.217227,414375,251285
1583.43,0.216352,406354,246918
1586.46,0.214491,398475,243170
1590.49,0.212057,388982,238711
1593.51,0.211072,380708,234164
1596.53,0.208473,372727,230631
1599.54,0.206424,365060,226955
1602.55,0.204228,357543,223409
1605.55,0.202206,349495,219399
1608.55,0.201173,341154,214673
1612.54,0.198775,330877,209359
1615.53,0.197604,322904,204866
1618.51,0.194398,315116,201406
1621.49,0.193860,307217,196601
1624.47,0.193405,299481,191851
1627.44,0.192398,292112,187565
1630.41,0.191211,284245,183013
1634.36,0.188971,274079,177380
1637.32,0.189211,266916,172649
1640.27,0.189010,259612,168002
1643.22,0.186338,251804,163955
1646.16,0.186530,244348,159030
1649.1,0.186598,236703,154030
1652.04,0.185345,228171,148907
1655.95,0.180701,215408,142089
1658.88,0.177813,204937,136084
1661.8,0.173217,193395,129786
1664.72,0.165984,179728,122640
1667.63,0.152721,163642,115126
1670.54,0.138322,146312,106404
1673.44,0.122100,128451,96970
1677.31,0.104004,105080,82702
1680.21,0.094437,88906,71531
1683.1,0.089616,75033,61043
1685.99,0.094915,63520,51050
1688.87,0.089387,53714,43722
1691.75,0.093952,45653,36772
1694.62,0.100960,39137,31019
1697.49,0.105051,33776,26519
1701.31,0.111168,28175,21812

File: Column 1_050580_20150331_121414.csv
Method:,Column 1,,
Host Date-Time:,31/3/15 @ 12:14:14,,
Header Version:,1,,
System Temp (C):,33.77,,
Detector Temp (C):,34.57,,
Humidity (%):,1.95,,
Lamp PD:,3819,,
Shift Vector Coefficients:,-10.5391,0.0761263,-0.000134223,,
Pixel to Wavelength Coefficients:,1775.68,-0.916766,-0.000235065,,
Serial Number:,5510004,,
Scan Config Name:,Column 1,,
Scan Config Type:,Slew,,
Section 1,,
Start wavelength (nm):,900,,
End wavelength (nm):,1700,,
Pattern Pixel Width (nm):,   7.03,,,,
Exposure (ms):,  0.635,,,,
Digital Resolution:,228,,
Num Repeats:,6,,
PGA Gain:,64,,
Total Measurement Time in sec:,  2.675,,
Wavelength (nm),Absorbance (AU),Reference Signal (unitless),Sample Signal (unitless)
901.51,0.071299,108485,92060
905.376,0.077378,121306,101509
909.237,0.078751,131909,110033
913.095,0.078770,143299,119529
916.948,0.081790,156982,130035
922.079,0.082132,179937,148932
925.923,0.083882,200504,165288
929.762,0.083703,222660,183628
933.597,0.084280,244426,201311
937.427,0.082771,263972,218166
941.254,0.082861,281845,232889
945.076,0.081071,297271,246650
950.165,0.080602,315605,262145
953.978,0.081404,328029,271962
957.786,0.079694,340470,283390
961.59,0.080793,352317,292510
965.389,0.080524,363056,301613
969.185,0.080830,373162,309790
972.976,0.081057,382632,317486
976.763,0.081330,391202,324393
981.806,0.082278,400190,331122
985.583,0.082424,406088,335889
989.355,0.082933,410162,338862
993.124,0.083998,412868,340262
996.888,0.084378,414263,341113
1000.65,0.084672,415476,341880
1004.4,0.085623,415479,341135
1009.41,0.086698,414358,339373
1013.15,0.087943,412923,337230
1016.89,0.088308,411526,335807
1020.63,0.088373,409066,333749
1024.36,0.088203,406777,332012
1028.09,0.087599,404427,330553
1031.82,0.087829,401911,328323
1036.78,0.087086,398410,326020
1040.49,0.086842,396204,324397
1044.2,0.086928,394236,322722
1047.91,0.086905,392042,320943
1051.61,0.085841,389823,319909
1055.31,0.086411,388234,318187
1059,0.085751,387599,318150
1063.92,0.084538,386688,318290
1067.61,0.084068,386598,318560
1071.29,0.083852,387377,319361
1074.96,0.083354,388536,320684
1078.63,0.082609,389855,322325
1082.3,0.082072,391215,323850
1085.96,0.081587,393215,325869
1090.84,0.080460,396270,329254
1094.49,0.079809,398760,331820
1098.14,0.079571,400987,333856
1101.79,0.078927,403477,336428
1105.43,0.078634,406116,338857
1109.06,0.077589,407701,340999
1112.7,0.077287,409859,343042
1117.53,0.077146,412494,345360
1121.15,0.078217,414909,346526
1124.77,0.078205,416559,347914
1128.38,0.078844,418532,349048
1131.99,0.080082,419956,349238
1135.6,0.081276,421946,349930
1139.2,0.082531,423881,350520
1143.99,0.084661,426786,351196
1147.58,0.086134,428617,351508
1151.17,0.086658,431169,353175
1154.75,0.087725,433579,354277
1158.33,0.089636,436264,354906
1161.91,0.090811,439132,356274
1165.48,0.093281,442389,356881
1169.04,0.095409,446101,358116
1173.79,0.098934,451929,359862
1177.34,0.100419,456026,361885
1180.9,0.102717,461306,364143
1184.44,0.104457,467657,367680
1187.99,0.105349,473969,371878
1191.52,0.105624,479856,376259
1195.06,0.105152,487372,382568
1199.76,0.104885,497347,390638
1203.29,0.103649,504311,397237
1206.81,0.103748,511507,402813
1210.33,0.102735,519078,409730
1213.84,0.102166,527163,416657
1217.35,0.101525,534208,422849
1220.85,0.101002,540472,428323
1225.51,0.100470,549929,436352
1229.01,0.099951,556888,442402
1232.5,0.099223,562180,447355
1235.98,0.098096,567975,453141
1239.46,0.097765,574815,458948
1242.94,0.096949,582782,466184
1246.41,0.096304,591476,473841
1251.03,0.096233,604016,483967
1254.5,0.096591,612289,490191
1257.96,0.096671,619125,495573
1261.41,0.097042,624551,499489
1264.86,0.097660,629900,503050
1268.31,0.098172,634345,506004
1271.75,0.098955,638574,508459
1276.33,0.099125,642499,511384
1279.76,0.099212,645905,513992
1283.19,0.098472,648307,516783
1286.61,0.098074,650446,518964
1290.03,0.097735,652132,520715
1293.44,0.097092,653907,522906
1296.85,0.097297,655963,524303
1301.39,0.097014,657349,525753
1304.8,0.097172,657558,525729
1308.19,0.097184,658515,526480
1311.58,0.097247,658804,526635
1314.97,0.098176,659011,525674
1318.36,0.098268,658272,524973
1321.73,0.098675,658022,524283
1326.23,0.100131,657870,522407
1329.6,0.100457,656482,520914
1332.97,0.102221,654926,517572
1336.33,0.102471,653727,516328
1339.69,0.104463,652497,512998
1343.04,0.106204,649913,508922
1346.39,0.108204,647671,504836
1349.73,0.110012,645338,500928
1354.18,0.113031,641175,494249
1357.52,0.115339,638376,489483
1360.85,0.117342,635805,485268
1364.17,0.119638,633413,480894
1367.49,0.121463,631026,477072
1370.81,0.123399,628050,472711
1374.12,0.126241,625034,467372
1378.54,0.129517,620272,460326
1381.84,0.132638,616892,454539
1385.14,0.136125,613613,448507
1388.43,0.140691,611526,442307
1391.72,0.145176,610663,437145
1395.01,0.150497,610634,431801
1398.29,0.155962,611700,427146
1402.66,0.162711,614051,422176
1405.93,0.168843,616268,417760
1409.2,0.174480,617795,413394
1412.46,0.179508,618872,409348
1415.72,0.184466,619795,405305
1418.98,0.188414,620495,402091
1422.23,0.192403,621087,398795
1426.56,0.196512,621375,395223
1429.8,0.199670,621616,392511
1433.04,0.202472,622129,390309
1436.27,0.204267,621526,388322
1439.5,0.206574,621113,386008
1442.72,0.208497,620921,384184
1445.94,0.211011,620270,381566
1450.23,0.214395,618860,377744
1453.44,0.216962,617697,374812
1456.64,0.219667,616264,371621
1459.85,0.221295,614413,369118
1463.04,0.224683,612307,364994
1466.24,0.227937,610032,360924
1469.43,0.230790,607345,356981
1473.67,0.235619,603789,350967
1476.85,0.240490,601175,345550
1480.02,0.245477,597737,339651
1483.19,0.251054,594479,333490
1486.36,0.255930,591232,327965
1489.52,0.260088,587853,322984
1492.68,0.263269,583875,318457
1496.89,0.264605,578062,314318
1500.03,0.265028,574159,311892
1503.18,0.264614,570285,310083
1506.32,0.263814,565444,308018
1509.45,0.263304,560571,305722
1512.58,0.261893,555821,304118
1515.71,0.259131,550344,303042
1519.87,0.256742,543983,301192
1522.99,0.254467,538764,299869
1526.1,0.251670,533692,298965
1529.21,0.249017,527902,297534
1532.32,0.246095,521886,296129
1535.42,0.242981,515888,294832
1538.51,0.240779,509987,292941
1541.6,0.237636,503936,291568
1545.72,0.233756,494694,288789
1548.8,0.231082,488378,286863
1551.88,0.228568,481832,284661
1554.95,0.226829,474989,281744
1558.02,0.224684,467818,278864
1561.08,0.223503,460730,275387
1564.15,0.222247,454170,272252
1568.22,0.221548,444181,266693
1571.27,0.221078,436947,262634
1574.32,0.219680,429598,259049
1577.36,0.218241,422039,255336
1580.4,0.216856,414375,251500
1583.43,0.215298,406354,247518
1586.46,0.214916,398475,242932
1590.49,0.212001,388982,238742
1593.51,0.210229,380708,234619
1596.53,0.208581,372727,230574
1599.54,0.205935,365060,227211
1602.55,0.204298,357543,223373
1605.55,0.202175,349495,219415
1608.55,0.200565,341154,214974
1612.54,0.198282,330877,209597
1615.53,0.196558,322904,205360
1618.51,0.195491,315116,200900
1621.49,0.194012,307217,196532
1624.47,0.193555,299481,191785
1627.44,0.192900,292112,187348
1630.41,0.190400,284245,183355
1634.36,0.190293,274079,176841
1637.32,0.188047,266916,173112
1640.27,0.188814,259612,168078
1643.22,0.187091,251804,163671
1646.16,0.186836,244348,158918
1649.1,0.185644,236703,154369
1652.04,0.184224,228171,149292
1655.95,0.181690,215408,141766
1658.88,0.178631,204937,135828
1661.8,0.171754,193395,130224
1664.72,0.164291,179728,123119
1667.63,0.151971,163642,115325
1670.54,0.138159,146312,106444
1673.44,0.122656,128451,96846
1677.31,0.104451,105080,82617
1680.21,0.094759,88906,71478
1683.1,0.089837,75033,61012
1685.99,0.089025,63520,51747
1688.87,0.092538,53714,43406
1691.75,0.097105,45653,36506
1694.62,0.102474,39137,30911
1697.49,0.114705,33776,25936
1701.31,0.118477,28175,21448