Folder: textile_sorting_NIRSCAN_/samples/wool/wool-000811 (part 162)

File: Column 1_050620_20150331_123317.csv
Method:,Column 1,,
Host Date-Time:,31/3/15 @ 12:33:17,,
Header Version:,1,,
System Temp (C):,34.13,,
Detector Temp (C):,35.01,,
Humidity (%):,1.61,,
Lamp PD:,3818,,
Shift Vector Coefficients:,-10.5391,0.0761263,-0.000134223,,
Pixel to Wavelength Coefficients:,1775.68,-0.916766,-0.000235065,,
Serial Number:,5510004,,
Scan Config Name:,Column 1,,
Scan Config Type:,Slew,,
Section 1,,
Start wavelength (nm):,900,,
End wavelength (nm):,1700,,
Pattern Pixel Width (nm):,   7.03,,,,
Exposure (ms):,  0.635,,,,
Digital Resolution:,228,,
Num Repeats:,6,,
PGA Gain:,64,,
Total Measurement Time in sec:,  2.671,,
Wavelength (nm),Absorbance (AU),Reference Signal (unitless),Sample Signal (unitless)
901.51,0.068473,108485,92661
905.376,0.074661,121306,102146
909.237,0.078661,131909,110056
913.095,0.076599,143299,120128
916.948,0.079887,156982,130606
922.079,0.079846,179937,149718
925.923,0.081683,200504,166127
929.762,0.083226,222660,183830
933.597,0.082079,244426,202334
937.427,0.080787,263972,219165
941.254,0.080707,281845,234047
945.076,0.079411,297271,247595
950.165,0.077739,315605,263879
953.978,0.077460,328029,274443
957.786,0.077734,340470,284672
961.59,0.077988,352317,294405
965.389,0.077369,363056,303812
969.185,0.077977,373162,311832
972.976,0.078222,382632,319565
976.763,0.078555,391202,326472
981.806,0.079032,400190,333606
985.583,0.080150,406088,337653
989.355,0.079553,410162,341509
993.124,0.079981,412868,343424
996.888,0.080988,414263,343786
1000.65,0.081190,415476,344632
1004.4,0.083132,415479,343097
1009.41,0.084330,414358,341229
1013.15,0.084294,412923,340075
1016.89,0.084751,411526,338568
1020.63,0.084475,409066,336758
1024.36,0.084733,406777,334675
1028.09,0.084232,404427,333126
1031.82,0.084239,401911,331048
1036.78,0.083872,398410,328442
1040.49,0.084121,396204,326436
1044.2,0.083339,394236,325400
1047.91,0.083642,392042,323363
1051.61,0.082591,389823,322312
1055.31,0.082727,388234,320898
1059,0.082055,387599,320869
1063.92,0.081451,386688,320560
1067.61,0.080761,386598,320995
1071.29,0.080345,387377,321950
1074.96,0.079576,388536,323486
1078.63,0.078530,389855,325367
1082.3,0.077877,391215,326993
1085.96,0.077263,393215,329130
1090.84,0.076356,396270,332380
1094.49,0.075721,398760,334958
1098.14,0.075466,400987,337027
1101.79,0.074592,403477,339803
1105.43,0.074879,406116,341799
1109.06,0.073576,407701,344164
1112.7,0.073637,409859,345937
1117.53,0.072979,412494,348689
1121.15,0.073793,414909,350074
1124.77,0.073225,416559,351926
1128.38,0.074851,418532,352272
1131.99,0.075963,419956,352566
1135.6,0.076985,421946,353404
1139.2,0.078737,423881,353596
1143.99,0.080078,426786,354921
1147.58,0.081341,428617,355409
1151.17,0.081906,431169,357060
1154.75,0.082672,433579,358423
1158.33,0.084512,436264,359118
1161.91,0.086320,439132,359977
1165.48,0.088415,442389,360902
1169.04,0.090288,446101,362364
1173.79,0.093326,451929,364539
1177.34,0.095820,456026,365738
1180.9,0.098262,461306,367898
1184.44,0.100172,467657,371326
1187.99,0.101029,473969,375596
1191.52,0.101013,479856,380275
1195.06,0.100593,487372,386605
1199.76,0.099747,497347,395287
1203.29,0.099293,504311,401241
1206.81,0.098793,511507,407435
1210.33,0.098500,519078,413745
1213.84,0.097170,527163,421478
1217.35,0.097438,534208,426847
1220.85,0.096522,540472,432764
1225.51,0.096545,549929,440313
1229.01,0.095523,556888,446935
1232.5,0.094264,562180,452492
1235.98,0.093872,567975,457570
1239.46,0.092670,574815,464363
1242.94,0.091665,582782,471890
1246.41,0.091197,591476,479447
1251.03,0.091567,604016,489194
1254.5,0.091590,612289,495868
1257.96,0.091934,619125,501008
1261.41,0.092429,624551,504823
1264.86,0.092782,629900,508733
1268.31,0.093394,634345,511601
1271.75,0.094517,638574,513682
1276.33,0.093876,642499,517603
1279.76,0.094046,645905,520143
1283.19,0.093792,648307,522383
1286.61,0.093255,650446,524754
1290.03,0.093017,652132,526403
1293.44,0.092559,653907,528393
1296.85,0.092124,655963,530585
1301.39,0.091879,657349,532006
1304.8,0.092059,657558,531955
1308.19,0.091569,658515,533331
1311.58,0.092165,658804,532833
1314.97,0.092576,659011,532496
1318.36,0.092967,658272,531421
1321.73,0.092906,658022,531294
1326.23,0.093881,657870,529980
1329.6,0.094747,656482,527808
1332.97,0.095174,654926,526039
1336.33,0.096331,653727,523679
1339.69,0.098154,652497,520505
1343.04,0.098828,649913,517639
1346.39,0.101053,647671,513217
1349.73,0.102840,645338,509269
1354.18,0.105676,641175,502690
1357.52,0.108095,638376,497716
1360.85,0.109595,635805,494002
1364.17,0.111505,633413,489984
1367.49,0.113904,631026,485449
1370.81,0.116478,628050,480304
1374.12,0.118295,625034,476002
1378.54,0.120482,620272,470002
1381.84,0.124006,616892,463664
1385.14,0.126680,613613,458368
1388.43,0.130160,611526,453163
1391.72,0.134538,610663,447985
1395.01,0.138038,610634,444368
1398.29,0.142206,611700,440892
1402.66,0.148033,614051,436688
1405.93,0.153021,616268,433260
1409.2,0.157299,617795,430076
1412.46,0.161959,618872,426228
1415.72,0.165650,619795,423251
1418.98,0.168940,620495,420531
1422.23,0.171904,621087,418069
1426.56,0.175390,621375,414919
1429.8,0.178494,621616,412124
1433.04,0.181078,622129,410018
1436.27,0.183143,621526,407677
1439.5,0.184704,621113,405944
1442.72,0.187209,620921,403485
1445.94,0.189850,620270,400618
1450.23,0.193351,618860,396498
1453.44,0.196014,617697,393334
1456.64,0.199021,616264,389714
1459.85,0.202220,614413,385692
1463.04,0.204717,612307,382166
1466.24,0.208708,610032,377263
1469.43,0.212285,607345,372521
1473.67,0.218574,603789,365015
1476.85,0.224418,601175,358577
1480.02,0.230466,597737,351596
1483.19,0.237828,594479,343802
1486.36,0.243413,591232,337555
1489.52,0.248657,587853,331598
1492.68,0.251744,583875,327021
1496.89,0.253821,578062,322221
1500.03,0.254769,574159,319347
1503.18,0.254481,570285,317403
1506.32,0.254356,565444,314799
1509.45,0.252108,560571,313706
1512.58,0.250711,555821,312050
1515.71,0.248641,550344,310451
1519.87,0.245736,543983,308922
1522.99,0.242718,538764,308092
1526.1,0.240442,533692,306795
1529.21,0.237239,527902,305713
1532.32,0.234658,521886,304031
1535.42,0.231291,515888,302876
1538.51,0.228625,509987,301255
1541.6,0.226179,503936,299362
1545.72,0.222053,494694,296677
1548.8,0.218426,488378,295345
1551.88,0.216890,481832,292419
1554.95,0.214245,474989,290027
1558.02,0.213526,467818,286122
1561.08,0.211701,460730,282973
1564.15,0.212013,454170,278744
1568.22,0.210206,444181,273750
1571.27,0.210071,436947,269375
1574.32,0.208906,429598,265556
1577.36,0.207574,422039,261685
1580.4,0.207057,414375,257239
1583.43,0.204987,406354,253465
1586.46,0.203214,398475,249567
1590.49,0.201320,388982,244686
1593.51,0.200457,380708,239958
1596.53,0.198199,372727,236152
1599.54,0.195562,365060,232703
1602.55,0.194879,357543,228270
1605.55,0.192569,349495,224322
1608.55,0.189812,341154,220363
1612.54,0.188189,330877,214525
1615.53,0.187119,322904,209872
1618.51,0.186316,315116,205189
1621.49,0.185567,307217,200391
1624.47,0.184244,299481,195941
1627.44,0.183020,292112,191659
1630.41,0.182077,284245,186903
1634.36,0.180226,274079,180988
1637.32,0.178374,266916,177011
1640.27,0.179603,259612,171681
1643.22,0.177748,251804,167230
1646.16,0.177738,244348,162282
1649.1,0.176295,236703,157728
1652.04,0.175347,228171,152375
1655.95,0.170966,215408,145310
1658.88,0.168646,204937,138987
1661.8,0.165188,193395,132208
1664.72,0.156436,179728,125366
1667.63,0.143329,163642,117643
1670.54,0.128655,146312,108799
1673.44,0.112274,128451,99189
1677.31,0.090067,105080,85399
1680.21,0.080857,88906,73803
1683.1,0.073341,75033,63374
1685.99,0.072977,63520,53695
1688.87,0.074517,53714,45245
1691.75,0.080155,45653,37959
1694.62,0.080651,39137,32504
1697.49,0.090240,33776,27439
1701.31,0.100334,28175,22363

File: Column 1_050620_20150331_123320.csv
Method:,Column 1,,
Host Date-Time:,31/3/15 @ 12:33:20,,
Header Version:,1,,
System Temp (C):,34.12,,
Detector Temp (C):,35.01,,
Humidity (%):,1.56,,
Lamp PD:,3818,,
Shift Vector Coefficients:,-10.5391,0.0761263,-0.000134223,,
Pixel to Wavelength Coefficients:,1775.68,-0.916766,-0.000235065,,
Serial Number:,5510004,,
Scan Config Name:,Column 1,,
Scan Config Type:,Slew,,
Section 1,,
Start wavelength (nm):,900,,
End wavelength (nm):,1700,,
Pattern Pixel Width (nm):,   7.03,,,,
Exposure (ms):,  0.635,,,,
Digital Resolution:,228,,
Num Repeats:,6,,
PGA Gain:,64,,
Total Measurement Time in sec:,  2.672,,
Wavelength (nm),Absorbance (AU),Reference Signal (unitless),Sample Signal (unitless)
901.51,0.067747,108485,92816
905.376,0.074669,121306,102144
909.237,0.076578,131909,110585
913.095,0.079785,143299,119250
916.948,0.078370,156982,131063
922.079,0.080578,179937,149466
925.923,0.082080,200504,165975
929.762,0.082975,222660,183936
933.597,0.082154,244426,202299
937.427,0.081054,263972,219030
941.254,0.080043,281845,234405
945.076,0.079895,297271,247319
950.165,0.078045,315605,263693
953.978,0.077166,328029,274629
957.786,0.078125,340470,284416
961.59,0.077904,352317,294462
965.389,0.077649,363056,303616
969.185,0.078087,373162,311753
972.976,0.077691,382632,319956
976.763,0.078632,391202,326414
981.806,0.078838,400190,333755
985.583,0.079335,406088,338287
989.355,0.079940,410162,341205
993.124,0.080196,412868,343254
996.888,0.080910,414263,343848
1000.65,0.081884,415476,344082
1004.4,0.082702,415479,343437
1009.41,0.084140,414358,341378
1013.15,0.084458,412923,339947
1016.89,0.084754,411526,338566
1020.63,0.084341,409066,336862
1024.36,0.085398,406777,334163
1028.09,0.084661,404427,332797
1031.82,0.084579,401911,330789
1036.78,0.083653,398410,328607
1040.49,0.084009,396204,326520
1044.2,0.083516,394236,325267
1047.91,0.083363,392042,323571
1051.61,0.083229,389823,321839
1055.31,0.083043,388234,320664
1059,0.082378,387599,320630
1063.92,0.081110,386688,320812
1067.61,0.080744,386598,321008
1071.29,0.080324,387377,321966
1074.96,0.079674,388536,323413
1078.63,0.078847,389855,325129
1082.3,0.078273,391215,326695
1085.96,0.077941,393215,328616
1090.84,0.076646,396270,332158
1094.49,0.076823,398760,334109
1098.14,0.075837,400987,336739
1101.79,0.074892,403477,339568
1105.43,0.074712,406116,341931
1109.06,0.074229,407701,343647
1112.7,0.073605,409859,345963
1117.53,0.073629,412494,348168
1121.15,0.073725,414909,350129
1124.77,0.074221,416559,351120
1128.38,0.075345,418532,351871
1131.99,0.075583,419956,352875
1135.6,0.077840,421946,352709
1139.2,0.079033,423881,353355
1143.99,0.080475,426786,354597
1147.58,0.081400,428617,355361
1151.17,0.082007,431169,356977
1154.75,0.082978,433579,358171
1158.33,0.084441,436264,359177
1161.91,0.085830,439132,360384
1165.48,0.088161,442389,361113
1169.04,0.090746,446101,361982
1173.79,0.093777,451929,364161
1177.34,0.096008,456026,365579
1180.9,0.097875,461306,368226
1184.44,0.099990,467657,371482
1187.99,0.101137,473969,375503
1191.52,0.100712,479856,380539
1195.06,0.100373,487372,386801
1199.76,0.100518,497347,394586
1203.29,0.099313,504311,401223
1206.81,0.098654,511507,407566
1210.33,0.098161,519078,414068
1213.84,0.098136,527163,420542
1217.35,0.097051,534208,427228
1220.85,0.096674,540472,432613
1225.51,0.095794,549929,441075
1229.01,0.095147,556888,447323
1232.5,0.094569,562180,452175
1235.98,0.093797,567975,457649
1239.46,0.093350,574815,463637
1242.94,0.092176,582782,471335
1246.41,0.091301,591476,479332
1251.03,0.091646,604016,489105
1254.5,0.091556,612289,495907
1257.96,0.091918,619125,501026
1261.41,0.092576,624551,504652
1264.86,0.093034,629900,508438
1268.31,0.093694,634345,511248
1271.75,0.094255,638574,513992
1276.33,0.094287,642499,517113
1279.76,0.094138,645905,520033
1283.19,0.093926,648307,522221
1286.61,0.093880,650446,524000
1290.03,0.093067,652132,526342
1293.44,0.092669,653907,528259
1296.85,0.092168,655963,530532
1301.39,0.092159,657349,531664
1304.8,0.092113,657558,531889
1308.19,0.092086,658515,532696
1311.58,0.092278,658804,532695
1314.97,0.092253,659011,532893
1318.36,0.092774,658272,531657
1321.73,0.093476,658022,530597
1326.23,0.094018,657870,529812
1329.6,0.094744,656482,527812
1332.97,0.095391,654926,525776
1336.33,0.096172,653727,523871
1339.69,0.097988,652497,520704
1343.04,0.099544,649913,516787
1346.39,0.101306,647671,512919
1349.73,0.103305,645338,508724
1354.18,0.105949,641175,502374
1357.52,0.108270,638376,497515
1360.85,0.109661,635805,493927
1364.17,0.112174,633413,489230
1367.49,0.113940,631026,485408
1370.81,0.116001,628050,480832
1374.12,0.118274,625034,476025
1378.54,0.121119,620272,469314
1381.84,0.124249,616892,463404
1385.14,0.127368,613613,457643
1388.43,0.130264,611526,453055
1391.72,0.134497,610663,448027
1395.01,0.138077,610634,444328
1398.29,0.142637,611700,440455
1402.66,0.148165,614051,436555
1405.93,0.152771,616268,433509
1409.2,0.157506,617795,429871
1412.46,0.161570,618872,426610
1415.72,0.165695,619795,423207
1418.98,0.169038,620495,420436
1422.23,0.172325,621087,417664
1426.56,0.176297,621375,414054
1429.8,0.178286,621616,412322
1433.04,0.181357,622129,409754
1436.27,0.183332,621526,407500
1439.5,0.185237,621113,405447
1442.72,0.187577,620921,403143
1445.94,0.190073,620270,400413
1450.23,0.193373,618860,396478
1453.44,0.196646,617697,392762
1456.64,0.199168,616264,389582
1459.85,0.202847,614413,385135
1463.04,0.205131,612307,381802
1466.24,0.208753,610032,377224
1469.43,0.212842,607345,372043
1473.67,0.219011,603789,364648
1476.85,0.225134,601175,357987
1480.02,0.230330,597737,351706
1483.19,0.238431,594479,343325
1486.36,0.244173,591232,336965
1489.52,0.248806,587853,331484
1492.68,0.251894,583875,326908
1496.89,0.254553,578062,321678
1500.03,0.254890,574159,319258
1503.18,0.253971,570285,317776
1506.32,0.253883,565444,315142
1509.45,0.252568,560571,313374
1512.58,0.250267,555821,312369
1515.71,0.248533,550344,310528
1519.87,0.245735,543983,308923
1522.99,0.243239,538764,307723
1526.1,0.240665,533692,306638
1529.21,0.237225,527902,305723
1532.32,0.234805,521886,303928
1535.42,0.231516,515888,302719
1538.51,0.229150,509987,300891
1541.6,0.226073,503936,299435
1545.72,0.221475,494694,297072
1548.8,0.219036,488378,294931
1551.88,0.216464,481832,292706
1554.95,0.215139,474989,289431
1558.02,0.213378,467818,286219
1561.08,0.211678,460730,282988
1564.15,0.212462,454170,278456
1568.22,0.210819,444181,273364
1571.27,0.209820,436947,269531
1574.32,0.209544,429598,265166
1577.36,0.208443,422039,261162
1580.4,0.207961,414375,256704
1583.43,0.205257,406354,253307
1586.46,0.203912,398475,249166
1590.49,0.202090,388982,244253
1593.51,0.200482,380708,239944
1596.53,0.199302,372727,235553
1599.54,0.196654,365060,232119
1602.55,0.194564,357543,228436
1605.55,0.191834,349495,224702
1608.55,0.190767,341154,219879
1612.54,0.189352,330877,213951
1615.53,0.187345,322904,209763
1618.51,0.186623,315116,205044
1621.49,0.184738,307217,200774
1624.47,0.184357,299481,195890
1627.44,0.182542,292112,191870
1630.41,0.181035,284245,187352
1634.36,0.180300,274079,180957
1637.32,0.180228,266916,176257
1640.27,0.180038,259612,171509
1643.22,0.179153,251804,166690
1646.16,0.178132,244348,162135
1649.1,0.177887,236703,157151
1652.04,0.175880,228171,152188
1655.95,0.172607,215408,144762
1658.88,0.168631,204937,138992
1661.8,0.163486,193395,132727
1664.72,0.155391,179728,125668
1667.63,0.142694,163642,117815
1670.54,0.127857,146312,108999
1673.44,0.109825,128451,99750
1677.31,0.091509,105080,85116
1680.21,0.077814,88906,74322
1683.1,0.073684,75033,63324
1685.99,0.075158,63520,53426
1688.87,0.078412,53714,44841
1691.75,0.084339,45653,37595
1694.62,0.083694,39137,32277
1697.49,0.097293,33776,26997
1701.31,0.092692,28175,22760

File: Column 1_050621_20150331_123331.csv
Method:,Column 1,,
Host Date-Time:,31/3/15 @ 12:33:31,,
Header Version:,1,,
System Temp (C):,34.15,,
Detector Temp (C):,35.01,,
Humidity (%):,1.56,,
Lamp PD:,3818,,
Shift Vector Coefficients:,-10.5391,0.0761263,-0.000134223,,
Pixel to Wavelength Coefficients:,1775.68,-0.916766,-0.000235065,,
Serial Number:,5510004,,
Scan Config Name:,Column 1,,
Scan Config Type:,Slew,,
Section 1,,
Start wavelength (nm):,900,,
End wavelength (nm):,1700,,
Pattern Pixel Width (nm):,   7.03,,,,
Exposure (ms):,  0.635,,,,
Digital Resolution:,228,,
Num Repeats:,6,,
PGA Gain:,64,,
Total Measurement Time in sec:,  2.675,,
Wavelength (nm),Absorbance (AU),Reference Signal (unitless),Sample Signal (unitless)
901.51,0.068914,108485,92567
905.376,0.076233,121306,101777
909.237,0.077880,131909,110254
913.095,0.078483,143299,119608
916.948,0.079917,156982,130597
922.079,0.080534,179937,149481
925.923,0.082588,200504,165781
929.762,0.081773,222660,184446
933.597,0.083719,244426,201571
937.427,0.081229,263972,218942
941.254,0.080711,281845,234045
945.076,0.079111,297271,247766
950.165,0.078495,315605,263420
953.978,0.077205,328029,274604
957.786,0.077881,340470,284576
961.59,0.078889,352317,293795
965.389,0.077423,363056,303774
969.185,0.077772,373162,311979
972.976,0.077953,382632,319763
976.763,0.078703,391202,326361
981.806,0.079189,400190,333486
985.583,0.079782,406088,337939
989.355,0.079343,410162,341674
993.124,0.080598,412868,342936
996.888,0.080763,414263,343964
1000.65,0.081929,415476,344046
1004.4,0.082519,415479,343582
1009.41,0.083516,414358,341869
1013.15,0.084275,412923,340090
1016.89,0.084768,411526,338555
1020.63,0.084357,409066,336850
1024.36,0.084930,406777,334523
1028.09,0.084515,404427,332909
1031.82,0.083861,401911,331336
1036.78,0.084241,398410,328163
1040.49,0.083574,396204,326847
1044.2,0.083753,394236,325090
1047.91,0.083022,392042,323825
1051.61,0.083233,389823,321836
1055.31,0.083404,388234,320398
1059,0.081994,387599,320914
1063.92,0.081446,386688,320564
1067.61,0.080853,386598,320927
1071.29,0.080151,387377,322094
1074.96,0.079443,388536,323585
1078.63,0.079194,389855,324870
1082.3,0.078567,391215,326474
1085.96,0.077735,393215,328772
1090.84,0.076972,396270,331909
1094.49,0.076402,398760,334433
1098.14,0.075266,400987,337182
1101.79,0.074938,403477,339532
1105.43,0.074506,406116,342093
1109.06,0.074091,407701,343756
1112.7,0.073581,409859,345982
1117.53,0.073468,412494,348297
1121.15,0.073731,414909,350124
1124.77,0.074566,416559,350841
1128.38,0.074772,418532,352336
1131.99,0.075562,419956,352892
1135.6,0.077262,421946,353179
1139.2,0.078675,423881,353646
1143.99,0.080400,426786,354658
1147.58,0.081116,428617,355593
1151.17,0.081842,431169,357113
1154.75,0.083013,433579,358142
1158.33,0.084406,436264,359206
1161.91,0.085995,439132,360247
1165.48,0.088298,442389,360999
1169.04,0.090456,446101,362224
1173.79,0.094114,451929,363878
1177.34,0.096434,456026,365221
1180.9,0.098085,461306,368048
1184.44,0.099655,467657,371768
1187.99,0.101063,473969,375567
1191.52,0.101294,479856,380029
1195.06,0.100757,487372,386459
1199.76,0.100657,497347,394460
1203.29,0.099671,504311,400892
1206.81,0.099060,511507,407185
1210.33,0.098457,519078,413786
1213.84,0.098215,527163,420465
1217.35,0.096770,534208,427504
1220.85,0.096712,540472,432575
1225.51,0.095535,549929,441338
1229.01,0.095427,556888,447034
1232.5,0.094609,562180,452133
1235.98,0.093609,567975,457847
1239.46,0.092846,574815,464175
1242.94,0.092039,582782,471484
1246.41,0.091570,591476,479035
1251.03,0.091423,604016,489357
1254.5,0.091743,612289,495694
1257.96,0.092277,619125,500612
1261.41,0.092589,624551,504637
1264.86,0.093190,629900,508255
1268.31,0.093499,634345,511477
1271.75,0.094311,638574,513925
1276.33,0.094043,642499,517404
1279.76,0.094103,645905,520075
1283.19,0.093735,648307,522451
1286.61,0.093489,650446,524472
1290.03,0.093162,652132,526228
1293.44,0.092520,653907,528440
1296.85,0.092526,655963,530094
1301.39,0.092017,657349,531837
1304.8,0.092074,657558,531937
1308.19,0.092280,658515,532458
1311.58,0.091895,658804,533165
1314.97,0.092593,659011,532475
1318.36,0.092628,658272,531836
1321.73,0.093244,658022,530880
1326.23,0.094409,657870,529335
1329.6,0.094827,656482,527710
1332.97,0.095471,654926,525680
1336.33,0.096651,653727,523294
1339.69,0.097767,652497,520969
1343.04,0.099088,649913,517330
1346.39,0.101265,647671,512967
1349.73,0.103197,645338,508851
1354.18,0.105843,641175,502497
1357.52,0.107628,638376,498252
1360.85,0.109412,635805,494210
1364.17,0.112236,633413,489160
1367.49,0.114287,631026,485021
1370.81,0.116494,628050,480286
1374.12,0.118598,625034,475670
1378.54,0.120923,620272,469526
1381.84,0.124028,616892,463640
1385.14,0.127020,613613,458010
1388.43,0.129947,611526,453386
1391.72,0.134678,610663,447841
1395.01,0.138445,610634,443952
1398.29,0.142631,611700,440461
1402.66,0.148524,614051,436195
1405.93,0.153272,616268,433010
1409.2,0.157678,617795,429701
1412.46,0.161935,618872,426251
1415.72,0.165252,619795,423639
1418.98,0.169127,620495,420350
1422.23,0.172037,621087,417941
1426.56,0.176353,621375,414000
1429.8,0.178610,621616,412014
1433.04,0.180804,622129,410276
1436.27,0.182802,621526,407997
1439.5,0.184741,621113,405910
1442.72,0.187327,620921,403375
1445.94,0.189364,620270,401067
1450.23,0.193656,618860,396220
1453.44,0.196363,617697,393018
1456.64,0.199128,616264,389618
1459.85,0.201799,614413,386066
1463.04,0.204747,612307,382140
1466.24,0.208256,610032,377656
1469.43,0.212211,607345,372584
1473.67,0.218753,603789,364865
1476.85,0.225066,601175,358043
1480.02,0.231248,597737,350964
1483.19,0.237683,594479,343917
1486.36,0.243527,591232,337467
1489.52,0.249051,587853,331297
1492.68,0.251898,583875,326905
1496.89,0.253587,578062,322394
1500.03,0.254613,574159,319462
1503.18,0.254762,570285,317198
1506.32,0.253617,565444,315335
1509.45,0.251968,560571,313807
1512.58,0.251155,555821,311731
1515.71,0.248396,550344,310626
1519.87,0.246073,543983,308683
1522.99,0.243409,538764,307602
1526.1,0.240482,533692,306767
1529.21,0.237346,527902,305638
1532.32,0.235122,521886,303706
1535.42,0.232185,515888,302253
1538.51,0.228255,509987,301512
1541.6,0.225877,503936,299570
1545.72,0.221864,494694,296806
1548.8,0.218869,488378,295044
1551.88,0.217202,481832,292209
1554.95,0.214891,474989,289596
1558.02,0.213186,467818,286346
1561.08,0.211752,460730,282940
1564.15,0.211672,454170,278963
1568.22,0.210666,444181,273460
1571.27,0.209883,436947,269492
1574.32,0.208896,429598,265562
1577.36,0.207572,422039,261686
1580.4,0.206348,414375,257659
1583.43,0.205964,406354,252895
1586.46,0.203961,398475,249138
1590.49,0.201697,388982,244474
1593.51,0.200478,380708,239946
1596.53,0.197894,372727,236318
1599.54,0.196510,365060,232196
1602.55,0.194309,357543,228570
1605.55,0.192279,349495,224472
1608.55,0.190960,341154,219781
1612.54,0.189220,330877,214016
1615.53,0.187815,322904,209536
1618.51,0.186503,315116,205101
1621.49,0.185704,307217,200328
1624.47,0.184690,299481,195740
1627.44,0.182250,292112,191999
1630.41,0.181835,284245,187007
1634.36,0.180080,274079,181049
1637.32,0.180512,266916,176142
1640.27,0.180393,259612,171369
1643.22,0.178466,251804,166954
1646.16,0.178695,244348,161925
1649.1,0.177083,236703,157442
1652.04,0.175506,228171,152319
1655.95,0.172568,215408,144775
1658.88,0.168218,204937,139124
1661.8,0.164121,193395,132533
1664.72,0.155132,179728,125743
1667.63,0.142713,163642,117810
1670.54,0.128515,146312,108834
1673.44,0.112773,128451,99075
1677.31,0.091687,105080,85081
1680.21,0.080034,88906,73943
1683.1,0.074020,75033,63275
1685.99,0.073017,63520,53690
1688.87,0.079421,53714,44737
1691.75,0.082426,45653,37761
1694.62,0.092681,39137,31616
1697.49,0.095238,33776,27125
1701.31,0.098841,28175,22440