Folder: textile_sorting_NIRSCAN_/samples/wool/wool-000811 (part 174)

File: Column 1_050627_20150331_123628.csv
Method:,Column 1,,
Host Date-Time:,31/3/15 @ 12:36:28,,
Header Version:,1,,
System Temp (C):,34.12,,
Detector Temp (C):,35.06,,
Humidity (%):,1.56,,
Lamp PD:,3818,,
Shift Vector Coefficients:,-10.5391,0.0761263,-0.000134223,,
Pixel to Wavelength Coefficients:,1775.68,-0.916766,-0.000235065,,
Serial Number:,5510004,,
Scan Config Name:,Column 1,,
Scan Config Type:,Slew,,
Section 1,,
Start wavelength (nm):,900,,
End wavelength (nm):,1700,,
Pattern Pixel Width (nm):,   7.03,,,,
Exposure (ms):,  0.635,,,,
Digital Resolution:,228,,
Num Repeats:,6,,
PGA Gain:,64,,
Total Measurement Time in sec:,  2.669,,
Wavelength (nm),Absorbance (AU),Reference Signal (unitless),Sample Signal (unitless)
901.51,0.067897,108485,92784
905.376,0.074648,121306,102149
909.237,0.075280,131909,110916
913.095,0.076932,143299,120036
916.948,0.080013,156982,130568
922.079,0.080459,179937,149507
925.923,0.081675,200504,166130
929.762,0.082298,222660,184223
933.597,0.082519,244426,202129
937.427,0.080826,263972,219145
941.254,0.079294,281845,234810
945.076,0.078739,297271,247978
950.165,0.077650,315605,263933
953.978,0.076505,328029,275047
957.786,0.077498,340470,284827
961.59,0.078043,352317,294368
965.389,0.077440,363056,303762
969.185,0.076975,373162,312552
972.976,0.077789,382632,319884
976.763,0.078200,391202,326739
981.806,0.078922,400190,333691
985.583,0.078882,406088,338640
989.355,0.079580,410162,341488
993.124,0.080049,412868,343370
996.888,0.080421,414263,344235
1000.65,0.081384,415476,344478
1004.4,0.082188,415479,343844
1009.41,0.083826,414358,341625
1013.15,0.083535,412923,340670
1016.89,0.084526,411526,338744
1020.63,0.084340,409066,336863
1024.36,0.084782,406777,334637
1028.09,0.083940,404427,333350
1031.82,0.083739,401911,331429
1036.78,0.083334,398410,328849
1040.49,0.083750,396204,326715
1044.2,0.083479,394236,325295
1047.91,0.083278,392042,323634
1051.61,0.082021,389823,322735
1055.31,0.082424,388234,321122
1059,0.081645,387599,321172
1063.92,0.081445,386688,320565
1067.61,0.080738,386598,321012
1071.29,0.079390,387377,322659
1074.96,0.079542,388536,323511
1078.63,0.079024,389855,324997
1082.3,0.077999,391215,326901
1085.96,0.077384,393215,329038
1090.84,0.076298,396270,332425
1094.49,0.075171,398760,335383
1098.14,0.075195,400987,337237
1101.79,0.074460,403477,339906
1105.43,0.074222,406116,342317
1109.06,0.072809,407701,344773
1112.7,0.072910,409859,346517
1117.53,0.073507,412494,348266
1121.15,0.073489,414909,350319
1124.77,0.073455,416559,351740
1128.38,0.074928,418532,352209
1131.99,0.075301,419956,353104
1135.6,0.077010,421946,353384
1139.2,0.078555,423881,353744
1143.99,0.080498,426786,354578
1147.58,0.080561,428617,356048
1151.17,0.082047,431169,356944
1154.75,0.082388,433579,358658
1158.33,0.083612,436264,359863
1161.91,0.085483,439132,360672
1165.48,0.087724,442389,361477
1169.04,0.089638,446101,362907
1173.79,0.093485,451929,364406
1177.34,0.095744,456026,365802
1180.9,0.097861,461306,368238
1184.44,0.099298,467657,372074
1187.99,0.100342,473969,376191
1191.52,0.099955,479856,381203
1195.06,0.100796,487372,386424
1199.76,0.099834,497347,395208
1203.29,0.099152,504311,401371
1206.81,0.098655,511507,407565
1210.33,0.097875,519078,414341
1213.84,0.097234,527163,421416
1217.35,0.096645,534208,427627
1220.85,0.095869,540472,433415
1225.51,0.095051,549929,441830
1229.01,0.094977,556888,447498
1232.5,0.094453,562180,452296
1235.98,0.093724,567975,457726
1239.46,0.092276,574815,464785
1242.94,0.091789,582782,471756
1246.41,0.091014,591476,479649
1251.03,0.090916,604016,489928
1254.5,0.091299,612289,496201
1257.96,0.091671,619125,501311
1261.41,0.091792,624551,505564
1264.86,0.092265,629900,509339
1268.31,0.093212,634345,511816
1271.75,0.093251,638574,515182
1276.33,0.093917,642499,517554
1279.76,0.093851,645905,520376
1283.19,0.093205,648307,523089
1286.61,0.092302,650446,525907
1290.03,0.092674,652132,526819
1293.44,0.092137,653907,528907
1296.85,0.092047,655963,530679
1301.39,0.091509,657349,532460
1304.8,0.091591,657558,532529
1308.19,0.091926,658515,532892
1311.58,0.091565,658804,533570
1314.97,0.091810,659011,533436
1318.36,0.092162,658272,532406
1321.73,0.092956,658022,531232
1326.23,0.093340,657870,530640
1329.6,0.094170,656482,528509
1332.97,0.094866,654926,526412
1336.33,0.096045,653727,524024
1339.69,0.097273,652497,521561
1343.04,0.098425,649913,518120
1346.39,0.100647,647671,513697
1349.73,0.102412,645338,509771
1354.18,0.105333,641175,503087
1357.52,0.107191,638376,498753
1360.85,0.109228,635805,494420
1364.17,0.111407,633413,490095
1367.49,0.113847,631026,485512
1370.81,0.115716,628050,481147
1374.12,0.117989,625034,476337
1378.54,0.120226,620272,470280
1381.84,0.122940,616892,464803
1385.14,0.126693,613613,458355
1388.43,0.129590,611526,453759
1391.72,0.133131,610663,449439
1395.01,0.137647,610634,444768
1398.29,0.141280,611700,441833
1402.66,0.146983,614051,437745
1405.93,0.151942,616268,434338
1409.2,0.155779,617795,431584
1412.46,0.160670,618872,427495
1415.72,0.163839,619795,425020
1418.98,0.167385,620495,422040
1422.23,0.170150,621087,419761
1426.56,0.174563,621375,415710
1429.8,0.176895,621616,413644
1433.04,0.179637,622129,411380
1436.27,0.181671,621526,409061
1439.5,0.183877,621113,406718
1442.72,0.186019,620921,404592
1445.94,0.188403,620270,401955
1450.23,0.192237,618860,397517
1453.44,0.194959,617697,394291
1456.64,0.197649,616264,390947
1459.85,0.201317,614413,386495
1463.04,0.203767,612307,383003
1466.24,0.206813,610032,378913
1469.43,0.211170,607345,373478
1473.67,0.218104,603789,365411
1476.85,0.223108,601175,359661
1480.02,0.229880,597737,352071
1483.19,0.236836,594479,344588
1486.36,0.242537,591232,338237
1489.52,0.247456,587853,332516
1492.68,0.250839,583875,327703
1496.89,0.253196,578062,322685
1500.03,0.253884,574159,319999
1503.18,0.253665,570285,318000
1506.32,0.252534,565444,316123
1509.45,0.251020,560571,314493
1512.58,0.250088,555821,312498
1515.71,0.247657,550344,311155
1519.87,0.244622,543983,309716
1522.99,0.242211,538764,308452
1526.1,0.239465,533692,307486
1529.21,0.237092,527902,305817
1532.32,0.233733,521886,304679
1535.42,0.231349,515888,302835
1538.51,0.227588,509987,301975
1541.6,0.224688,503936,300391
1545.72,0.220993,494694,297402
1548.8,0.218046,488378,295604
1551.88,0.216027,481832,293001
1554.95,0.213328,474989,290640
1558.02,0.212740,467818,286640
1561.08,0.211254,460730,283265
1564.15,0.211228,454170,279248
1568.22,0.209733,444181,274048
1571.27,0.209083,436947,269989
1574.32,0.208413,429598,265858
1577.36,0.207232,422039,261891
1580.4,0.206714,414375,257442
1583.43,0.203589,406354,254282
1586.46,0.203174,398475,249590
1590.49,0.200903,388982,244921
1593.51,0.199529,380708,240471
1596.53,0.196798,372727,236915
1599.54,0.195624,365060,232670
1602.55,0.193099,357543,229208
1605.55,0.191365,349495,224945
1608.55,0.190960,341154,219781
1612.54,0.188316,330877,214462
1615.53,0.185638,322904,210589
1618.51,0.184696,315116,205956
1621.49,0.183923,307217,201151
1624.47,0.183064,299481,196474
1627.44,0.182221,292112,192012
1630.41,0.180215,284245,187706
1634.36,0.179234,274079,181402
1637.32,0.179145,266916,176697
1640.27,0.178870,259612,171971
1643.22,0.176988,251804,167523
1646.16,0.177693,244348,162299
1649.1,0.175154,236703,158143
1652.04,0.173796,228171,152920
1655.95,0.170769,215408,145376
1658.88,0.167230,204937,139441
1661.8,0.162940,193395,132894
1664.72,0.155799,179728,125550
1667.63,0.140800,163642,118330
1670.54,0.126994,146312,109216
1673.44,0.111390,128451,99391
1677.31,0.091703,105080,85078
1680.21,0.079171,88906,74090
1683.1,0.070330,75033,63815
1685.99,0.072136,63520,53799
1688.87,0.073032,53714,45400
1691.75,0.081495,45653,37842
1694.62,0.085920,39137,32112
1697.49,0.089039,33776,27515
1701.31,0.093647,28175,22710

File: Column 1_050627_20150331_123631.csv
Method:,Column 1,,
Host Date-Time:,31/3/15 @ 12:36:31,,
Header Version:,1,,
System Temp (C):,34.15,,
Detector Temp (C):,35.06,,
Humidity (%):,1.56,,
Lamp PD:,3818,,
Shift Vector Coefficients:,-10.5391,0.0761263,-0.000134223,,
Pixel to Wavelength Coefficients:,1775.68,-0.916766,-0.000235065,,
Serial Number:,5510004,,
Scan Config Name:,Column 1,,
Scan Config Type:,Slew,,
Section 1,,
Start wavelength (nm):,900,,
End wavelength (nm):,1700,,
Pattern Pixel Width (nm):,   7.03,,,,
Exposure (ms):,  0.635,,,,
Digital Resolution:,228,,
Num Repeats:,6,,
PGA Gain:,64,,
Total Measurement Time in sec:,  2.666,,
Wavelength (nm),Absorbance (AU),Reference Signal (unitless),Sample Signal (unitless)
901.51,0.068459,108485,92664
905.376,0.074402,121306,102207
909.237,0.075919,131909,110753
913.095,0.076299,143299,120211
916.948,0.078197,156982,131115
922.079,0.080770,179937,149400
925.923,0.081455,200504,166214
929.762,0.081439,222660,184588
933.597,0.080932,244426,202869
937.427,0.081015,263972,219050
941.254,0.079586,281845,234652
945.076,0.078361,297271,248194
950.165,0.077505,315605,264021
953.978,0.077122,328029,274657
957.786,0.076584,340470,285427
961.59,0.076875,352317,295161
965.389,0.076264,363056,304586
969.185,0.077003,373162,312532
972.976,0.077596,382632,320026
976.763,0.077634,391202,327165
981.806,0.078353,400190,334128
985.583,0.079226,406088,338372
989.355,0.079542,410162,341518
993.124,0.079859,412868,343520
996.888,0.080301,414263,344330
1000.65,0.081552,415476,344345
1004.4,0.081852,415479,344110
1009.41,0.083944,414358,341532
1013.15,0.083780,412923,340478
1016.89,0.084236,411526,338970
1020.63,0.084429,409066,336794
1024.36,0.084071,406777,335186
1028.09,0.084370,404427,333020
1031.82,0.084529,401911,330827
1036.78,0.083597,398410,328650
1040.49,0.083673,396204,326773
1044.2,0.083289,394236,325437
1047.91,0.083234,392042,323667
1051.61,0.082221,389823,322587
1055.31,0.082167,388234,321312
1059,0.082047,387599,320875
1063.92,0.081393,386688,320603
1067.61,0.080343,386598,321304
1071.29,0.079662,387377,322457
1074.96,0.078859,388536,324020
1078.63,0.078602,389855,325313
1082.3,0.078002,391215,326899
1085.96,0.077162,393215,329206
1090.84,0.076137,396270,332548
1094.49,0.075402,398760,335204
1098.14,0.075073,400987,337332
1101.79,0.073938,403477,340315
1105.43,0.074116,406116,342400
1109.06,0.073840,407701,343955
1112.7,0.072852,409859,346563
1117.53,0.072628,412494,348971
1121.15,0.073669,414909,350174
1124.77,0.073431,416559,351759
1128.38,0.074360,418532,352670
1131.99,0.075456,419956,352978
1135.6,0.076457,421946,353834
1139.2,0.078277,423881,353970
1143.99,0.080224,426786,354802
1147.58,0.081288,428617,355452
1151.17,0.081706,431169,357225
1154.75,0.082937,433579,358205
1158.33,0.084032,436264,359515
1161.91,0.085736,439132,360462
1165.48,0.087396,442389,361750
1169.04,0.089866,446101,362716
1173.79,0.093333,451929,364533
1177.34,0.095214,456026,366248
1180.9,0.097490,461306,368552
1184.44,0.099689,467657,371739
1187.99,0.100882,473969,375723
1191.52,0.100286,479856,380912
1195.06,0.100510,487372,386679
1199.76,0.099394,497347,395608
1203.29,0.099237,504311,401293
1206.81,0.098349,511507,407852
1210.33,0.098025,519078,414198
1213.84,0.097218,527163,421431
1217.35,0.096340,534208,427928
1220.85,0.095892,540472,433392
1225.51,0.095268,549929,441610
1229.01,0.094647,556888,447838
1232.5,0.093808,562180,452968
1235.98,0.093902,567975,457538
1239.46,0.092468,574815,464580
1242.94,0.091480,582782,472091
1246.41,0.091164,591476,479483
1251.03,0.090657,604016,490220
1254.5,0.090931,612289,496621
1257.96,0.091500,619125,501509
1261.41,0.091909,624551,505428
1264.86,0.092557,629900,508996
1268.31,0.092961,634345,512112
1271.75,0.093685,638574,514667
1276.33,0.093736,642499,517769
1279.76,0.093947,645905,520262
1283.19,0.093069,648307,523253
1286.61,0.092734,650446,525385
1290.03,0.092492,652132,527040
1293.44,0.091796,653907,529322
1296.85,0.091663,655963,531149
1301.39,0.091603,657349,532345
1304.8,0.091477,657558,532668
1308.19,0.091596,658515,533298
1311.58,0.091598,658804,533529
1314.97,0.091937,659011,533281
1318.36,0.092414,658272,532098
1321.73,0.092847,658022,531366
1326.23,0.093250,657870,530750
1329.6,0.094083,656482,528615
1332.97,0.094913,654926,526356
1336.33,0.095696,653727,524446
1339.69,0.097306,652497,521522
1343.04,0.098812,649913,517658
1346.39,0.100855,647671,513451
1349.73,0.102392,645338,509795
1354.18,0.105512,641175,502880
1357.52,0.107325,638376,498599
1360.85,0.109238,635805,494408
1364.17,0.110890,633413,490678
1367.49,0.113243,631026,486188
1370.81,0.115638,628050,481234
1374.12,0.117470,625034,476907
1378.54,0.120038,620272,470483
1381.84,0.123014,616892,464724
1385.14,0.126362,613613,458704
1388.43,0.129711,611526,453632
1391.72,0.133404,610663,449156
1395.01,0.136744,610634,445694
1398.29,0.141509,611700,441600
1402.66,0.146954,614051,437774
1405.93,0.151576,616268,434704
1409.2,0.155995,617795,431369
1412.46,0.159974,618872,428180
1415.72,0.164164,619795,424702
1418.98,0.167527,620495,421902
1422.23,0.170743,621087,419189
1426.56,0.174540,621375,415732
1429.8,0.176683,621616,413846
1433.04,0.179362,622129,411641
1436.27,0.181252,621526,409456
1439.5,0.183759,621113,406829
1442.72,0.185735,620921,404857
1445.94,0.188500,620270,401866
1450.23,0.192124,618860,397620
1453.44,0.194880,617697,394362
1456.64,0.197447,616264,391129
1459.85,0.200341,614413,387364
1463.04,0.203606,612307,383145
1466.24,0.207010,610032,378741
1469.43,0.211581,607345,373125
1473.67,0.217019,603789,366325
1476.85,0.223108,601175,359661
1480.02,0.229681,597737,352232
1483.19,0.236736,594479,344668
1486.36,0.242580,591232,338203
1489.52,0.247269,587853,332659
1492.68,0.250972,583875,327603
1496.89,0.252788,578062,322988
1500.03,0.253486,574159,320292
1503.18,0.253541,570285,318091
1506.32,0.252896,565444,315859
1509.45,0.251006,560571,314503
1512.58,0.249267,555821,313089
1515.71,0.247687,550344,311134
1519.87,0.244493,543983,309808
1522.99,0.241748,538764,308781
1526.1,0.239618,533692,307378
1529.21,0.236762,527902,306049
1532.32,0.233353,521886,304946
1535.42,0.230158,515888,303667
1538.51,0.227844,509987,301797
1541.6,0.224654,503936,300415
1545.72,0.220838,494694,297508
1548.8,0.217467,488378,295998
1551.88,0.215893,481832,293091
1554.95,0.214007,474989,290186
1558.02,0.212516,467818,286788
1561.08,0.210939,460730,283470
1564.15,0.210223,454170,279895
1568.22,0.209773,444181,274023
1571.27,0.208750,436947,270196
1574.32,0.207885,429598,266181
1577.36,0.206645,422039,262245
1580.4,0.205602,414375,258102
1583.43,0.204861,406354,253538
1586.46,0.203130,398475,249615
1590.49,0.201134,388982,244791
1593.51,0.199212,380708,240647
1596.53,0.197506,372727,236529
1599.54,0.194980,365060,233015
1602.55,0.193963,357543,228752
1605.55,0.192070,349495,224580
1608.55,0.189306,341154,220620
1612.54,0.188013,330877,214612
1615.53,0.185865,322904,210479
1618.51,0.185069,315116,205779
1621.49,0.183930,307217,201148
1624.47,0.182543,299481,196710
1627.44,0.181525,292112,192320
1630.41,0.180606,284245,187537
1634.36,0.178975,274079,181510
1637.32,0.178612,266916,176914
1640.27,0.178075,259612,172286
1643.22,0.177175,251804,167451
1646.16,0.176258,244348,162836
1649.1,0.175978,236703,157843
1652.04,0.174615,228171,152632
1655.95,0.171325,215408,145190
1658.88,0.166101,204937,139804
1661.8,0.161948,193395,133198
1664.72,0.154659,179728,125880
1667.63,0.141424,163642,118160
1670.54,0.125077,146312,109699
1673.44,0.108811,128451,99983
1677.31,0.087335,105080,85938
1680.21,0.077195,88906,74428
1683.1,0.071188,75033,63689
1685.99,0.069480,63520,54129
1688.87,0.074402,53714,45257
1691.75,0.075670,45653,38353
1694.62,0.074653,39137,32956
1697.49,0.095783,33776,27091
1701.31,0.096313,28175,22571

File: Column 1_050627_20150331_123637.csv
Method:,Column 1,,
Host Date-Time:,31/3/15 @ 12:36:37,,
Header Version:,1,,
System Temp (C):,34.17,,
Detector Temp (C):,35.09,,
Humidity (%):,1.56,,
Lamp PD:,3818,,
Shift Vector Coefficients:,-10.5391,0.0761263,-0.000134223,,
Pixel to Wavelength Coefficients:,1775.68,-0.916766,-0.000235065,,
Serial Number:,5510004,,
Scan Config Name:,Column 1,,
Scan Config Type:,Slew,,
Section 1,,
Start wavelength (nm):,900,,
End wavelength (nm):,1700,,
Pattern Pixel Width (nm):,   7.03,,,,
Exposure (ms):,  0.635,,,,
Digital Resolution:,228,,
Num Repeats:,6,,
PGA Gain:,64,,
Total Measurement Time in sec:,  2.672,,
Wavelength (nm),Absorbance (AU),Reference Signal (unitless),Sample Signal (unitless)
901.51,0.070366,108485,92258
905.376,0.074763,121306,102122
909.237,0.078282,131909,110152
913.095,0.078832,143299,119512
916.948,0.079764,156982,130643
922.079,0.081730,179937,149070
925.923,0.082649,200504,165758
929.762,0.082985,222660,183932
933.597,0.083711,244426,201575
937.427,0.081425,263972,218843
941.254,0.080642,281845,234082
945.076,0.079776,297271,247387
950.165,0.078574,315605,263372
953.978,0.077484,328029,274428
957.786,0.077365,340470,284914
961.59,0.077456,352317,294766
965.389,0.077600,363056,303650
969.185,0.077398,373162,312248
972.976,0.077873,382632,319822
976.763,0.078203,391202,326737
981.806,0.078775,400190,333804
985.583,0.079020,406088,338532
989.355,0.080117,410162,341066
993.124,0.080045,412868,343373
996.888,0.080699,414263,344015
1000.65,0.081242,415476,344591
1004.4,0.082887,415479,343291
1009.41,0.083782,414358,341660
1013.15,0.084644,412923,339801
1016.89,0.084488,411526,338773
1020.63,0.084617,409066,336648
1024.36,0.084721,406777,334684
1028.09,0.084320,404427,333058
1031.82,0.084484,401911,330861
1036.78,0.083831,398410,328473
1040.49,0.084346,396204,326267
1044.2,0.084326,394236,324661
1047.91,0.083359,392042,323574
1051.61,0.083719,389823,321476
1055.31,0.082927,388234,320750
1059,0.082701,387599,320392
1063.92,0.081296,386688,320675
1067.61,0.080476,386598,321206
1071.29,0.080773,387377,321633
1074.96,0.079800,388536,323319
1078.63,0.079032,389855,324991
1082.3,0.077930,391215,326953
1085.96,0.077368,393215,329050
1090.84,0.077128,396270,331790
1094.49,0.075965,398760,334770
1098.14,0.075490,400987,337008
1101.79,0.074405,403477,339949
1105.43,0.074106,406116,342408
1109.06,0.073614,407701,344134
1112.7,0.073452,409859,346085
1117.53,0.072926,412494,348732
1121.15,0.073530,414909,350286
1124.77,0.074012,416559,351289
1128.38,0.074349,418532,352679
1131.99,0.075561,419956,352893
1135.6,0.077268,421946,353174
1139.2,0.078031,423881,354171
1143.99,0.080381,426786,354674
1147.58,0.081104,428617,355603
1151.17,0.082292,431169,356743
1154.75,0.082647,433579,358444
1158.33,0.083820,436264,359691
1161.91,0.085789,439132,360418
1165.48,0.087923,442389,361311
1169.04,0.090022,446101,362586
1173.79,0.093506,451929,364388
1177.34,0.095753,456026,365794
1180.9,0.097559,461306,368494
1184.44,0.099875,467657,371580
1187.99,0.100616,473969,375953
1191.52,0.100642,479856,380600
1195.06,0.100752,487372,386464
1199.76,0.099914,497347,395135
1203.29,0.099227,504311,401302
1206.81,0.098875,511507,407358
1210.33,0.098250,519078,413983
1213.84,0.097603,527163,421058
1217.35,0.097153,534208,427127
1220.85,0.095906,540472,433378
1225.51,0.095627,549929,441245
1229.01,0.095118,556888,447352
1232.5,0.094553,562180,452191
1235.98,0.093885,567975,457556
1239.46,0.092699,574815,464332
1242.94,0.091530,582782,472037
1246.41,0.091194,591476,479450
1251.03,0.091224,604016,489581
1254.5,0.091148,612289,496373
1257.96,0.091746,619125,501224
1261.41,0.092075,624551,505234
1264.86,0.092407,629900,509172
1268.31,0.093248,634345,511773
1271.75,0.093963,638574,514337
1276.33,0.093818,642499,517672
1279.76,0.094076,645905,520107
1283.19,0.093355,648307,522908
1286.61,0.092469,650446,525705
1290.03,0.092917,652132,526524
1293.44,0.092348,653907,528650
1296.85,0.092113,655963,530599
1301.39,0.091599,657349,532350
1304.8,0.091557,657558,532571
1308.19,0.091813,658515,533031
1311.58,0.091938,658804,533112
1314.97,0.092190,659011,532970
1318.36,0.092893,658272,531511
1321.73,0.092831,658022,531385
1326.23,0.093869,657870,529994
1329.6,0.094250,656482,528412
1332.97,0.094810,654926,526480
1336.33,0.095749,653727,524382
1339.69,0.097434,652497,521368
1343.04,0.099212,649913,517182
1346.39,0.101417,647671,512788
1349.73,0.102759,645338,509364
1354.18,0.105325,641175,503097
1357.52,0.107580,638376,498307
1360.85,0.109411,635805,494212
1364.17,0.111403,633413,490099
1367.49,0.114088,631026,485243
1370.81,0.115665,628050,481204
1374.12,0.117741,625034,476609
1378.54,0.120567,620272,469910
1381.84,0.123331,616892,464385
1385.14,0.126116,613613,458964
1388.43,0.129721,611526,453622
1391.72,0.133585,610663,448969
1395.01,0.137252,610634,445173
1398.29,0.141494,611700,441616
1402.66,0.147821,614051,436901
1405.93,0.151783,616268,434497
1409.2,0.156484,617795,430884
1412.46,0.160184,618872,427973
1415.72,0.164656,619795,424221
1418.98,0.167990,620495,421452
1422.23,0.170988,621087,418952
1426.56,0.174721,621375,415559
1429.8,0.177233,621616,413323
1433.04,0.179288,622129,411711
1436.27,0.181499,621526,409223
1439.5,0.183462,621113,407107
1442.72,0.186427,620921,404212
1445.94,0.188828,620270,401562
1450.23,0.192233,618860,397520
1453.44,0.195181,617697,394089
1456.64,0.198009,616264,390623
1459.85,0.200242,614413,387452
1463.04,0.203901,612307,382885
1466.24,0.207607,610032,378221
1469.43,0.210722,607345,373864
1473.67,0.217894,603789,365587
1476.85,0.224152,601175,358797
1480.02,0.229768,597737,352162
1483.19,0.236686,594479,344707
1486.36,0.243003,591232,337874
1489.52,0.247761,587853,332283
1492.68,0.251252,583875,327392
1496.89,0.253795,578062,322240
1500.03,0.253540,574159,320252
1503.18,0.254050,570285,317718
1506.32,0.253692,565444,315281
1509.45,0.251650,560571,314037
1512.58,0.249933,555821,312609
1515.71,0.248215,550344,310756
1519.87,0.244804,543983,309586
1522.99,0.241704,538764,308812
1526.1,0.239759,533692,307278
1529.21,0.237110,527902,305804
1532.32,0.233555,521886,304804
1535.42,0.230692,515888,303294
1538.51,0.228324,509987,301464
1541.6,0.225748,503936,299659
1545.72,0.221310,494694,297185
1548.8,0.218428,488378,295344
1551.88,0.215718,481832,293209
1554.95,0.214441,474989,289896
1558.02,0.212670,467818,286686
1561.08,0.212042,460730,282751
1564.15,0.211712,454170,278937
1568.22,0.210138,444181,273793
1571.27,0.209649,436947,269637
1574.32,0.208756,429598,265648
1577.36,0.207635,422039,261648
1580.4,0.206438,414375,257606
1583.43,0.204122,406354,253970
1586.46,0.202762,398475,249827
1590.49,0.201645,388982,244503
1593.51,0.199885,380708,240274
1596.53,0.197325,372727,236628
1599.54,0.195949,365060,232496
1602.55,0.194320,357543,228564
1605.55,0.191357,349495,224949
1608.55,0.189678,341154,220431
1612.54,0.188055,330877,214591
1615.53,0.185417,322904,210696
1618.51,0.185304,315116,205668
1621.49,0.184081,307217,201078
1624.47,0.183856,299481,196116
1627.44,0.183059,292112,191642
1630.41,0.180729,284245,187484
1634.36,0.180461,274079,180890
1637.32,0.180002,266916,176349
1640.27,0.179178,259612,171849
1643.22,0.178305,251804,167016
1646.16,0.177356,244348,162425
1649.1,0.176168,236703,157774
1652.04,0.173930,228171,152873
1655.95,0.171188,215408,145236
1658.88,0.167386,204937,139391
1661.8,0.163971,193395,132579
1664.72,0.153863,179728,126111
1667.63,0.142447,163642,117882
1670.54,0.128903,146312,108737
1673.44,0.111351,128451,99400
1677.31,0.090882,105080,85239
1680.21,0.079500,88906,74034
1683.1,0.070738,75033,63755
1685.99,0.072233,63520,53787
1688.87,0.078480,53714,44834
1691.75,0.080464,45653,37932
1694.62,0.089928,39137,31817
1697.49,0.094167,33776,27192
1701.31,0.101559,28175,22300