Folder: textile_sorting_NIRSCAN_/samples/wool/wool-000811 (part 46)

File: Column 1_050556_20150331_120237.csv
Method:,Column 1,,
Host Date-Time:,31/3/15 @ 12:2:37,,
Header Version:,1,,
System Temp (C):,33.5,,
Detector Temp (C):,32.66,,
Humidity (%):,2.44,,
Lamp PD:,3820,,
Shift Vector Coefficients:,-10.5391,0.0761263,-0.000134223,,
Pixel to Wavelength Coefficients:,1775.68,-0.916766,-0.000235065,,
Serial Number:,5510004,,
Scan Config Name:,Column 1,,
Scan Config Type:,Slew,,
Section 1,,
Start wavelength (nm):,900,,
End wavelength (nm):,1700,,
Pattern Pixel Width (nm):,   7.03,,,,
Exposure (ms):,  0.635,,,,
Digital Resolution:,228,,
Num Repeats:,6,,
PGA Gain:,64,,
Total Measurement Time in sec:,  2.718,,
Wavelength (nm),Absorbance (AU),Reference Signal (unitless),Sample Signal (unitless)
901.51,0.035135,108485,100054
905.376,0.039021,121306,110882
909.237,0.042184,131909,119699
913.095,0.043588,143299,129615
916.948,0.043809,156982,141919
922.079,0.045407,179937,162074
925.923,0.046373,200504,180198
929.762,0.046942,222660,199848
933.597,0.047511,244426,219097
937.427,0.046352,263972,237250
941.254,0.046830,281845,253035
945.076,0.045990,297271,267401
950.165,0.045858,315605,283979
953.978,0.045350,328029,295503
957.786,0.046181,340470,306124
961.59,0.046150,352317,316799
965.389,0.045957,363056,326600
969.185,0.046911,373162,334955
972.976,0.047242,382632,343194
976.763,0.047563,391202,350621
981.806,0.048797,400190,357659
985.583,0.049394,406088,362432
989.355,0.050098,410162,365475
993.124,0.050406,412868,367625
996.888,0.050618,414263,368687
1000.65,0.051551,415476,368973
1004.4,0.052831,415479,367890
1009.41,0.053934,414358,365967
1013.15,0.054879,412923,363907
1016.89,0.055025,411526,362554
1020.63,0.055163,409066,360272
1024.36,0.054919,406777,358457
1028.09,0.054798,404427,356486
1031.82,0.054309,401911,354667
1036.78,0.054218,398410,351651
1040.49,0.053961,396204,349911
1044.2,0.054075,394236,348082
1047.91,0.053380,392042,346699
1051.61,0.052572,389823,345379
1055.31,0.051627,388234,344720
1059,0.051741,387599,344066
1063.92,0.050860,386688,343954
1067.61,0.049852,386598,344673
1071.29,0.049148,387377,345928
1074.96,0.048318,388536,347627
1078.63,0.048253,389855,348859
1082.3,0.046813,391215,351239
1085.96,0.046853,393215,353002
1090.84,0.046191,396270,356287
1094.49,0.045647,398760,358975
1098.14,0.045606,400987,361014
1101.79,0.044800,403477,363931
1105.43,0.045061,406116,366091
1109.06,0.044872,407701,367680
1112.7,0.044077,409859,370303
1117.53,0.044224,412494,372558
1121.15,0.045616,414909,373540
1124.77,0.045894,416559,374785
1128.38,0.046513,418532,376024
1131.99,0.048464,419956,375612
1135.6,0.050684,421946,375468
1139.2,0.051954,423881,376088
1143.99,0.054713,426786,376268
1147.58,0.057848,428617,375164
1151.17,0.057000,431169,378136
1154.75,0.058397,433579,379028
1158.33,0.060198,436264,379797
1161.91,0.062056,439132,380662
1165.48,0.064583,442389,381260
1169.04,0.066873,446101,382437
1173.79,0.070943,451929,383820
1177.34,0.073292,456026,385210
1180.9,0.075626,461306,387582
1184.44,0.076850,467657,391812
1187.99,0.077778,473969,396252
1191.52,0.077700,479856,401246
1195.06,0.077474,487372,407743
1199.76,0.077164,497347,416385
1203.29,0.075688,504311,423653
1206.81,0.074537,511507,430839
1210.33,0.074283,519078,437471
1213.84,0.073016,527163,445583
1217.35,0.072010,534208,452585
1220.85,0.071774,540472,458141
1225.51,0.071395,549929,466564
1229.01,0.070308,556888,473652
1232.5,0.069881,562180,478624
1235.98,0.069089,567975,484440
1239.46,0.068063,574815,491434
1242.94,0.067219,582782,499214
1246.41,0.066648,591476,507328
1251.03,0.066070,604016,518774
1254.5,0.066396,612289,525485
1257.96,0.067097,619125,530495
1261.41,0.067464,624551,534692
1264.86,0.068029,629900,538570
1268.31,0.068648,634345,541598
1271.75,0.069503,638574,544137
1276.33,0.069642,642499,547306
1279.76,0.069997,645905,549758
1283.19,0.069214,648307,552798
1286.61,0.068502,650446,555532
1290.03,0.068352,652132,557164
1293.44,0.067921,653907,559236
1296.85,0.067783,655963,561172
1301.39,0.067545,657349,562667
1304.8,0.067474,657558,562937
1308.19,0.068060,658515,562997
1311.58,0.068061,658804,563242
1314.97,0.068763,659011,562509
1318.36,0.069247,658272,561252
1321.73,0.069058,658022,561284
1326.23,0.070555,657870,559223
1329.6,0.071336,656482,557040
1332.97,0.072367,654926,554402
1336.33,0.074149,653727,551121
1339.69,0.075914,652497,547854
1343.04,0.077635,649913,543526
1346.39,0.080022,647671,538682
1349.73,0.081677,645338,534700
1354.18,0.085292,641175,526847
1357.52,0.087519,638376,521864
1360.85,0.089346,635805,517581
1364.17,0.092352,633413,512077
1367.49,0.094675,631026,507425
1370.81,0.096843,628050,502518
1374.12,0.099068,625034,497549
1378.54,0.102869,620272,489455
1381.84,0.106519,616892,482714
1385.14,0.110406,613613,475870
1388.43,0.115204,611526,469041
1391.72,0.120266,610663,462952
1395.01,0.125933,610634,456928
1398.29,0.131290,611700,452115
1402.66,0.139298,614051,445560
1405.93,0.145381,616268,440949
1409.2,0.151176,617795,436183
1412.46,0.156654,618872,431466
1415.72,0.161427,619795,427387
1418.98,0.166020,620495,423368
1422.23,0.169570,621087,420322
1426.56,0.174547,621375,415726
1429.8,0.177023,621616,413523
1433.04,0.179932,622129,411101
1436.27,0.182477,621526,408303
1439.5,0.184722,621113,405928
1442.72,0.186986,620921,403692
1445.94,0.189482,620270,400958
1450.23,0.193091,618860,396736
1453.44,0.196188,617697,393176
1456.64,0.199265,616264,389495
1459.85,0.202068,614413,385827
1463.04,0.204700,612307,382181
1466.24,0.208009,610032,377871
1469.43,0.210968,607345,373652
1473.67,0.216491,603789,366770
1476.85,0.221699,601175,360829
1480.02,0.227573,597737,353946
1483.19,0.233926,594479,346905
1486.36,0.239637,591232,340503
1489.52,0.244524,587853,334769
1492.68,0.247990,583875,329860
1496.89,0.249764,578062,325245
1500.03,0.250931,574159,322182
1503.18,0.251269,570285,319759
1506.32,0.250296,565444,317756
1509.45,0.248780,560571,316119
1512.58,0.247499,555821,314366
1515.71,0.245359,550344,312806
1519.87,0.242193,543983,311453
1522.99,0.238948,538764,310778
1526.1,0.236928,533692,309288
1529.21,0.233972,527902,308022
1532.32,0.230594,521886,306889
1535.42,0.227702,515888,305389
1538.51,0.224130,509987,304389
1541.6,0.220880,503936,303037
1545.72,0.216317,494694,300621
1548.8,0.213703,488378,298575
1551.88,0.210473,481832,296772
1554.95,0.208786,474989,293696
1558.02,0.208718,467818,289307
1561.08,0.205356,460730,287138
1564.15,0.204911,454170,283340
1568.22,0.203704,444181,277879
1571.27,0.203652,436947,273386
1574.32,0.201337,429598,270225
1577.36,0.200687,422039,265868
1580.4,0.198905,414375,262113
1583.43,0.196647,406354,258379
1586.46,0.195207,398475,254211
1590.49,0.192956,388982,249444
1593.51,0.191291,380708,245076
1596.53,0.188769,372727,241336
1599.54,0.186105,365060,237826
1602.55,0.185058,357543,233491
1605.55,0.182356,349495,229660
1608.55,0.180345,341154,225219
1612.54,0.177783,330877,219727
1615.53,0.175475,322904,215575
1618.51,0.173696,315116,211239
1621.49,0.173629,307217,205976
1624.47,0.172379,299481,201368
1627.44,0.170576,292112,197230
1630.41,0.169851,284245,192239
1634.36,0.167989,274079,186160
1637.32,0.168296,266916,181167
1640.27,0.166143,259612,177085
1643.22,0.164818,251804,172284
1646.16,0.164801,244348,167189
1649.1,0.163505,236703,162442
1652.04,0.163713,228171,156512
1655.95,0.160183,215408,148963
1658.88,0.156026,204937,143085
1661.8,0.153955,193395,135672
1664.72,0.148837,179728,127579
1667.63,0.140360,163642,118450
1670.54,0.130183,146312,108417
1673.44,0.117893,128451,97914
1677.31,0.106273,105080,82271
1680.21,0.100188,88906,70590
1683.1,0.101561,75033,59387
1685.99,0.108814,63520,49442
1688.87,0.109358,53714,41757
1691.75,0.114397,45653,35081
1694.62,0.123163,39137,29473
1697.49,0.126330,33776,25251
1701.31,0.132867,28175,20749

File: Column 1_050556_20150331_120242.csv
Method:,Column 1,,
Host Date-Time:,31/3/15 @ 12:2:42,,
Header Version:,1,,
System Temp (C):,33.52,,
Detector Temp (C):,32.65,,
Humidity (%):,2.44,,
Lamp PD:,3820,,
Shift Vector Coefficients:,-10.5391,0.0761263,-0.000134223,,
Pixel to Wavelength Coefficients:,1775.68,-0.916766,-0.000235065,,
Serial Number:,5510004,,
Scan Config Name:,Column 1,,
Scan Config Type:,Slew,,
Section 1,,
Start wavelength (nm):,900,,
End wavelength (nm):,1700,,
Pattern Pixel Width (nm):,   7.03,,,,
Exposure (ms):,  0.635,,,,
Digital Resolution:,228,,
Num Repeats:,6,,
PGA Gain:,64,,
Total Measurement Time in sec:,  2.686,,
Wavelength (nm),Absorbance (AU),Reference Signal (unitless),Sample Signal (unitless)
901.51,0.032789,108485,100596
905.376,0.039276,121306,110817
909.237,0.040836,131909,120071
913.095,0.043440,143299,129659
916.948,0.042737,156982,142270
922.079,0.043253,179937,162880
925.923,0.044718,200504,180886
929.762,0.046569,222660,200020
933.597,0.047507,244426,219099
937.427,0.045490,263972,237721
941.254,0.046363,281845,253307
945.076,0.045959,297271,267420
950.165,0.044985,315605,284550
953.978,0.044892,328029,295815
957.786,0.045501,340470,306604
961.59,0.045829,352317,317033
965.389,0.046086,363056,326503
969.185,0.046814,373162,335030
972.976,0.046822,382632,343526
976.763,0.047717,391202,350497
981.806,0.048278,400190,358087
985.583,0.049006,406088,362756
989.355,0.049417,410162,366048
993.124,0.049835,412868,368109
996.888,0.050783,414263,368547
1000.65,0.051481,415476,369033
1004.4,0.052205,415479,368421
1009.41,0.053974,414358,365933
1013.15,0.054311,412923,364383
1016.89,0.054843,411526,362706
1020.63,0.054346,409066,360950
1024.36,0.054878,406777,358491
1028.09,0.054176,404427,356997
1031.82,0.053932,401911,354975
1036.78,0.054101,398410,351746
1040.49,0.053733,396204,350095
1044.2,0.053217,394236,348770
1047.91,0.052637,392042,347293
1051.61,0.051599,389823,346153
1055.31,0.052151,388234,344304
1059,0.051272,387599,344438
1063.92,0.050221,386688,344461
1067.61,0.049414,386598,345021
1071.29,0.048936,387377,346097
1074.96,0.048348,388536,347603
1078.63,0.047927,389855,349121
1082.3,0.047257,391215,350880
1085.96,0.046327,393215,353430
1090.84,0.045721,396270,356673
1094.49,0.045511,398760,359088
1098.14,0.044790,400987,361693
1101.79,0.044406,403477,364261
1105.43,0.044234,406116,366789
1109.06,0.043967,407701,368447
1112.7,0.043621,409859,370692
1117.53,0.044007,412494,372744
1121.15,0.044841,414909,374207
1124.77,0.045392,416559,375219
1128.38,0.046907,418532,375683
1131.99,0.048225,419956,375819
1135.6,0.050295,421946,375804
1139.2,0.052192,423881,375882
1143.99,0.054738,426786,376246
1147.58,0.055375,428617,377307
1151.17,0.056459,431169,378607
1154.75,0.057718,433579,379621
1158.33,0.059604,436264,380317
1161.91,0.061799,439132,380887
1165.48,0.064122,442389,381665
1169.04,0.066948,446101,382371
1173.79,0.070331,451929,384361
1177.34,0.072621,456026,385806
1180.9,0.075418,461306,387767
1184.44,0.077121,467657,391567
1187.99,0.077850,473969,396187
1191.52,0.077923,479856,401040
1195.06,0.077420,487372,407794
1199.76,0.076301,497347,417214
1203.29,0.075097,504311,424230
1206.81,0.074713,511507,430664
1210.33,0.073523,519078,438238
1213.84,0.073024,527163,445575
1217.35,0.071936,534208,452662
1220.85,0.071634,540472,458289
1225.51,0.070547,549929,467476
1229.01,0.070014,556888,473973
1232.5,0.069885,562180,478620
1235.98,0.069227,567975,484286
1239.46,0.067778,574815,491757
1242.94,0.066668,582782,499848
1246.41,0.066261,591476,507781
1251.03,0.066087,604016,518754
1254.5,0.066159,612289,525772
1257.96,0.066357,619125,531400
1261.41,0.066993,624551,535273
1264.86,0.067944,629900,538676
1268.31,0.068689,634345,541548
1271.75,0.069592,638574,544026
1276.33,0.069712,642499,547218
1279.76,0.069396,645905,550519
1283.19,0.068829,648307,553289
1286.61,0.068406,650446,555655
1290.03,0.068353,652132,557163
1293.44,0.067981,653907,559159
1296.85,0.067533,655963,561495
1301.39,0.067521,657349,562698
1304.8,0.067306,657558,563155
1308.19,0.067337,658515,563934
1311.58,0.068028,658804,563285
1314.97,0.068455,659011,562908
1318.36,0.069326,658272,561150
1321.73,0.069634,658022,560540
1326.23,0.070594,657870,559173
1329.6,0.071287,656482,557103
1332.97,0.072174,654926,554649
1336.33,0.073549,653727,551884
1339.69,0.075201,652497,548754
1343.04,0.077589,649913,543583
1346.39,0.079508,647671,539320
1349.73,0.081534,645338,534876
1354.18,0.084995,641175,527208
1357.52,0.087406,638376,522000
1360.85,0.089452,635805,517454
1364.17,0.091708,633413,512837
1367.49,0.094123,631026,508071
1370.81,0.096595,628050,502805
1374.12,0.099166,625034,497436
1378.54,0.102499,620272,489873
1381.84,0.106358,616892,482893
1385.14,0.110396,613613,475881
1388.43,0.115261,611526,468980
1391.72,0.120460,610663,462745
1395.01,0.125531,610634,457351
1398.29,0.131151,611700,452259
1402.66,0.139012,614051,445854
1405.93,0.144877,616268,441461
1409.2,0.150728,617795,436633
1412.46,0.156225,618872,431893
1415.72,0.161408,619795,427405
1418.98,0.165576,620495,423801
1422.23,0.169233,621087,420649
1426.56,0.173939,621375,416308
1429.8,0.177059,621616,413488
1433.04,0.179925,622129,411108
1436.27,0.182247,621526,408519
1439.5,0.184100,621113,406509
1442.72,0.186982,620921,403696
1445.94,0.189075,620270,401334
1450.23,0.192967,618860,396849
1453.44,0.195735,617697,393587
1456.64,0.198089,616264,390551
1459.85,0.201311,614413,386500
1463.04,0.204408,612307,382438
1466.24,0.207266,610032,378518
1469.43,0.210185,607345,374326
1473.67,0.216423,603789,366828
1476.85,0.222141,601175,360462
1480.02,0.227358,597737,354121
1483.19,0.233641,594479,347133
1486.36,0.239809,591232,340368
1489.52,0.244342,587853,334909
1492.68,0.247343,583875,330352
1496.89,0.249843,578062,325186
1500.03,0.250426,574159,322557
1503.18,0.250627,570285,320232
1506.32,0.249475,565444,318357
1509.45,0.248364,560571,316422
1512.58,0.246649,555821,314982
1515.71,0.244544,550344,313394
1519.87,0.241627,543983,311859
1522.99,0.238892,538764,310818
1526.1,0.236463,533692,309619
1529.21,0.233542,527902,308327
1532.32,0.229371,521886,307755
1535.42,0.226979,515888,305898
1538.51,0.223462,509987,304858
1541.6,0.221146,503936,302851
1545.72,0.215802,494694,300978
1548.8,0.213107,488378,298985
1551.88,0.210793,481832,296553
1554.95,0.207870,474989,294316
1558.02,0.206330,467818,290902
1561.08,0.204326,460730,287820
1564.15,0.204547,454170,283577
1568.22,0.203418,444181,278062
1571.27,0.202642,436947,274023
1574.32,0.201041,429598,270409
1577.36,0.199320,422039,266706
1580.4,0.198484,414375,262367
1583.43,0.197078,406354,258123
1586.46,0.194672,398475,254524
1590.49,0.192640,388982,249626
1593.51,0.190758,380708,245377
1596.53,0.188438,372727,241520
1599.54,0.185935,365060,237919
1602.55,0.184521,357543,233780
1605.55,0.181670,349495,230023
1608.55,0.179152,341154,225839
1612.54,0.176788,330877,220231
1615.53,0.174682,322904,215969
1618.51,0.173444,315116,211362
1621.49,0.172786,307217,206376
1624.47,0.172364,299481,201375
1627.44,0.171180,292112,196956
1630.41,0.168475,284245,192849
1634.36,0.167346,274079,186436
1637.32,0.166759,266916,181809
1640.27,0.165665,259612,177280
1643.22,0.165378,251804,172062
1646.16,0.163908,244348,167533
1649.1,0.163810,236703,162328
1652.04,0.162743,228171,156862
1655.95,0.159464,215408,149210
1658.88,0.155641,204937,143212
1661.8,0.152897,193395,136003
1664.72,0.147006,179728,128118
1667.63,0.138341,163642,119002
1670.54,0.129522,146312,108582
1673.44,0.116617,128451,98202
1677.31,0.104687,105080,82572
1680.21,0.098935,88906,70794
1683.1,0.097811,75033,59902
1685.99,0.101532,63520,50278
1688.87,0.104117,53714,42264
1691.75,0.114323,45653,35087
1694.62,0.119363,39137,29732
1697.49,0.122647,33776,25466
1701.31,0.131968,28175,20792

File: Column 1_050556_20150331_120245.csv
Method:,Column 1,,
Host Date-Time:,31/3/15 @ 12:2:45,,
Header Version:,1,,
System Temp (C):,33.5,,
Detector Temp (C):,32.65,,
Humidity (%):,2.44,,
Lamp PD:,3820,,
Shift Vector Coefficients:,-10.5391,0.0761263,-0.000134223,,
Pixel to Wavelength Coefficients:,1775.68,-0.916766,-0.000235065,,
Serial Number:,5510004,,
Scan Config Name:,Column 1,,
Scan Config Type:,Slew,,
Section 1,,
Start wavelength (nm):,900,,
End wavelength (nm):,1700,,
Pattern Pixel Width (nm):,   7.03,,,,
Exposure (ms):,  0.635,,,,
Digital Resolution:,228,,
Num Repeats:,6,,
PGA Gain:,64,,
Total Measurement Time in sec:,  2.719,,
Wavelength (nm),Absorbance (AU),Reference Signal (unitless),Sample Signal (unitless)
901.51,0.034281,108485,100251
905.376,0.040422,121306,110525
909.237,0.042736,131909,119547
913.095,0.042534,143299,129930
916.948,0.043981,156982,141863
922.079,0.043535,179937,162774
925.923,0.046192,200504,180273
929.762,0.046195,222660,200192
933.597,0.046822,244426,219445
937.427,0.046786,263972,237013
941.254,0.047101,281845,252877
945.076,0.046027,297271,267378
950.165,0.045865,315605,283974
953.978,0.045844,328029,295167
957.786,0.045473,340470,306624
961.59,0.046416,352317,316605
965.389,0.046361,363056,326297
969.185,0.047126,373162,334789
972.976,0.047488,382632,342999
976.763,0.048075,391202,350208
981.806,0.048301,400190,358068
985.583,0.049107,406088,362671
989.355,0.049446,410162,366024
993.124,0.051098,412868,367040
996.888,0.050817,414263,368518
1000.65,0.052009,415476,368584
1004.4,0.052345,415479,368302
1009.41,0.053883,414358,366010
1013.15,0.054356,412923,364345
1016.89,0.055482,411526,362172
1020.63,0.055164,409066,360271
1024.36,0.055352,406777,358100
1028.09,0.054392,404427,356819
1031.82,0.054570,401911,354454
1036.78,0.054080,398410,351763
1040.49,0.053961,396204,349911
1044.2,0.053380,394236,348639
1047.91,0.053160,392042,346875
1051.61,0.052306,389823,345590
1055.31,0.051851,388234,344542
1059,0.051476,387599,344276
1063.92,0.050011,386688,344627
1067.61,0.049594,386598,344878
1071.29,0.048989,387377,346055
1074.96,0.048716,388536,347308
1078.63,0.047920,389855,349127
1082.3,0.047457,391215,350718
1085.96,0.046775,393215,353065
1090.84,0.046241,396270,356246
1094.49,0.045231,398760,359319
1098.14,0.045131,400987,361409
1101.79,0.044583,403477,364113
1105.43,0.044704,406116,366392
1109.06,0.044506,407701,367990
1112.7,0.044744,409859,369735
1117.53,0.044308,412494,372486
1121.15,0.045132,414909,373956
1124.77,0.045948,416559,374739
1128.38,0.047091,418532,375524
1131.99,0.048222,419956,375822
1135.6,0.050386,421946,375726
1139.2,0.052405,423881,375698
1143.99,0.054890,426786,376115
1147.58,0.055851,428617,376893
1151.17,0.056982,431169,378151
1154.75,0.058381,433579,379042
1158.33,0.060113,436264,379871
1161.91,0.062487,439132,380284
1165.48,0.064314,442389,381496
1169.04,0.066896,446101,382417
1173.79,0.071193,451929,383599
1177.34,0.073486,456026,385038
1180.9,0.075436,461306,387751
1184.44,0.077361,467657,391351
1187.99,0.077865,473969,396173
1191.52,0.078346,479856,400650
1195.06,0.077863,487372,407378
1199.76,0.076752,497347,416781
1203.29,0.075737,504311,423605
1206.81,0.074687,511507,430690
1210.33,0.074107,519078,437649
1213.84,0.072917,527163,445685
1217.35,0.072578,534208,451994
1220.85,0.071543,540472,458385
1225.51,0.070904,549929,467092
1229.01,0.070375,556888,473580
1232.5,0.069761,562180,478756
1235.98,0.069236,567975,484276
1239.46,0.067891,574815,491629
1242.94,0.067052,582782,499406
1246.41,0.066263,591476,507778
1251.03,0.066275,604016,518530
1254.5,0.066268,612289,525640
1257.96,0.066876,619125,530765
1261.41,0.067069,624551,535179
1264.86,0.067911,629900,538717
1268.31,0.068550,634345,541721
1271.75,0.069410,638574,544253
1276.33,0.070172,642499,546639
1279.76,0.069576,645905,550291
1283.19,0.069073,648307,552978
1286.61,0.068856,650446,555079
1290.03,0.068375,652132,557135
1293.44,0.067874,653907,559296
1296.85,0.067588,655963,561424
1301.39,0.067748,657349,562404
1304.8,0.067476,657558,562935
1308.19,0.067881,658515,563228
1311.58,0.067887,658804,563468
1314.97,0.068719,659011,562566
1318.36,0.069103,658272,561439
1321.73,0.069445,658022,560784
1326.23,0.070383,657870,559444
1329.6,0.071536,656482,556784
1332.97,0.072445,654926,554303
1336.33,0.073499,653727,551947
1339.69,0.075813,652497,547981
1343.04,0.077257,649913,543999
1346.39,0.079627,647671,539172
1349.73,0.082048,645338,534243
1354.18,0.084880,641175,527347
1357.52,0.087368,638376,522046
1360.85,0.089804,635805,517035
1364.17,0.091910,633413,512598
1367.49,0.094338,631026,507819
1370.81,0.096818,628050,502546
1374.12,0.099409,625034,497158
1378.54,0.102955,620272,489359
1381.84,0.107018,616892,482160
1385.14,0.110714,613613,475533
1388.43,0.115342,611526,468892
1391.72,0.120137,610663,463089
1395.01,0.125300,610634,457595
1398.29,0.131080,611700,452333
1402.66,0.138908,614051,445961
1405.93,0.144867,616268,441471
1409.2,0.151068,617795,436291
1412.46,0.155754,618872,432361
1415.72,0.160745,619795,428058
1418.98,0.165472,620495,423903
1422.23,0.169324,621087,420560
1426.56,0.174038,621375,416213
1429.8,0.176816,621616,413720
1433.04,0.179846,622129,411182
1436.27,0.182217,621526,408547
1439.5,0.184595,621113,406046
1442.72,0.187169,620921,403522
1445.94,0.189551,620270,400894
1450.23,0.193155,618860,396677
1453.44,0.196036,617697,393314
1456.64,0.198545,616264,390141
1459.85,0.201613,614413,386231
1463.04,0.204233,612307,382592
1466.24,0.208019,610032,377862
1469.43,0.211248,607345,373411
1473.67,0.216205,603789,367012
1476.85,0.221981,601175,360595
1480.02,0.227693,597737,353848
1483.19,0.233731,594479,347061
1486.36,0.239453,591232,340647
1489.52,0.244587,587853,334720
1492.68,0.247556,583875,330190
1496.89,0.250741,578062,324514
1500.03,0.250447,574159,322541
1503.18,0.251010,570285,319950
1506.32,0.250073,565444,317919
1509.45,0.248889,560571,316040
1512.58,0.247353,555821,314472
1515.71,0.245050,550344,313029
1519.87,0.242137,543983,311493
1522.99,0.239187,538764,310607
1526.1,0.236908,533692,309302
1529.21,0.232980,527902,308726
1532.32,0.230497,521886,306958
1535.42,0.226702,515888,306093
1538.51,0.224231,509987,304318
1541.6,0.221448,503936,302641
1545.72,0.216323,494694,300617
1548.8,0.213454,488378,298746
1551.88,0.211221,481832,296261
1554.95,0.208616,474989,293811
1558.02,0.206569,467818,290742
1561.08,0.205480,460730,287056
1564.15,0.204145,454170,283840
1568.22,0.204363,444181,277458
1571.27,0.202718,436947,273975
1574.32,0.201247,429598,270281
1577.36,0.199906,422039,266346
1580.4,0.198695,414375,262240
1583.43,0.197558,406354,257838
1586.46,0.195496,398475,254042
1590.49,0.192598,388982,249650
1593.51,0.190935,380708,245277
1596.53,0.188810,372727,241313
1599.54,0.186361,365060,237686
1602.55,0.184051,357543,234033
1605.55,0.182598,349495,229532
1608.55,0.180496,341154,225141
1612.54,0.177518,330877,219861
1615.53,0.176257,322904,215187
1618.51,0.174820,315116,210693
1621.49,0.172304,307217,206605
1624.47,0.170945,299481,202034
1627.44,0.169861,292112,197555
1630.41,0.168915,284245,192654
1634.36,0.168248,274079,186049
1637.32,0.166678,266916,181843
1640.27,0.167096,259612,176697
1643.22,0.165552,251804,171993
1646.16,0.163947,244348,167518
1649.1,0.163776,236703,162341
1652.04,0.163250,228171,156679
1655.95,0.159505,215408,149196
1658.88,0.158016,204937,142431
1661.8,0.154326,193395,135556
1664.72,0.148520,179728,127672
1667.63,0.140121,163642,118515
1670.54,0.131535,146312,108080
1673.44,0.119221,128451,97615
1677.31,0.106009,105080,82321
1680.21,0.102402,88906,70231
1683.1,0.099664,75033,59647
1685.99,0.101317,63520,50303
1688.87,0.111715,53714,41531
1691.75,0.108215,45653,35584
1694.62,0.125320,39137,29327
1697.49,0.124973,33776,25330
1701.31,0.129385,28175,20916