Folder: textile_sorting_NIRSCAN_/samples/wool/wool-000811 (part 126)

File: Column 1_050601_20150331_122409.csv
Method:,Column 1,,
Host Date-Time:,31/3/15 @ 12:24:9,,
Header Version:,1,,
System Temp (C):,34,,
Detector Temp (C):,34.77,,
Humidity (%):,1.76,,
Lamp PD:,3818,,
Shift Vector Coefficients:,-10.5391,0.0761263,-0.000134223,,
Pixel to Wavelength Coefficients:,1775.68,-0.916766,-0.000235065,,
Serial Number:,5510004,,
Scan Config Name:,Column 1,,
Scan Config Type:,Slew,,
Section 1,,
Start wavelength (nm):,900,,
End wavelength (nm):,1700,,
Pattern Pixel Width (nm):,   7.03,,,,
Exposure (ms):,  0.635,,,,
Digital Resolution:,228,,
Num Repeats:,6,,
PGA Gain:,64,,
Total Measurement Time in sec:,  2.685,,
Wavelength (nm),Absorbance (AU),Reference Signal (unitless),Sample Signal (unitless)
901.51,0.068890,108485,92572
905.376,0.074508,121306,102182
909.237,0.075645,131909,110823
913.095,0.077993,143299,119743
916.948,0.080246,156982,130498
922.079,0.080264,179937,149574
925.923,0.082078,200504,165976
929.762,0.082664,222660,184068
933.597,0.082835,244426,201982
937.427,0.081840,263972,218634
941.254,0.080156,281845,234344
945.076,0.079277,297271,247671
950.165,0.078894,315605,263178
953.978,0.077702,328029,274290
957.786,0.077939,340470,284538
961.59,0.078117,352317,294318
965.389,0.078507,363056,303017
969.185,0.078608,373162,311379
972.976,0.078020,382632,319714
976.763,0.079073,391202,326083
981.806,0.079074,400190,333574
985.583,0.079781,406088,337940
989.355,0.080351,410162,340882
993.124,0.080962,412868,342649
996.888,0.081957,414263,343020
1000.65,0.082553,415476,343552
1004.4,0.083654,415479,342685
1009.41,0.084820,414358,340844
1013.15,0.085041,412923,339491
1016.89,0.085216,411526,338206
1020.63,0.085251,409066,336157
1024.36,0.085369,406777,334185
1028.09,0.084701,404427,332766
1031.82,0.085114,401911,330382
1036.78,0.084757,398410,327773
1040.49,0.084245,396204,326343
1044.2,0.084732,394236,324358
1047.91,0.084287,392042,322883
1051.61,0.083949,389823,321306
1055.31,0.083964,388234,319985
1059,0.083002,387599,320170
1063.92,0.082496,386688,319790
1067.61,0.081273,386598,320617
1071.29,0.080819,387377,321599
1074.96,0.080912,388536,322492
1078.63,0.079814,389855,324406
1082.3,0.078922,391215,326207
1085.96,0.077845,393215,328689
1090.84,0.077585,396270,331441
1094.49,0.077229,398760,333797
1098.14,0.076432,400987,336278
1101.79,0.075764,403477,338887
1105.43,0.075574,406116,341253
1109.06,0.074480,407701,343449
1112.7,0.074090,409859,345577
1117.53,0.074113,412494,347780
1121.15,0.074553,414909,349462
1124.77,0.074770,416559,350676
1128.38,0.076093,418532,351266
1131.99,0.077369,419956,351427
1135.6,0.078072,421946,352521
1139.2,0.080044,423881,352533
1143.99,0.081470,426786,353786
1147.58,0.082110,428617,354780
1151.17,0.083562,431169,355701
1154.75,0.084326,433579,357061
1158.33,0.085596,436264,358223
1161.91,0.087215,439132,359236
1165.48,0.089731,442389,359810
1169.04,0.091886,446101,361033
1173.79,0.095389,451929,362812
1177.34,0.096922,456026,364811
1180.9,0.099032,461306,367246
1184.44,0.100864,467657,370735
1187.99,0.102146,473969,374631
1191.52,0.102554,479856,378928
1195.06,0.102190,487372,385186
1199.76,0.100734,497347,394390
1203.29,0.100445,504311,400178
1206.81,0.100137,511507,406176
1210.33,0.099233,519078,413047
1213.84,0.099145,527163,419566
1217.35,0.098427,534208,425876
1220.85,0.097693,540472,431599
1225.51,0.096454,549929,440405
1229.01,0.096352,556888,446083
1232.5,0.096269,562180,450408
1235.98,0.095269,567975,456100
1239.46,0.094491,574815,462420
1242.94,0.092955,582782,470491
1246.41,0.092448,591476,478067
1251.03,0.092507,604016,488137
1254.5,0.092623,612289,494690
1257.96,0.093105,619125,499658
1261.41,0.093494,624551,503586
1264.86,0.094312,629900,506944
1268.31,0.094551,634345,510240
1271.75,0.095367,638574,512677
1276.33,0.095458,642499,515720
1279.76,0.095702,645905,518163
1283.19,0.094861,648307,521098
1286.61,0.094486,650446,523269
1290.03,0.094122,652132,525066
1293.44,0.093663,653907,527051
1296.85,0.093240,655963,529224
1301.39,0.093793,657349,529667
1304.8,0.093366,657558,530357
1308.19,0.093389,658515,531101
1311.58,0.093559,658804,531125
1314.97,0.094201,659011,530508
1318.36,0.094143,658272,529984
1321.73,0.094455,658022,529402
1326.23,0.095616,657870,527867
1329.6,0.096570,656482,525597
1332.97,0.097261,654926,523518
1336.33,0.098301,653727,521309
1339.69,0.099533,652497,518854
1343.04,0.101255,649913,514754
1346.39,0.103463,647671,510378
1349.73,0.105131,645338,506589
1354.18,0.108072,641175,499925
1357.52,0.109717,638376,495860
1360.85,0.111614,635805,491711
1364.17,0.113852,633413,487343
1367.49,0.115759,631026,483380
1370.81,0.118180,628050,478425
1374.12,0.120527,625034,473562
1378.54,0.123121,620272,467155
1381.84,0.126134,616892,461397
1385.14,0.129572,613613,455326
1388.43,0.133167,611526,450037
1391.72,0.137610,610663,444827
1395.01,0.141333,610634,441010
1398.29,0.146290,611700,436766
1402.66,0.152378,614051,432341
1405.93,0.157358,616268,428955
1409.2,0.162058,617795,425389
1412.46,0.166948,618872,421360
1415.72,0.171006,619795,418063
1418.98,0.174062,620495,415601
1422.23,0.178359,621087,411902
1426.56,0.182085,621375,408572
1429.8,0.184537,621616,406429
1433.04,0.186461,622129,404967
1436.27,0.188769,621526,402430
1439.5,0.190603,621113,400468
1442.72,0.193294,620921,397871
1445.94,0.195703,620270,395255
1450.23,0.199300,618860,391104
1453.44,0.201825,617697,388106
1456.64,0.204758,616264,384600
1459.85,0.207005,614413,381466
1463.04,0.209791,612307,377727
1466.24,0.213712,610032,372941
1469.43,0.217516,607345,368061
1473.67,0.222993,603789,361320
1476.85,0.228642,601175,355107
1480.02,0.234965,597737,347973
1483.19,0.240725,594479,341516
1486.36,0.247181,591232,334639
1489.52,0.251602,587853,329357
1492.68,0.254483,583875,324965
1496.89,0.256626,578062,320146
1500.03,0.257495,574159,317349
1503.18,0.257240,570285,315393
1506.32,0.256166,565444,313490
1509.45,0.255100,560571,311552
1512.58,0.253594,555821,309985
1515.71,0.250971,550344,308790
1519.87,0.248171,543983,307195
1522.99,0.245955,538764,305804
1526.1,0.243808,533692,304427
1529.21,0.240637,527902,303331
1532.32,0.237651,521886,301943
1535.42,0.234708,515888,300502
1538.51,0.231407,509987,299331
1541.6,0.228986,503936,297433
1545.72,0.224923,494694,294723
1548.8,0.222173,488378,292808
1551.88,0.219258,481832,290829
1554.95,0.217425,474989,287911
1558.02,0.216595,467818,284107
1561.08,0.214697,460730,281028
1564.15,0.214924,454170,276882
1568.22,0.213757,444181,271521
1571.27,0.213061,436947,267527
1574.32,0.212150,429598,263580
1577.36,0.210546,422039,259900
1580.4,0.208952,414375,256119
1583.43,0.207928,406354,251754
1586.46,0.206224,398475,247843
1590.49,0.205073,388982,242581
1593.51,0.203031,380708,238540
1596.53,0.200513,372727,234897
1599.54,0.199390,365060,230661
1602.55,0.197297,357543,227003
1605.55,0.195684,349495,222719
1608.55,0.192911,341154,218796
1612.54,0.191603,330877,212845
1615.53,0.189089,322904,208922
1618.51,0.187862,315116,204460
1621.49,0.187326,307217,199581
1624.47,0.186130,299481,195092
1627.44,0.186259,292112,190235
1630.41,0.185021,284245,185640
1634.36,0.183296,274079,179713
1637.32,0.181482,266916,175749
1640.27,0.182460,259612,170555
1643.22,0.180178,251804,166297
1646.16,0.178977,244348,161820
1649.1,0.178977,236703,156757
1652.04,0.177123,228171,151753
1655.95,0.173601,215408,144431
1658.88,0.170227,204937,138482
1661.8,0.164734,193395,132346
1664.72,0.157536,179728,125049
1667.63,0.145509,163642,117054
1670.54,0.130720,146312,108283
1673.44,0.112051,128451,99240
1677.31,0.096796,105080,84086
1680.21,0.081982,88906,73612
1683.1,0.077929,75033,62708
1685.99,0.078340,63520,53036
1688.87,0.081318,53714,44542
1691.75,0.081690,45653,37825
1694.62,0.088906,39137,31892
1697.49,0.089750,33776,27470
1701.31,0.110035,28175,21869

File: Column 1_050602_20150331_122424.csv
Method:,Column 1,,
Host Date-Time:,31/3/15 @ 12:24:24,,
Header Version:,1,,
System Temp (C):,33.97,,
Detector Temp (C):,34.75,,
Humidity (%):,1.76,,
Lamp PD:,3818,,
Shift Vector Coefficients:,-10.5391,0.0761263,-0.000134223,,
Pixel to Wavelength Coefficients:,1775.68,-0.916766,-0.000235065,,
Serial Number:,5510004,,
Scan Config Name:,Column 1,,
Scan Config Type:,Slew,,
Section 1,,
Start wavelength (nm):,900,,
End wavelength (nm):,1700,,
Pattern Pixel Width (nm):,   7.03,,,,
Exposure (ms):,  0.635,,,,
Digital Resolution:,228,,
Num Repeats:,6,,
PGA Gain:,64,,
Total Measurement Time in sec:,  2.672,,
Wavelength (nm),Absorbance (AU),Reference Signal (unitless),Sample Signal (unitless)
901.51,0.069843,108485,92369
905.376,0.074895,121306,102091
909.237,0.076920,131909,110498
913.095,0.077717,143299,119819
916.948,0.080822,156982,130325
922.079,0.080111,179937,149627
925.923,0.081032,200504,166376
929.762,0.084188,222660,183423
933.597,0.081825,244426,202452
937.427,0.081052,263972,219031
941.254,0.080778,281845,234009
945.076,0.080533,297271,246956
950.165,0.078708,315605,263291
953.978,0.077292,328029,274549
957.786,0.078360,340470,284262
961.59,0.078555,352317,294021
965.389,0.078252,363056,303195
969.185,0.077832,373162,311936
972.976,0.078173,382632,319601
976.763,0.079354,391202,325872
981.806,0.079633,400190,333145
985.583,0.080264,406088,337564
989.355,0.080919,410162,340437
993.124,0.081224,412868,342442
996.888,0.081389,414263,343469
1000.65,0.082662,415476,343466
1004.4,0.083211,415479,343035
1009.41,0.084283,414358,341266
1013.15,0.084945,412923,339566
1016.89,0.086005,411526,337592
1020.63,0.085002,409066,336350
1024.36,0.085551,406777,334045
1028.09,0.084736,404427,332739
1031.82,0.084903,401911,330542
1036.78,0.084050,398410,328307
1040.49,0.084672,396204,326022
1044.2,0.083999,394236,324906
1047.91,0.084714,392042,322566
1051.61,0.084350,389823,321009
1055.31,0.083401,388234,320400
1059,0.082645,387599,320433
1063.92,0.082104,386688,320079
1067.61,0.080945,386598,320859
1071.29,0.081051,387377,321427
1074.96,0.080650,388536,322687
1078.63,0.079668,389855,324515
1082.3,0.078989,391215,326157
1085.96,0.078409,393215,328262
1090.84,0.077365,396270,331609
1094.49,0.077322,398760,333726
1098.14,0.076627,400987,336127
1101.79,0.076191,403477,338554
1105.43,0.075159,406116,341579
1109.06,0.074108,407701,343743
1112.7,0.074656,409859,345127
1117.53,0.074404,412494,347547
1121.15,0.074350,414909,349625
1124.77,0.074810,416559,350644
1128.38,0.076289,418532,351107
1131.99,0.077209,419956,351556
1135.6,0.078580,421946,352109
1139.2,0.079343,423881,353103
1143.99,0.081903,426786,353433
1147.58,0.081839,428617,355002
1151.17,0.083376,431169,355854
1154.75,0.084649,433579,356795
1158.33,0.085695,436264,358141
1161.91,0.086929,439132,359473
1165.48,0.089552,442389,359958
1169.04,0.091886,446101,361033
1173.79,0.095046,451929,363098
1177.34,0.097204,456026,364574
1180.9,0.099133,461306,367161
1184.44,0.100527,467657,371023
1187.99,0.102120,473969,374654
1191.52,0.102184,479856,379251
1195.06,0.101301,487372,385975
1199.76,0.101129,497347,394031
1203.29,0.100286,504311,400325
1206.81,0.100092,511507,406218
1210.33,0.099283,519078,413000
1213.84,0.098689,527163,420006
1217.35,0.098531,534208,425774
1220.85,0.097376,540472,431914
1225.51,0.096990,549929,439862
1229.01,0.096524,556888,445907
1232.5,0.095946,562180,450743
1235.98,0.095123,567975,456253
1239.46,0.093758,574815,463202
1242.94,0.093057,582782,470380
1246.41,0.092947,591476,477518
1251.03,0.092317,604016,488350
1254.5,0.092428,612289,494912
1257.96,0.093071,619125,499698
1261.41,0.093486,624551,503595
1264.86,0.093682,629900,507680
1268.31,0.094412,634345,510403
1271.75,0.095063,638574,513037
1276.33,0.095905,642499,515190
1279.76,0.095468,645905,518442
1283.19,0.094881,648307,521074
1286.61,0.094270,650446,523530
1290.03,0.094225,652132,524941
1293.44,0.093564,653907,527172
1296.85,0.093446,655963,528973
1301.39,0.092935,657349,530714
1304.8,0.092990,657558,530816
1308.19,0.093550,658515,530903
1311.58,0.093492,658804,531208
1314.97,0.093527,659011,531332
1318.36,0.094568,658272,529465
1321.73,0.094726,658022,529072
1326.23,0.095629,657870,527851
1329.6,0.095961,656482,526334
1332.97,0.096543,654926,524384
1336.33,0.097939,653727,521744
1339.69,0.099738,652497,518609
1343.04,0.100862,649913,515221
1346.39,0.102827,647671,511125
1349.73,0.105001,645338,506741
1354.18,0.107692,641175,500362
1357.52,0.109842,638376,495718
1360.85,0.111769,635805,491536
1364.17,0.114060,633413,487110
1367.49,0.115585,631026,483573
1370.81,0.118029,628050,478592
1374.12,0.119969,625034,474171
1378.54,0.122890,620272,467404
1381.84,0.126051,616892,461486
1385.14,0.129335,613613,455575
1388.43,0.133309,611526,449890
1391.72,0.136846,610663,445611
1395.01,0.141512,610634,440828
1398.29,0.145663,611700,437397
1402.66,0.152636,614051,432084
1405.93,0.157530,616268,428785
1409.2,0.161998,617795,425448
1412.46,0.166406,618872,421886
1415.72,0.170674,619795,418383
1418.98,0.174268,620495,415404
1422.23,0.177622,621087,412601
1426.56,0.181515,621375,409109
1429.8,0.184118,621616,406822
1433.04,0.186431,622129,404995
1436.27,0.188771,621526,402428
1439.5,0.190628,621113,400445
1442.72,0.193003,620921,398138
1445.94,0.195667,620270,395288
1450.23,0.199277,618860,391125
1453.44,0.201713,617697,388206
1456.64,0.204811,616264,384553
1459.85,0.206977,614413,381490
1463.04,0.210135,612307,377428
1466.24,0.213402,610032,373208
1469.43,0.217458,607345,368110
1473.67,0.223335,603789,361036
1476.85,0.228718,601175,355045
1480.02,0.235580,597737,347480
1483.19,0.240809,594479,341450
1486.36,0.246674,591232,335030
1489.52,0.251262,587853,329615
1492.68,0.254395,583875,325031
1496.89,0.257048,578062,319835
1500.03,0.257989,574159,316988
1503.18,0.257521,570285,315189
1506.32,0.256546,565444,313216
1509.45,0.255159,560571,311510
1512.58,0.253500,555821,310052
1515.71,0.250992,550344,308775
1519.87,0.247856,543983,307418
1522.99,0.245690,538764,305991
1526.1,0.242757,533692,305164
1529.21,0.240047,527902,303743
1532.32,0.237205,521886,302253
1535.42,0.235058,515888,300260
1538.51,0.232292,509987,298722
1541.6,0.228773,503936,297579
1545.72,0.224964,494694,294695
1548.8,0.221678,488378,293142
1551.88,0.219877,481832,290415
1554.95,0.218260,474989,287358
1558.02,0.216375,467818,284251
1561.08,0.214889,460730,280904
1564.15,0.214554,454170,277118
1568.22,0.213346,444181,271778
1571.27,0.212959,436947,267590
1574.32,0.212102,429598,263609
1577.36,0.210304,422039,260045
1580.4,0.209379,414375,255867
1583.43,0.207864,406354,251791
1586.46,0.206449,398475,247715
1590.49,0.204055,388982,243150
1593.51,0.203044,380708,238533
1596.53,0.200186,372727,235074
1599.54,0.198561,365060,231102
1602.55,0.196870,357543,227226
1605.55,0.195158,349495,222989
1608.55,0.192979,341154,218762
1612.54,0.191242,330877,213022
1615.53,0.189064,322904,208934
1618.51,0.189243,315116,203811
1621.49,0.187287,307217,199599
1624.47,0.186230,299481,195047
1627.44,0.186503,292112,190128
1630.41,0.184797,284245,185736
1634.36,0.182929,274079,179865
1637.32,0.181860,266916,175596
1640.27,0.181491,259612,170936
1643.22,0.180834,251804,166046
1646.16,0.179949,244348,161458
1649.1,0.180184,236703,156322
1652.04,0.178172,228171,151387
1655.95,0.175219,215408,143894
1658.88,0.171125,204937,138196
1661.8,0.166883,193395,131693
1664.72,0.158095,179728,124888
1667.63,0.145668,163642,117011
1670.54,0.130279,146312,108393
1673.44,0.114993,128451,98570
1677.31,0.097220,105080,84004
1680.21,0.083590,88906,73340
1683.1,0.077867,75033,62717
1685.99,0.078881,63520,52970
1688.87,0.083605,53714,44308
1691.75,0.087342,45653,37336
1694.62,0.091843,39137,31677
1697.49,0.098388,33776,26929
1701.31,0.101306,28175,22313

File: Column 1_050602_20150331_122426.csv
Method:,Column 1,,
Host Date-Time:,31/3/15 @ 12:24:26,,
Header Version:,1,,
System Temp (C):,34.02,,
Detector Temp (C):,34.77,,
Humidity (%):,1.76,,
Lamp PD:,3818,,
Shift Vector Coefficients:,-10.5391,0.0761263,-0.000134223,,
Pixel to Wavelength Coefficients:,1775.68,-0.916766,-0.000235065,,
Serial Number:,5510004,,
Scan Config Name:,Column 1,,
Scan Config Type:,Slew,,
Section 1,,
Start wavelength (nm):,900,,
End wavelength (nm):,1700,,
Pattern Pixel Width (nm):,   7.03,,,,
Exposure (ms):,  0.635,,,,
Digital Resolution:,228,,
Num Repeats:,6,,
PGA Gain:,64,,
Total Measurement Time in sec:,  2.670,,
Wavelength (nm),Absorbance (AU),Reference Signal (unitless),Sample Signal (unitless)
901.51,0.068862,108485,92578
905.376,0.078110,121306,101338
909.237,0.077821,131909,110269
913.095,0.077467,143299,119888
916.948,0.078618,156982,130988
922.079,0.080642,179937,149444
925.923,0.082012,200504,166001
929.762,0.082548,222660,184117
933.597,0.082495,244426,202140
937.427,0.081199,263972,218957
941.254,0.080329,281845,234251
945.076,0.079691,297271,247435
950.165,0.078485,315605,263426
953.978,0.078021,328029,274089
957.786,0.078805,340470,283971
961.59,0.077862,352317,294491
965.389,0.077968,363056,303393
969.185,0.077988,373162,311824
972.976,0.077868,382632,319826
976.763,0.079064,391202,326090
981.806,0.079448,400190,333287
985.583,0.079777,406088,337943
989.355,0.080697,410162,340611
993.124,0.081623,412868,342128
996.888,0.081185,414263,343630
1000.65,0.082200,415476,343832
1004.4,0.083679,415479,342665
1009.41,0.085097,414358,340627
1013.15,0.085077,412923,339463
1016.89,0.085432,411526,338038
1020.63,0.085547,409066,335928
1024.36,0.085154,406777,334351
1028.09,0.085048,404427,332500
1031.82,0.085553,401911,330048
1036.78,0.085078,398410,327531
1040.49,0.084825,396204,325907
1044.2,0.084551,394236,324493
1047.91,0.084312,392042,322865
1051.61,0.083832,389823,321392
1055.31,0.083150,388234,320585
1059,0.083097,387599,320100
1063.92,0.082171,386688,320029
1067.61,0.081722,386598,320286
1071.29,0.081285,387377,321254
1074.96,0.080572,388536,322745
1078.63,0.080436,389855,323942
1082.3,0.079219,391215,325984
1085.96,0.078052,393215,328532
1090.84,0.077166,396270,331761
1094.49,0.076809,398760,334120
1098.14,0.076580,400987,336163
1101.79,0.075742,403477,338904
1105.43,0.075378,406116,341407
1109.06,0.074582,407701,343368
1112.7,0.074284,409859,345422
1117.53,0.074610,412494,347382
1121.15,0.074800,414909,349263
1124.77,0.074691,416559,350740
1128.38,0.075474,418532,351767
1131.99,0.076797,419956,351890
1135.6,0.077891,421946,352668
1139.2,0.080008,423881,352562
1143.99,0.080982,426786,354183
1147.58,0.082295,428617,354629
1151.17,0.082904,431169,356241
1154.75,0.084119,433579,357231
1158.33,0.085337,436264,358437
1161.91,0.087135,439132,359302
1165.48,0.089355,442389,360122
1169.04,0.091640,446101,361238
1173.79,0.095085,451929,363066
1177.34,0.097367,456026,364437
1180.9,0.099536,461306,366820
1184.44,0.100858,467657,370740
1187.99,0.102014,473969,374745
1191.52,0.101903,479856,379497
1195.06,0.101526,487372,385775
1199.76,0.101218,497347,393950
1203.29,0.099934,504311,400649
1206.81,0.100191,511507,406126
1210.33,0.099424,519078,412866
1213.84,0.099062,527163,419646
1217.35,0.098112,534208,426185
1220.85,0.097278,540472,432011
1225.51,0.096243,549929,440619
1229.01,0.096152,556888,446289
1232.5,0.095642,562180,451059
1235.98,0.094899,567975,456489
1239.46,0.093815,574815,463141
1242.94,0.093141,582782,470289
1246.41,0.092341,591476,478185
1251.03,0.092171,604016,488514
1254.5,0.092889,612289,494388
1257.96,0.092887,619125,499909
1261.41,0.093509,624551,503569
1264.86,0.093894,629900,507432
1268.31,0.094411,634345,510404
1271.75,0.095368,638574,512676
1276.33,0.095308,642499,515899
1279.76,0.095159,645905,518812
1283.19,0.094735,648307,521250
1286.61,0.094106,650446,523727
1290.03,0.093790,652132,525467
1293.44,0.093673,653907,527039
1296.85,0.093384,655963,529048
1301.39,0.092672,657349,531036
1304.8,0.092777,657558,531077
1308.19,0.093452,658515,531024
1311.58,0.093276,658804,531472
1314.97,0.093362,659011,531534
1318.36,0.094617,658272,529406
1321.73,0.094169,658022,529750
1326.23,0.095483,657870,528028
1329.6,0.096085,656482,526184
1332.97,0.096882,654926,523974
1336.33,0.098056,653727,521604
1339.69,0.099750,652497,518595
1343.04,0.101000,649913,515057
1346.39,0.103020,647671,510898
1349.73,0.104932,645338,506822
1354.18,0.107854,641175,500176
1357.52,0.109697,638376,495883
1360.85,0.111518,635805,491820
1364.17,0.113621,633413,487602
1367.49,0.115756,631026,483383
1370.81,0.117962,628050,478666
1374.12,0.120330,625034,473777
1378.54,0.123091,620272,467187
1381.84,0.125786,616892,461767
1385.14,0.129293,613613,455619
1388.43,0.132833,611526,450383
1391.72,0.137632,610663,444805
1395.01,0.141371,610634,440971
1398.29,0.145711,611700,437348
1402.66,0.151612,614051,433104
1405.93,0.157138,616268,429172
1409.2,0.161909,617795,425535
1412.46,0.166428,618872,421864
1415.72,0.170584,619795,418470
1418.98,0.173985,620495,415674
1422.23,0.177378,621087,412833
1426.56,0.181678,621375,408955
1429.8,0.184310,621616,406642
1433.04,0.186781,622129,404669
1436.27,0.188762,621526,402436
1439.5,0.190575,621113,400494
1442.72,0.193043,620921,398101
1445.94,0.195646,620270,395307
1450.23,0.198672,618860,391670
1453.44,0.202347,617697,387640
1456.64,0.204780,616264,384580
1459.85,0.207183,614413,381309
1463.04,0.209944,612307,377594
1466.24,0.213227,610032,373358
1469.43,0.217113,607345,368402
1473.67,0.223514,603789,360887
1476.85,0.228667,601175,355086
1480.02,0.234992,597737,347951
1483.19,0.241303,594479,341062
1486.36,0.246598,591232,335089
1489.52,0.251031,587853,329790
1492.68,0.255038,583875,324550
1496.89,0.256106,578062,320530
1500.03,0.257444,574159,317386
1503.18,0.257057,570285,315526
1506.32,0.256408,565444,313315
1509.45,0.256166,560571,310788
1512.58,0.253122,555821,310322
1515.71,0.251143,550344,308668
1519.87,0.248163,543983,307201
1522.99,0.246096,538764,305705
1526.1,0.243197,533692,304855
1529.21,0.240043,527902,303746
1532.32,0.237559,521886,302007
1535.42,0.234890,515888,300376
1538.51,0.231640,509987,299171
1541.6,0.228620,503936,297684
1545.72,0.225465,494694,294355
1548.8,0.222578,488378,292535
1551.88,0.219419,481832,290721
1554.95,0.218294,474989,287336
1558.02,0.216059,467818,284458
1561.08,0.214700,460730,281026
1564.15,0.215106,454170,276766
1568.22,0.212635,444181,272223
1571.27,0.212417,436947,267924
1574.32,0.212031,429598,263652
1577.36,0.211068,422039,259588
1580.4,0.209712,414375,255671
1583.43,0.207728,406354,251870
1586.46,0.205470,398475,248274
1590.49,0.204034,388982,243162
1593.51,0.202605,380708,238774
1596.53,0.201102,372727,234579
1599.54,0.198307,365060,231237
1602.55,0.196809,357543,227258
1605.55,0.195027,349495,223056
1608.55,0.192933,341154,218785
1612.54,0.191550,330877,212871
1615.53,0.189628,322904,208663
1618.51,0.187909,315116,204438
1621.49,0.187677,307217,199420
1624.47,0.185694,299481,195288
1627.44,0.185531,292112,190554
1630.41,0.184362,284245,185922
1634.36,0.183183,274079,179760
1637.32,0.182036,266916,175525
1640.27,0.182336,259612,170604
1643.22,0.180719,251804,166090
1646.16,0.178695,244348,161925
1649.1,0.178584,236703,156899
1652.04,0.177636,228171,151574
1655.95,0.174230,215408,144222
1658.88,0.170321,204937,138452
1661.8,0.165381,193395,132149
1664.72,0.158885,179728,124661
1667.63,0.145794,163642,116977
1670.54,0.131937,146312,107980
1673.44,0.113818,128451,98837
1677.31,0.095214,105080,84393
1680.21,0.085097,88906,73086
1683.1,0.078255,75033,62661
1685.99,0.078733,63520,52988
1688.87,0.088594,53714,43802
1691.75,0.089779,45653,37127
1694.62,0.096308,39137,31353
1697.49,0.096377,33776,27054
1701.31,0.112524,28175,21744