Folder: textile_sorting_NIRSCAN_/samples/wool/wool-000811 (part 45)

File: Column 1_050555_20150331_120217.csv
Method:,Column 1,,
Host Date-Time:,31/3/15 @ 12:2:17,,
Header Version:,1,,
System Temp (C):,33.5,,
Detector Temp (C):,32.6,,
Humidity (%):,2.44,,
Lamp PD:,3820,,
Shift Vector Coefficients:,-10.5391,0.0761263,-0.000134223,,
Pixel to Wavelength Coefficients:,1775.68,-0.916766,-0.000235065,,
Serial Number:,5510004,,
Scan Config Name:,Column 1,,
Scan Config Type:,Slew,,
Section 1,,
Start wavelength (nm):,900,,
End wavelength (nm):,1700,,
Pattern Pixel Width (nm):,   7.03,,,,
Exposure (ms):,  0.635,,,,
Digital Resolution:,228,,
Num Repeats:,6,,
PGA Gain:,64,,
Total Measurement Time in sec:,  2.725,,
Wavelength (nm),Absorbance (AU),Reference Signal (unitless),Sample Signal (unitless)
901.51,0.033537,108485,100423
905.376,0.040606,121306,110478
909.237,0.041879,131909,119783
913.095,0.042838,143299,129839
916.948,0.042712,156982,142278
922.079,0.044588,179937,162380
925.923,0.045718,200504,180470
929.762,0.045953,222660,200304
933.597,0.046118,244426,219801
937.427,0.045686,263972,237614
941.254,0.045269,281845,253946
945.076,0.045318,297271,267815
950.165,0.045674,315605,284099
953.978,0.045089,328029,295681
957.786,0.045770,340470,306414
961.59,0.046181,352317,316776
965.389,0.046591,363056,326124
969.185,0.046175,373162,335523
972.976,0.047001,382632,343384
976.763,0.047641,391202,350558
981.806,0.048541,400190,357870
985.583,0.048625,406088,363074
989.355,0.049345,410162,366109
993.124,0.050256,412868,367752
996.888,0.050506,414263,368782
1000.65,0.051487,415476,369028
1004.4,0.052490,415479,368179
1009.41,0.053822,414358,366061
1013.15,0.054180,412923,364493
1016.89,0.054947,411526,362619
1020.63,0.054856,409066,360527
1024.36,0.054607,406777,358715
1028.09,0.054600,404427,356648
1031.82,0.054460,401911,354544
1036.78,0.054055,398410,351783
1040.49,0.053435,396204,350335
1044.2,0.053638,394236,348432
1047.91,0.052882,392042,347097
1051.61,0.052639,389823,345325
1055.31,0.051751,388234,344622
1059,0.051651,387599,344137
1063.92,0.050532,386688,344214
1067.61,0.049295,386598,345116
1071.29,0.048256,387377,346639
1074.96,0.049138,388536,346971
1078.63,0.048105,389855,348978
1082.3,0.046683,391215,351344
1085.96,0.047035,393215,352854
1090.84,0.045280,396270,357035
1094.49,0.045466,398760,359125
1098.14,0.045088,400987,361445
1101.79,0.044605,403477,364094
1105.43,0.045316,406116,365876
1109.06,0.044050,407701,368376
1112.7,0.043945,409859,370416
1117.53,0.044515,412494,372308
1121.15,0.044608,414909,374408
1124.77,0.045981,416559,374710
1128.38,0.047116,418532,375502
1131.99,0.048478,419956,375600
1135.6,0.050278,421946,375819
1139.2,0.052228,423881,375851
1143.99,0.054224,426786,376692
1147.58,0.055358,428617,377321
1151.17,0.056133,431169,378891
1154.75,0.058234,433579,379170
1158.33,0.059604,436264,380317
1161.91,0.062235,439132,380505
1165.48,0.064149,442389,381641
1169.04,0.066587,446101,382689
1173.79,0.071015,451929,383756
1177.34,0.072283,456026,386106
1180.9,0.075250,461306,387917
1184.44,0.077423,467657,391295
1187.99,0.077906,473969,396136
1191.52,0.077565,479856,401371
1195.06,0.077679,487372,407551
1199.76,0.076549,497347,416975
1203.29,0.075795,504311,423549
1206.81,0.074861,511507,430517
1210.33,0.074043,519078,437713
1213.84,0.073190,527163,445405
1217.35,0.072653,534208,451916
1220.85,0.071779,540472,458136
1225.51,0.071325,549929,466640
1229.01,0.069739,556888,474274
1232.5,0.069350,562180,479210
1235.98,0.068902,567975,484649
1239.46,0.068153,574815,491332
1242.94,0.067074,582782,499381
1246.41,0.066499,591476,507503
1251.03,0.066192,604016,518629
1254.5,0.066399,612289,525482
1257.96,0.066842,619125,530807
1261.41,0.067355,624551,534826
1264.86,0.067841,629900,538804
1268.31,0.068429,634345,541872
1271.75,0.069183,638574,544538
1276.33,0.069625,642499,547328
1279.76,0.069498,645905,550390
1283.19,0.069007,648307,553062
1286.61,0.068447,650446,555602
1290.03,0.068404,652132,557098
1293.44,0.067751,653907,559455
1296.85,0.067492,655963,561548
1301.39,0.067558,657349,562650
1304.8,0.068005,657558,562250
1308.19,0.067805,658515,563327
1311.58,0.067785,658804,563600
1314.97,0.068660,659011,562643
1318.36,0.069217,658272,561292
1321.73,0.069402,658022,560839
1326.23,0.070652,657870,559098
1329.6,0.071393,656482,556968
1332.97,0.072618,654926,554082
1336.33,0.073845,653727,551508
1339.69,0.075894,652497,547879
1343.04,0.077369,649913,543859
1346.39,0.079614,647671,539188
1349.73,0.081958,645338,534354
1354.18,0.085393,641175,526725
1357.52,0.087443,638376,521956
1360.85,0.089417,635805,517496
1364.17,0.091946,633413,512556
1367.49,0.094511,631026,507617
1370.81,0.096754,628050,502620
1374.12,0.099068,625034,497549
1378.54,0.103284,620272,488988
1381.84,0.106758,616892,482449
1385.14,0.110126,613613,476177
1388.43,0.115460,611526,468765
1391.72,0.120724,610663,462464
1395.01,0.125263,610634,457634
1398.29,0.131248,611700,452158
1402.66,0.139022,614051,445844
1405.93,0.145723,616268,440602
1409.2,0.150824,617795,436536
1412.46,0.156977,618872,431145
1415.72,0.161543,619795,427273
1418.98,0.165815,620495,423568
1422.23,0.170255,621087,419660
1426.56,0.174464,621375,415805
1429.8,0.177815,621616,412769
1433.04,0.180514,622129,410550
1436.27,0.182973,621526,407837
1439.5,0.185264,621113,405421
1442.72,0.187961,620921,402787
1445.94,0.190116,620270,400373
1450.23,0.194301,618860,395632
1453.44,0.197158,617697,392299
1456.64,0.199876,616264,388947
1459.85,0.202418,614413,385516
1463.04,0.204974,612307,381940
1466.24,0.208108,610032,377785
1469.43,0.211453,607345,373235
1473.67,0.217080,603789,366273
1476.85,0.221993,601175,360585
1480.02,0.228293,597737,353360
1483.19,0.234067,594479,346792
1486.36,0.240084,591232,340153
1489.52,0.245433,587853,334069
1492.68,0.248059,583875,329808
1496.89,0.250448,578062,324733
1500.03,0.250536,574159,322475
1503.18,0.250691,570285,320185
1506.32,0.250151,565444,317862
1509.45,0.248695,560571,316181
1512.58,0.247020,555821,314713
1515.71,0.245093,550344,312998
1519.87,0.241686,543983,311817
1522.99,0.239088,538764,310678
1526.1,0.236328,533692,309715
1529.21,0.233602,527902,308284
1532.32,0.230293,521886,307102
1535.42,0.227666,515888,305414
1538.51,0.224149,509987,304376
1541.6,0.221531,503936,302583
1545.72,0.216348,494694,300600
1548.8,0.213599,488378,298646
1551.88,0.211223,481832,296260
1554.95,0.209096,474989,293486
1558.02,0.206763,467818,290612
1561.08,0.205126,460730,287290
1564.15,0.204696,454170,283480
1568.22,0.203033,444181,278309
1571.27,0.203181,436947,273683
1574.32,0.202521,429598,269489
1577.36,0.200526,422039,265966
1580.4,0.199256,414375,261901
1583.43,0.197149,406354,258081
1586.46,0.194985,398475,254341
1590.49,0.193796,388982,248962
1593.51,0.190978,380708,245253
1596.53,0.189082,372727,241162
1599.54,0.186463,365060,237630
1602.55,0.183884,357543,234123
1605.55,0.181949,349495,229875
1608.55,0.180135,341154,225328
1612.54,0.177617,330877,219811
1615.53,0.176140,322904,215245
1618.51,0.175053,315116,210580
1621.49,0.173357,307217,206105
1624.47,0.171928,299481,201577
1627.44,0.171271,292112,196915
1630.41,0.170315,284245,192034
1634.36,0.168459,274079,185959
1637.32,0.166977,266916,181718
1640.27,0.167191,259612,176658
1643.22,0.165168,251804,172145
1646.16,0.164087,244348,167464
1649.1,0.163107,236703,162591
1652.04,0.163136,228171,156720
1655.95,0.160711,215408,148782
1658.88,0.157446,204937,142618
1661.8,0.153977,193395,135665
1664.72,0.148520,179728,127672
1667.63,0.140994,163642,118277
1670.54,0.130724,146312,108282
1673.44,0.120647,128451,97295
1677.31,0.107574,105080,82025
1680.21,0.101655,88906,70352
1683.1,0.100159,75033,59579
1685.99,0.104740,63520,49908
1688.87,0.109046,53714,41787
1691.75,0.114918,45653,35039
1694.62,0.117018,39137,29893
1697.49,0.121489,33776,25534
1701.31,0.129261,28175,20922

File: Column 1_050555_20150331_120225.csv
Method:,Column 1,,
Host Date-Time:,31/3/15 @ 12:2:25,,
Header Version:,1,,
System Temp (C):,33.47,,
Detector Temp (C):,32.57,,
Humidity (%):,2.44,,
Lamp PD:,3820,,
Shift Vector Coefficients:,-10.5391,0.0761263,-0.000134223,,
Pixel to Wavelength Coefficients:,1775.68,-0.916766,-0.000235065,,
Serial Number:,5510004,,
Scan Config Name:,Column 1,,
Scan Config Type:,Slew,,
Section 1,,
Start wavelength (nm):,900,,
End wavelength (nm):,1700,,
Pattern Pixel Width (nm):,   7.03,,,,
Exposure (ms):,  0.635,,,,
Digital Resolution:,228,,
Num Repeats:,6,,
PGA Gain:,64,,
Total Measurement Time in sec:,  2.676,,
Wavelength (nm),Absorbance (AU),Reference Signal (unitless),Sample Signal (unitless)
901.51,0.034623,108485,100172
905.376,0.038720,121306,110959
909.237,0.041792,131909,119807
913.095,0.043045,143299,129777
916.948,0.043210,156982,142115
922.079,0.044920,179937,162256
925.923,0.046106,200504,180309
929.762,0.046445,222660,200077
933.597,0.046268,244426,219725
937.427,0.046222,263972,237321
941.254,0.045957,281845,253544
945.076,0.045451,297271,267733
950.165,0.045650,315605,284115
953.978,0.044857,328029,295839
957.786,0.045760,340470,306421
961.59,0.046661,352317,316426
965.389,0.046173,363056,326438
969.185,0.046523,373162,335254
972.976,0.047312,382632,343138
976.763,0.047873,391202,350371
981.806,0.048367,400190,358013
985.583,0.049059,406088,362711
989.355,0.049795,410162,365730
993.124,0.050057,412868,367921
996.888,0.050728,414263,368594
1000.65,0.051387,415476,369113
1004.4,0.052596,415479,368089
1009.41,0.054576,414358,365426
1013.15,0.053968,412923,364671
1016.89,0.055238,411526,362376
1020.63,0.054710,409066,360648
1024.36,0.054742,406777,358603
1028.09,0.054744,404427,356530
1031.82,0.054220,401911,354740
1036.78,0.053561,398410,352184
1040.49,0.053985,396204,349892
1044.2,0.053561,394236,348494
1047.91,0.053059,392042,346955
1051.61,0.052805,389823,345193
1055.31,0.051749,388234,344623
1059,0.051437,387599,344307
1063.92,0.050455,386688,344275
1067.61,0.049714,386598,344783
1071.29,0.048887,387377,346136
1074.96,0.048147,388536,347764
1078.63,0.048376,389855,348760
1082.3,0.047245,391215,350890
1085.96,0.046258,393215,353486
1090.84,0.045848,396270,356569
1094.49,0.045166,398760,359373
1098.14,0.044938,400987,361570
1101.79,0.045058,403477,363715
1105.43,0.044842,406116,366276
1109.06,0.044647,407701,367870
1112.7,0.044049,409859,370327
1117.53,0.044672,412494,372174
1121.15,0.044543,414909,374464
1124.77,0.045507,416559,375119
1128.38,0.047363,418532,375289
1131.99,0.048830,419956,375296
1135.6,0.050262,421946,375833
1139.2,0.052017,423881,376034
1143.99,0.054504,426786,376449
1147.58,0.055726,428617,377002
1151.17,0.057119,431169,378032
1154.75,0.058132,433579,379259
1158.33,0.059884,436264,380072
1161.91,0.062044,439132,380672
1165.48,0.064730,442389,381131
1169.04,0.067135,446101,382207
1173.79,0.070549,451929,384168
1177.34,0.073268,456026,385231
1180.9,0.075422,461306,387764
1184.44,0.077221,467657,391477
1187.99,0.078273,473969,395801
1191.52,0.078304,479856,400689
1195.06,0.077690,487372,407540
1199.76,0.077119,497347,416429
1203.29,0.075769,504311,423574
1206.81,0.074849,511507,430529
1210.33,0.073935,519078,437822
1213.84,0.073402,527163,445187
1217.35,0.072673,534208,451895
1220.85,0.071784,540472,458130
1225.51,0.070898,549929,467099
1229.01,0.070349,556888,473608
1232.5,0.069601,562180,478933
1235.98,0.069111,567975,484416
1239.46,0.067708,574815,491836
1242.94,0.067191,582782,499247
1246.41,0.066276,591476,507763
1251.03,0.065783,604016,519117
1254.5,0.066643,612289,525186
1257.96,0.066747,619125,530923
1261.41,0.067544,624551,534594
1264.86,0.067830,629900,538817
1268.31,0.068439,634345,541859
1271.75,0.069393,638574,544275
1276.33,0.069772,642499,547142
1279.76,0.069640,645905,550210
1283.19,0.068900,648307,553198
1286.61,0.068766,650446,555195
1290.03,0.068176,652132,557391
1293.44,0.067826,653907,559358
1296.85,0.067428,655963,561631
1301.39,0.067411,657349,562840
1304.8,0.067581,657558,562799
1308.19,0.067841,658515,563280
1311.58,0.067909,658804,563440
1314.97,0.068616,659011,562700
1318.36,0.069159,658272,561366
1321.73,0.069679,658022,560482
1326.23,0.070200,657870,559681
1329.6,0.071566,656482,556745
1332.97,0.072230,654926,554577
1336.33,0.073690,653727,551704
1339.69,0.075377,652497,548531
1343.04,0.077616,649913,543550
1346.39,0.080030,647671,538672
1349.73,0.082073,645338,534213
1354.18,0.085165,641175,527001
1357.52,0.087764,638376,521570
1360.85,0.089757,635805,517091
1364.17,0.091991,633413,512503
1367.49,0.094264,631026,507906
1370.81,0.096911,628050,502439
1374.12,0.099368,625034,497205
1378.54,0.102794,620272,489540
1381.84,0.106611,616892,482612
1385.14,0.110932,613613,475294
1388.43,0.115188,611526,469058
1391.72,0.120403,610663,462806
1395.01,0.125435,610634,457453
1398.29,0.131466,611700,451931
1402.66,0.139837,614051,445008
1405.93,0.145403,616268,440927
1409.2,0.151558,617795,435799
1412.46,0.156921,618872,431201
1415.72,0.161977,619795,426846
1418.98,0.166537,620495,422865
1422.23,0.170183,621087,419729
1426.56,0.174554,621375,415719
1429.8,0.177329,621616,413231
1433.04,0.180382,622129,410675
1436.27,0.182636,621526,408153
1439.5,0.184809,621113,405846
1442.72,0.187482,620921,403231
1445.94,0.189899,620270,400573
1450.23,0.193894,618860,396003
1453.44,0.196533,617697,392864
1456.64,0.199339,616264,389429
1459.85,0.202321,614413,385602
1463.04,0.205129,612307,381804
1466.24,0.208436,610032,377500
1469.43,0.211467,607345,373223
1473.67,0.216606,603789,366673
1476.85,0.222293,601175,360336
1480.02,0.228061,597737,353549
1483.19,0.234299,594479,346607
1486.36,0.239506,591232,340606
1489.52,0.245104,587853,334322
1492.68,0.247764,583875,330032
1496.89,0.250675,578062,324563
1500.03,0.250408,574159,322570
1503.18,0.251224,570285,319792
1506.32,0.249579,565444,318281
1509.45,0.248589,560571,316258
1512.58,0.246925,555821,314782
1515.71,0.244961,550344,313093
1519.87,0.241108,543983,312232
1522.99,0.238761,538764,310912
1526.1,0.236136,533692,309852
1529.21,0.233805,527902,308140
1532.32,0.230566,521886,306909
1535.42,0.227854,515888,305282
1538.51,0.224441,509987,304171
1541.6,0.220834,503936,303069
1545.72,0.217263,494694,299967
1548.8,0.213438,488378,298757
1551.88,0.210481,481832,296766
1554.95,0.208993,474989,293556
1558.02,0.206965,467818,290477
1561.08,0.206151,460730,286613
1564.15,0.205078,454170,283231
1568.22,0.203022,444181,278316
1571.27,0.203051,436947,273765
1574.32,0.200966,429598,270456
1577.36,0.200757,422039,265825
1580.4,0.198559,414375,262322
1583.43,0.196689,406354,258354
1586.46,0.195990,398475,253753
1590.49,0.192708,388982,249587
1593.51,0.191332,380708,245053
1596.53,0.188888,372727,241270
1599.54,0.186750,365060,237473
1602.55,0.184448,357543,233819
1605.55,0.182435,349495,229618
1608.55,0.179509,341154,225653
1612.54,0.178234,330877,219499
1615.53,0.175654,322904,215486
1618.51,0.173949,315116,211116
1621.49,0.172978,307217,206285
1624.47,0.171517,299481,201768
1627.44,0.171573,292112,196778
1630.41,0.169718,284245,192298
1634.36,0.168251,274079,186048
1637.32,0.165555,266916,182314
1640.27,0.165596,259612,177308
1643.22,0.164601,251804,172370
1646.16,0.164266,244348,167395
1649.1,0.163647,236703,162389
1652.04,0.162518,228171,156943
1655.95,0.159863,215408,149073
1658.88,0.156710,204937,142860
1661.8,0.154580,193395,135477
1664.72,0.150149,179728,127194
1667.63,0.139418,163642,118707
1670.54,0.130411,146312,108360
1673.44,0.118097,128451,97868
1677.31,0.108056,105080,81934
1680.21,0.101963,88906,70302
1683.1,0.100881,75033,59480
1685.99,0.108393,63520,49490
1688.87,0.107594,53714,41927
1691.75,0.112976,45653,35196
1694.62,0.122677,39137,29506
1697.49,0.121779,33776,25517
1701.31,0.125993,28175,21080

File: Column 1_050556_20150331_120231.csv
Method:,Column 1,,
Host Date-Time:,31/3/15 @ 12:2:31,,
Header Version:,1,,
System Temp (C):,33.49,,
Detector Temp (C):,32.66,,
Humidity (%):,2.44,,
Lamp PD:,3820,,
Shift Vector Coefficients:,-10.5391,0.0761263,-0.000134223,,
Pixel to Wavelength Coefficients:,1775.68,-0.916766,-0.000235065,,
Serial Number:,5510004,,
Scan Config Name:,Column 1,,
Scan Config Type:,Slew,,
Section 1,,
Start wavelength (nm):,900,,
End wavelength (nm):,1700,,
Pattern Pixel Width (nm):,   7.03,,,,
Exposure (ms):,  0.635,,,,
Digital Resolution:,228,,
Num Repeats:,6,,
PGA Gain:,64,,
Total Measurement Time in sec:,  2.676,,
Wavelength (nm),Absorbance (AU),Reference Signal (unitless),Sample Signal (unitless)
901.51,0.034701,108485,100154
905.376,0.039100,121306,110862
909.237,0.041495,131909,119889
913.095,0.041946,143299,130106
916.948,0.042901,156982,142216
922.079,0.045171,179937,162162
925.923,0.045718,200504,180470
929.762,0.047678,222660,199510
933.597,0.046794,244426,219459
937.427,0.045830,263972,237535
941.254,0.046324,281845,253330
945.076,0.045775,297271,267533
950.165,0.045601,315605,284147
953.978,0.045146,328029,295642
957.786,0.044880,340470,307043
961.59,0.045733,352317,317103
965.389,0.046128,363056,326472
969.185,0.045963,373162,335687
972.976,0.046728,382632,343600
976.763,0.048283,391202,350040
981.806,0.048209,400190,358144
985.583,0.049071,406088,362701
989.355,0.050034,410162,365529
993.124,0.050786,412868,367304
996.888,0.050538,414263,368755
1000.65,0.051457,415476,369053
1004.4,0.052234,415479,368396
1009.41,0.053903,414358,365993
1013.15,0.054475,412923,364245
1016.89,0.055292,411526,362331
1020.63,0.055138,409066,360293
1024.36,0.055200,406777,358225
1028.09,0.054391,404427,356820
1031.82,0.054746,401911,354310
1036.78,0.053915,398410,351897
1040.49,0.053530,396204,350259
1044.2,0.053223,394236,348765
1047.91,0.052752,392042,347201
1051.61,0.052426,389823,345495
1055.31,0.052362,388234,344137
1059,0.051326,387599,344395
1063.92,0.050644,386688,344125
1067.61,0.049668,386598,344819
1071.29,0.049035,387377,346018
1074.96,0.048188,388536,347731
1078.63,0.048511,389855,348652
1082.3,0.047171,391215,350949
1085.96,0.045677,393215,353959
1090.84,0.045704,396270,356687
1094.49,0.045992,398760,358690
1098.14,0.045745,400987,360899
1101.79,0.045157,403477,363632
1105.43,0.044761,406116,366344
1109.06,0.044493,407701,368001
1112.7,0.044490,409859,369951
1117.53,0.044223,412494,372559
1121.15,0.044922,414909,374137
1124.77,0.045482,416559,375141
1128.38,0.046706,418532,375857
1131.99,0.048418,419956,375652
1135.6,0.050495,421946,375631
1139.2,0.052009,423881,376041
1143.99,0.054155,426786,376752
1147.58,0.055470,428617,377224
1151.17,0.057014,431169,378123
1154.75,0.058213,433579,379189
1158.33,0.059445,436264,380456
1161.91,0.061733,439132,380945
1165.48,0.064744,442389,381119
1169.04,0.066835,446101,382471
1173.79,0.070905,451929,383853
1177.34,0.073175,456026,385314
1180.9,0.075312,461306,387862
1184.44,0.076981,467657,391694
1187.99,0.078266,473969,395807
1191.52,0.077577,479856,401360
1195.06,0.076840,487372,408339
1199.76,0.076377,497347,417141
1203.29,0.075649,504311,423691
1206.81,0.075150,511507,430231
1210.33,0.073961,519078,437796
1213.84,0.073267,527163,445326
1217.35,0.072728,534208,451838
1220.85,0.071844,540472,458067
1225.51,0.070881,549929,467117
1229.01,0.070456,556888,473491
1232.5,0.069743,562180,478776
1235.98,0.069295,567975,484211
1239.46,0.067891,574815,491628
1242.94,0.066865,582782,499621
1246.41,0.066475,591476,507530
1251.03,0.065953,604016,518914
1254.5,0.066292,612289,525611
1257.96,0.066830,619125,530821
1261.41,0.067418,624551,534749
1264.86,0.067834,629900,538812
1268.31,0.068701,634345,541533
1271.75,0.069425,638574,544235
1276.33,0.069589,642499,547373
1279.76,0.070037,645905,549708
1283.19,0.068906,648307,553190
1286.61,0.068748,650446,555217
1290.03,0.068177,652132,557389
1293.44,0.067743,653907,559465
1296.85,0.067641,655963,561356
1301.39,0.067660,657349,562518
1304.8,0.067679,657558,562672
1308.19,0.067869,658515,563244
1311.58,0.068050,658804,563257
1314.97,0.068580,659011,562746
1318.36,0.069288,658272,561199
1321.73,0.069267,658022,561013
1326.23,0.070919,657870,558755
1329.6,0.071736,656482,556528
1332.97,0.072232,654926,554575
1336.33,0.074120,653727,551158
1339.69,0.075722,652497,548096
1343.04,0.077702,649913,543442
1346.39,0.079873,647671,538867
1349.73,0.082083,645338,534200
1354.18,0.085051,641175,527140
1357.52,0.087499,638376,521888
1360.85,0.089892,635805,516930
1364.17,0.091697,633413,512849
1367.49,0.094375,631026,507776
1370.81,0.097101,628050,502219
1374.12,0.099366,625034,497207
1378.54,0.102840,620272,489488
1381.84,0.106589,616892,482636
1385.14,0.110927,613613,475300
1388.43,0.115385,611526,468846
1391.72,0.120539,610663,462661
1395.01,0.125640,610634,457237
1398.29,0.131465,611700,451932
1402.66,0.139264,614051,445595
1405.93,0.145315,616268,441016
1409.2,0.151268,617795,436090
1412.46,0.156501,618872,431618
1415.72,0.161802,619795,427018
1418.98,0.166009,620495,423379
1422.23,0.169626,621087,420268
1426.56,0.173913,621375,416333
1429.8,0.177342,621616,413219
1433.04,0.179973,622129,411062
1436.27,0.182602,621526,408185
1439.5,0.184924,621113,405739
1442.72,0.187435,620921,403275
1445.94,0.189544,620270,400901
1450.23,0.193100,618860,396728
1453.44,0.196580,617697,392822
1456.64,0.199132,616264,389614
1459.85,0.201773,614413,386089
1463.04,0.204621,612307,382251
1466.24,0.207827,610032,378029
1469.43,0.211341,607345,373331
1473.67,0.216660,603789,366628
1476.85,0.221643,601175,360876
1480.02,0.227518,597737,353991
1483.19,0.233896,594479,346929
1486.36,0.239877,591232,340315
1489.52,0.244455,587853,334822
1492.68,0.248157,583875,329733
1496.89,0.250282,578062,324857
1500.03,0.250702,574159,322352
1503.18,0.250317,570285,320461
1506.32,0.249807,565444,318114
1509.45,0.249268,560571,315764
1512.58,0.247524,555821,314348
1515.71,0.244836,550344,313183
1519.87,0.241928,543983,311643
1522.99,0.239373,538764,310474
1526.1,0.236256,533692,309767
1529.21,0.233255,527902,308531
1532.32,0.229629,521886,307572
1535.42,0.227028,515888,305863
1538.51,0.223979,509987,304495
1541.6,0.221448,503936,302641
1545.72,0.216731,494694,300335
1548.8,0.213036,488378,299034
1551.88,0.211504,481832,296068
1554.95,0.208556,474989,293851
1558.02,0.207393,467818,290191
1561.08,0.206252,460730,286546
1564.15,0.204699,454170,283478
1568.22,0.203723,444181,277867
1571.27,0.202439,436947,274151
1574.32,0.201969,429598,269832
1577.36,0.200789,422039,265805
1580.4,0.199630,414375,261676
1583.43,0.197043,406354,258144
1586.46,0.196315,398475,253563
1590.49,0.192387,388982,249771
1593.51,0.191332,380708,245053
1596.53,0.188610,372727,241424
1599.54,0.187336,365060,237153
1602.55,0.183556,357543,234300
1605.55,0.182626,349495,229517
1608.55,0.180166,341154,225312
1612.54,0.178390,330877,219420
1615.53,0.175777,322904,215425
1618.51,0.174559,315116,210820
1621.49,0.174072,307217,205766
1624.47,0.171965,299481,201560
1627.44,0.170396,292112,197312
1630.41,0.168746,284245,192729
1634.36,0.168998,274079,185728
1637.32,0.167474,266916,181510
1640.27,0.166187,259612,177067
1643.22,0.165448,251804,172034
1646.16,0.164484,244348,167311
1649.1,0.164089,236703,162224
1652.04,0.162513,228171,156945
1655.95,0.159752,215408,149111
1658.88,0.158977,204937,142116
1661.8,0.153494,193395,135816
1664.72,0.149821,179728,127290
1667.63,0.139788,163642,118606
1670.54,0.131298,146312,108139
1673.44,0.118416,128451,97796
1677.31,0.106928,105080,82147
1680.21,0.099887,88906,70639
1683.1,0.102095,75033,59314
1685.99,0.108542,63520,49473
1688.87,0.106404,53714,42042
1691.75,0.110086,45653,35431
1694.62,0.115394,39137,30005
1697.49,0.121659,33776,25524
1701.31,0.132344,28175,20774