Folder: textile_sorting_NIRSCAN_/samples/wool/wool-000811 (part 48)

File: Column 1_050557_20150331_120308.csv
Method:,Column 1,,
Host Date-Time:,31/3/15 @ 12:3:8,,
Header Version:,1,,
System Temp (C):,33.57,,
Detector Temp (C):,32.83,,
Humidity (%):,2.34,,
Lamp PD:,3819,,
Shift Vector Coefficients:,-10.5391,0.0761263,-0.000134223,,
Pixel to Wavelength Coefficients:,1775.68,-0.916766,-0.000235065,,
Serial Number:,5510004,,
Scan Config Name:,Column 1,,
Scan Config Type:,Slew,,
Section 1,,
Start wavelength (nm):,900,,
End wavelength (nm):,1700,,
Pattern Pixel Width (nm):,   7.03,,,,
Exposure (ms):,  0.635,,,,
Digital Resolution:,228,,
Num Repeats:,6,,
PGA Gain:,64,,
Total Measurement Time in sec:,  2.690,,
Wavelength (nm),Absorbance (AU),Reference Signal (unitless),Sample Signal (unitless)
901.51,0.033199,108485,100501
905.376,0.037867,121306,111177
909.237,0.039947,131909,120317
913.095,0.043481,143299,129647
916.948,0.041246,156982,142759
922.079,0.044144,179937,162546
925.923,0.044238,200504,181086
929.762,0.045404,222660,200557
933.597,0.046446,244426,219635
937.427,0.046063,263972,237408
941.254,0.046315,281845,253335
945.076,0.045592,297271,267646
950.165,0.044985,315605,284550
953.978,0.045889,328029,295137
957.786,0.045596,340470,306537
961.59,0.045848,352317,317019
965.389,0.046657,363056,326074
969.185,0.046529,373162,335250
972.976,0.046866,382632,343491
976.763,0.047501,391202,350671
981.806,0.048186,400190,358163
985.583,0.048887,406088,362855
989.355,0.048794,410162,366574
993.124,0.049626,412868,368286
996.888,0.050177,414263,369062
1000.65,0.050867,415476,369555
1004.4,0.052310,415479,368332
1009.41,0.053389,414358,366426
1013.15,0.054158,412923,364511
1016.89,0.054707,411526,362819
1020.63,0.054774,409066,360595
1024.36,0.055181,406777,358241
1028.09,0.053909,404427,357216
1031.82,0.054233,401911,354729
1036.78,0.052844,398410,352766
1040.49,0.053274,396204,350465
1044.2,0.053495,394236,348547
1047.91,0.052924,392042,347063
1051.61,0.051934,389823,345886
1055.31,0.051426,388234,344880
1059,0.050893,387599,344738
1063.92,0.049890,386688,344723
1067.61,0.049223,386598,345173
1071.29,0.048629,387377,346342
1074.96,0.048293,388536,347647
1078.63,0.047524,389855,349445
1082.3,0.046725,391215,351310
1085.96,0.045817,393215,353845
1090.84,0.045484,396270,356868
1094.49,0.045079,398760,359445
1098.14,0.044921,400987,361584
1101.79,0.044837,403477,363900
1105.43,0.044550,406116,366522
1109.06,0.043640,407701,368724
1112.7,0.043481,409859,370812
1117.53,0.043712,412494,372997
1121.15,0.045123,414909,373964
1124.77,0.045175,416559,375406
1128.38,0.046586,418532,375961
1131.99,0.047840,419956,376152
1135.6,0.049665,421946,376350
1139.2,0.051654,423881,376348
1143.99,0.054366,426786,376569
1147.58,0.054794,428617,377812
1151.17,0.056435,431169,378628
1154.75,0.058010,433579,379366
1158.33,0.059436,436264,380464
1161.91,0.061341,439132,381289
1165.48,0.064206,442389,381591
1169.04,0.066296,446101,382946
1173.79,0.070254,451929,384429
1177.34,0.072878,456026,385577
1180.9,0.074804,461306,388316
1184.44,0.076275,467657,392331
1187.99,0.077560,473969,396451
1191.52,0.077534,479856,401400
1195.06,0.076810,487372,408367
1199.76,0.076076,497347,417430
1203.29,0.075433,504311,423902
1206.81,0.074284,511507,431090
1210.33,0.073335,519078,438427
1213.84,0.072769,527163,445837
1217.35,0.072471,534208,452105
1220.85,0.071113,540472,458839
1225.51,0.070249,549929,467797
1229.01,0.070038,556888,473947
1232.5,0.069153,562180,479427
1235.98,0.069090,567975,484439
1239.46,0.067846,574815,491679
1242.94,0.066901,582782,499580
1246.41,0.066342,591476,507686
1251.03,0.065714,604016,519200
1254.5,0.065779,612289,526232
1257.96,0.066390,619125,531359
1261.41,0.066924,624551,535358
1264.86,0.067333,629900,539434
1268.31,0.068324,634345,542003
1271.75,0.069004,638574,544763
1276.33,0.069031,642499,548077
1279.76,0.069169,645905,550807
1283.19,0.068847,648307,553266
1286.61,0.068414,650446,555645
1290.03,0.068265,652132,557276
1293.44,0.067412,653907,559892
1296.85,0.067695,655963,561286
1301.39,0.067142,657349,563189
1304.8,0.066968,657558,563594
1308.19,0.067407,658515,563843
1311.58,0.067839,658804,563530
1314.97,0.068131,659011,563329
1318.36,0.068698,658272,561962
1321.73,0.069315,658022,560951
1326.23,0.070144,657870,559752
1329.6,0.071318,656482,557064
1332.97,0.071921,654926,554972
1336.33,0.073399,653727,552074
1339.69,0.075263,652497,548675
1343.04,0.077330,649913,543908
1346.39,0.078869,647671,540114
1349.73,0.081235,645338,535244
1354.18,0.085048,641175,527143
1357.52,0.086734,638376,522808
1360.85,0.089481,635805,517420
1364.17,0.091447,633413,513145
1367.49,0.094042,631026,508166
1370.81,0.096459,628050,502962
1374.12,0.098805,625034,497850
1378.54,0.102401,620272,489983
1381.84,0.105896,616892,483407
1385.14,0.109918,613613,476405
1388.43,0.114594,611526,469700
1391.72,0.120108,610663,463120
1395.01,0.125192,610634,457709
1398.29,0.130201,611700,453250
1402.66,0.138412,614051,446470
1405.93,0.144754,616268,441586
1409.2,0.149798,617795,437569
1412.46,0.155390,618872,432724
1415.72,0.160102,619795,428693
1418.98,0.164590,620495,424765
1422.23,0.168851,621087,421019
1426.56,0.172928,621375,417278
1429.8,0.175705,621616,414779
1433.04,0.178870,622129,412107
1436.27,0.181339,621526,409374
1439.5,0.183691,621113,406892
1442.72,0.186054,620921,404559
1445.94,0.187884,620270,402436
1450.23,0.191798,618860,397919
1453.44,0.195057,617697,394202
1456.64,0.197533,616264,391051
1459.85,0.200684,614413,387058
1463.04,0.203183,612307,383518
1466.24,0.206671,610032,379037
1469.43,0.209901,607345,374571
1473.67,0.215970,603789,367211
1476.85,0.220984,601175,361424
1480.02,0.226527,597737,354800
1483.19,0.232956,594479,347681
1486.36,0.238828,591232,341138
1489.52,0.244052,587853,335133
1492.68,0.247089,583875,330545
1496.89,0.249013,578062,325808
1500.03,0.249693,574159,323102
1503.18,0.249925,570285,320750
1506.32,0.249442,565444,318381
1509.45,0.248431,560571,316373
1512.58,0.246367,555821,315187
1515.71,0.243980,550344,313801
1519.87,0.240745,543983,312493
1522.99,0.238148,538764,311351
1526.1,0.235580,533692,310249
1529.21,0.232571,527902,309017
1532.32,0.229323,521886,307789
1535.42,0.226321,515888,306362
1538.51,0.222985,509987,305193
1541.6,0.220536,503936,303277
1545.72,0.215547,494694,301155
1548.8,0.212233,488378,299587
1551.88,0.209856,481832,297194
1554.95,0.208029,474989,294208
1558.02,0.206265,467818,290946
1561.08,0.205784,460730,286855
1564.15,0.204120,454170,283856
1568.22,0.203109,444181,278260
1571.27,0.201742,436947,274591
1574.32,0.200795,429598,270562
1577.36,0.198898,422039,266965
1580.4,0.197246,414375,263116
1583.43,0.195845,406354,258857
1586.46,0.194756,398475,254475
1590.49,0.192375,388982,249778
1593.51,0.190068,380708,245767
1596.53,0.187890,372727,241825
1599.54,0.185577,365060,238115
1602.55,0.182969,357543,234617
1605.55,0.181479,349495,230124
1608.55,0.178848,341154,225997
1612.54,0.176871,330877,220189
1615.53,0.173744,322904,216436
1618.51,0.174165,315116,211011
1621.49,0.172645,307217,206443
1624.47,0.171950,299481,201567
1627.44,0.169253,292112,197832
1630.41,0.168435,284245,192867
1634.36,0.166880,274079,186636
1637.32,0.165903,266916,182168
1640.27,0.165415,259612,177382
1643.22,0.163323,251804,172878
1646.16,0.164445,244348,167326
1649.1,0.163257,236703,162535
1652.04,0.160451,228171,157692
1655.95,0.159933,215408,149049
1658.88,0.155574,204937,143234
1661.8,0.151994,193395,136286
1664.72,0.146663,179728,128219
1667.63,0.137713,163642,119174
1670.54,0.127567,146312,109072
1673.44,0.115800,128451,98387
1677.31,0.103925,105080,82717
1680.21,0.097777,88906,70983
1683.1,0.093978,75033,60433
1685.99,0.098914,63520,50582
1688.87,0.102169,53714,42454
1691.75,0.105101,45653,35840
1694.62,0.116307,39137,29942
1697.49,0.116871,33776,25807
1701.31,0.127149,28175,21024

File: Column 1_050557_20150331_120316.csv
Method:,Column 1,,
Host Date-Time:,31/3/15 @ 12:3:16,,
Header Version:,1,,
System Temp (C):,33.55,,
Detector Temp (C):,32.86,,
Humidity (%):,2.25,,
Lamp PD:,3820,,
Shift Vector Coefficients:,-10.5391,0.0761263,-0.000134223,,
Pixel to Wavelength Coefficients:,1775.68,-0.916766,-0.000235065,,
Serial Number:,5510004,,
Scan Config Name:,Column 1,,
Scan Config Type:,Slew,,
Section 1,,
Start wavelength (nm):,900,,
End wavelength (nm):,1700,,
Pattern Pixel Width (nm):,   7.03,,,,
Exposure (ms):,  0.635,,,,
Digital Resolution:,228,,
Num Repeats:,6,,
PGA Gain:,64,,
Total Measurement Time in sec:,  2.674,,
Wavelength (nm),Absorbance (AU),Reference Signal (unitless),Sample Signal (unitless)
901.51,0.035205,108485,100038
905.376,0.040925,121306,110397
909.237,0.042859,131909,119513
913.095,0.043474,143299,129649
916.948,0.043112,156982,142147
922.079,0.045067,179937,162201
925.923,0.046318,200504,180221
929.762,0.047484,222660,199599
933.597,0.046565,244426,219575
937.427,0.047117,263972,236832
941.254,0.047079,281845,252890
945.076,0.046477,297271,267101
950.165,0.045819,315605,284004
953.978,0.045725,328029,295248
957.786,0.046008,340470,306246
961.59,0.046564,352317,316497
965.389,0.046271,363056,326364
969.185,0.046862,373162,334993
972.976,0.047828,382632,342731
976.763,0.047427,391202,350731
981.806,0.049114,400190,357398
985.583,0.049426,406088,362405
989.355,0.049276,410162,366167
993.124,0.050452,412868,367586
996.888,0.050969,414263,368389
1000.65,0.051028,415476,369418
1004.4,0.052247,415479,368385
1009.41,0.054276,414358,365679
1013.15,0.055021,412923,363788
1016.89,0.054853,411526,362697
1020.63,0.054689,409066,360665
1024.36,0.055170,406777,358250
1028.09,0.054623,404427,356629
1031.82,0.054243,401911,354721
1036.78,0.054404,398410,351501
1040.49,0.053344,396204,350409
1044.2,0.053732,394236,348357
1047.91,0.053260,392042,346795
1051.61,0.052187,389823,345685
1055.31,0.052148,388234,344307
1059,0.051364,387599,344365
1063.92,0.050364,386688,344347
1067.61,0.049296,386598,345115
1071.29,0.049123,387377,345948
1074.96,0.048170,388536,347745
1078.63,0.048014,389855,349051
1082.3,0.047037,391215,351058
1085.96,0.046892,393215,352970
1090.84,0.045655,396270,356727
1094.49,0.045484,398760,359110
1098.14,0.045161,400987,361384
1101.79,0.045292,403477,363519
1105.43,0.044619,406116,366464
1109.06,0.044585,407701,367923
1112.7,0.044439,409859,369995
1117.53,0.044006,412494,372745
1121.15,0.045188,414909,373908
1124.77,0.045732,416559,374925
1128.38,0.046797,418532,375778
1131.99,0.048235,419956,375810
1135.6,0.050445,421946,375675
1139.2,0.051900,423881,376135
1143.99,0.054319,426786,376609
1147.58,0.055445,428617,377246
1151.17,0.057215,431169,377948
1154.75,0.058594,433579,378856
1158.33,0.059829,436264,380120
1161.91,0.062307,439132,380442
1165.48,0.064632,442389,381217
1169.04,0.067246,446101,382109
1173.79,0.070419,451929,384283
1177.34,0.073274,456026,385226
1180.9,0.075596,461306,387608
1184.44,0.077599,467657,391137
1187.99,0.078308,473969,395769
1191.52,0.078127,479856,400852
1195.06,0.077515,487372,407705
1199.76,0.076886,497347,416652
1203.29,0.075611,504311,423728
1206.81,0.074838,511507,430540
1210.33,0.073873,519078,437885
1213.84,0.072909,527163,445693
1217.35,0.072773,534208,451791
1220.85,0.071875,540472,458034
1225.51,0.071040,549929,466946
1229.01,0.070170,556888,473803
1232.5,0.070072,562180,478413
1235.98,0.069022,567975,484515
1239.46,0.067713,574815,491830
1242.94,0.067164,582782,499278
1246.41,0.066461,591476,507547
1251.03,0.066198,604016,518621
1254.5,0.066597,612289,525242
1257.96,0.066660,619125,531029
1261.41,0.067255,624551,534950
1264.86,0.067876,629900,538760
1268.31,0.068386,634345,541925
1271.75,0.069409,638574,544255
1276.33,0.069879,642499,547008
1279.76,0.069778,645905,550036
1283.19,0.069083,648307,552965
1286.61,0.068488,650446,555550
1290.03,0.068363,652132,557150
1293.44,0.067686,653907,559538
1296.85,0.067350,655963,561732
1301.39,0.067278,657349,563012
1304.8,0.067386,657558,563052
1308.19,0.067878,658515,563232
1311.58,0.068000,658804,563322
1314.97,0.068238,659011,563190
1318.36,0.068962,658272,561621
1321.73,0.069350,658022,560906
1326.23,0.070321,657870,559525
1329.6,0.071471,656482,556868
1332.97,0.072594,654926,554113
1336.33,0.073547,653727,551886
1339.69,0.075632,652497,548210
1343.04,0.077381,649913,543844
1346.39,0.079624,647671,539176
1349.73,0.082021,645338,534277
1354.18,0.084979,641175,527227
1357.52,0.087193,638376,522256
1360.85,0.089422,635805,517490
1364.17,0.091436,633413,513158
1367.49,0.093910,631026,508320
1370.81,0.096540,628050,502868
1374.12,0.099073,625034,497543
1378.54,0.102542,620272,489824
1381.84,0.106293,616892,482965
1385.14,0.110221,613613,476073
1388.43,0.114574,611526,469722
1391.72,0.119759,610663,463492
1395.01,0.124832,610634,458088
1398.29,0.130804,611700,452621
1402.66,0.138560,614051,446318
1405.93,0.144459,616268,441886
1409.2,0.150803,617795,436557
1412.46,0.156301,618872,431817
1415.72,0.160254,619795,428543
1418.98,0.164740,620495,424618
1422.23,0.169062,621087,420814
1426.56,0.173193,621375,417024
1429.8,0.176210,621616,414297
1433.04,0.178658,622129,412309
1436.27,0.181370,621526,409345
1439.5,0.183352,621113,407210
1442.72,0.185838,620921,404761
1445.94,0.188475,620270,401889
1450.23,0.192203,618860,397548
1453.44,0.195305,617697,393977
1456.64,0.197792,616264,390818
1459.85,0.200532,614413,387194
1463.04,0.203818,612307,382958
1466.24,0.207313,610032,378477
1469.43,0.209935,607345,374542
1473.67,0.216199,603789,367017
1476.85,0.221100,601175,361327
1480.02,0.227164,597737,354280
1483.19,0.233343,594479,347371
1486.36,0.239294,591232,340772
1489.52,0.244024,587853,335154
1492.68,0.247246,583875,330426
1496.89,0.249744,578062,325260
1500.03,0.250741,574159,322323
1503.18,0.250574,570285,320271
1506.32,0.249882,565444,318059
1509.45,0.247925,560571,316742
1512.58,0.246252,555821,315270
1515.71,0.244728,550344,313261
1519.87,0.240905,543983,312378
1522.99,0.238074,538764,311404
1526.1,0.235610,533692,310228
1529.21,0.232216,527902,309270
1532.32,0.230331,521886,307075
1535.42,0.226896,515888,305956
1538.51,0.223724,509987,304674
1541.6,0.221060,503936,302911
1545.72,0.216067,494694,300794
1548.8,0.213232,488378,298899
1551.88,0.210442,481832,296793
1554.95,0.207887,474989,294304
1558.02,0.206235,467818,290966
1561.08,0.205138,460730,287282
1564.15,0.205263,454170,283110
1568.22,0.203736,444181,277859
1571.27,0.202380,436947,274188
1574.32,0.201396,429598,270188
1577.36,0.200446,422039,266015
1580.4,0.199024,414375,262041
1583.43,0.197510,406354,257866
1586.46,0.194877,398475,254404
1590.49,0.192567,388982,249668
1593.51,0.190725,380708,245396
1596.53,0.187886,372727,241827
1599.54,0.185992,365060,237888
1602.55,0.183968,357543,234078
1605.55,0.181534,349495,230095
1608.55,0.179296,341154,225764
1612.54,0.176820,330877,220215
1615.53,0.174178,322904,216220
1618.51,0.174658,315116,210772
1621.49,0.174306,307217,205655
1624.47,0.172206,299481,201448
1627.44,0.170709,292112,197170
1630.41,0.169883,284245,192225
1634.36,0.167330,274079,186443
1637.32,0.165824,266916,182201
1640.27,0.165425,259612,177378
1643.22,0.165128,251804,172161
1646.16,0.164414,244348,167338
1649.1,0.164552,236703,162051
1652.04,0.162925,228171,156796
1655.95,0.160108,215408,148989
1658.88,0.157388,204937,142637
1661.8,0.153798,193395,135721
1664.72,0.148316,179728,127732
1667.63,0.139148,163642,118781
1670.54,0.130010,146312,108460
1673.44,0.116330,128451,98267
1677.31,0.105783,105080,82364
1680.21,0.096305,88906,71224
1683.1,0.097224,75033,59983
1685.99,0.103168,63520,50089
1688.87,0.108257,53714,41863
1691.75,0.113927,45653,35119
1694.62,0.118546,39137,29788
1697.49,0.121762,33776,25518
1701.31,0.131133,28175,20832

File: Column 1_050558_20150331_120328.csv
Method:,Column 1,,
Host Date-Time:,31/3/15 @ 12:3:28,,
Header Version:,1,,
System Temp (C):,33.57,,
Detector Temp (C):,32.88,,
Humidity (%):,2.25,,
Lamp PD:,3819,,
Shift Vector Coefficients:,-10.5391,0.0761263,-0.000134223,,
Pixel to Wavelength Coefficients:,1775.68,-0.916766,-0.000235065,,
Serial Number:,5510004,,
Scan Config Name:,Column 1,,
Scan Config Type:,Slew,,
Section 1,,
Start wavelength (nm):,900,,
End wavelength (nm):,1700,,
Pattern Pixel Width (nm):,   7.03,,,,
Exposure (ms):,  0.635,,,,
Digital Resolution:,228,,
Num Repeats:,6,,
PGA Gain:,64,,
Total Measurement Time in sec:,  2.677,,
Wavelength (nm),Absorbance (AU),Reference Signal (unitless),Sample Signal (unitless)
901.51,0.032966,108485,100555
905.376,0.039245,121306,110825
909.237,0.042754,131909,119542
913.095,0.041966,143299,130100
916.948,0.043274,156982,142094
922.079,0.045059,179937,162204
925.923,0.045086,200504,180733
929.762,0.046871,222660,199881
933.597,0.047362,244426,219172
937.427,0.047156,263972,236811
941.254,0.047491,281845,252650
945.076,0.045050,297271,267980
950.165,0.046044,315605,283857
953.978,0.045358,328029,295498
957.786,0.045650,340470,306499
961.59,0.046249,352317,316727
965.389,0.045999,363056,326569
969.185,0.046796,373162,335044
972.976,0.046565,382632,343729
976.763,0.047826,391202,350409
981.806,0.048338,400190,358037
985.583,0.048802,406088,362926
989.355,0.049512,410162,365968
993.124,0.049717,412868,368209
996.888,0.050775,414263,368554
1000.65,0.051268,415476,369214
1004.4,0.052431,415479,368229
1009.41,0.053984,414358,365925
1013.15,0.054495,412923,364229
1016.89,0.055142,411526,362456
1020.63,0.054609,409066,360732
1024.36,0.055467,406777,358005
1028.09,0.054966,404427,356348
1031.82,0.054331,401911,354649
1036.78,0.053376,398410,352334
1040.49,0.053103,396204,350603
1044.2,0.053160,394236,348816
1047.91,0.052435,392042,347454
1051.61,0.051980,389823,345850
1055.31,0.051603,388234,344739
1059,0.051613,387599,344167
1063.92,0.050064,386688,344585
1067.61,0.049498,386598,344954
1071.29,0.048478,387377,346462
1074.96,0.048883,388536,347175
1078.63,0.047676,389855,349323
1082.3,0.047237,391215,350896
1085.96,0.046427,393215,353348
1090.84,0.045842,396270,356574
1094.49,0.045356,398760,359216
1098.14,0.045429,400987,361161
1101.79,0.044975,403477,363784
1105.43,0.044791,406116,366319
1109.06,0.044371,407701,368104
1112.7,0.044143,409859,370247
1117.53,0.044367,412494,372435
1121.15,0.045032,414909,374042
1124.77,0.045364,416559,375243
1128.38,0.046816,418532,375762
1131.99,0.048493,419956,375587
1135.6,0.050116,421946,375959
1139.2,0.051610,423881,376386
1143.99,0.054250,426786,376669
1147.58,0.055761,428617,376971
1151.17,0.057083,431169,378063
1154.75,0.058321,433579,379094
1158.33,0.060093,436264,379889
1161.91,0.061800,439132,380886
1165.48,0.064310,442389,381500
1169.04,0.066537,446101,382733
1173.79,0.070332,451929,384360
1177.34,0.073102,456026,385379
1180.9,0.074973,461306,388165
1184.44,0.077175,467657,391519
1187.99,0.077744,473969,396283
1191.52,0.077514,479856,401418
1195.06,0.077215,487372,407986
1199.76,0.076387,497347,417131
1203.29,0.075671,504311,423670
1206.81,0.074984,511507,430395
1210.33,0.074055,519078,437701
1213.84,0.073410,527163,445179
1217.35,0.072358,534208,452223
1220.85,0.071660,540472,458261
1225.51,0.070371,549929,467666
1229.01,0.070000,556888,473989
1232.5,0.069090,562180,479496
1235.98,0.068610,567975,484975
1239.46,0.067846,574815,491680
1242.94,0.066699,582782,499812
1246.41,0.066353,591476,507673
1251.03,0.065791,604016,519108
1254.5,0.066118,612289,525822
1257.96,0.066726,619125,530948
1261.41,0.067347,624551,534836
1264.86,0.067373,629900,539385
1268.31,0.068316,634345,542013
1271.75,0.069082,638574,544665
1276.33,0.069359,642499,547663
1279.76,0.069687,645905,550151
1283.19,0.069003,648307,553067
1286.61,0.068639,650446,555357
1290.03,0.068356,652132,557159
1293.44,0.067670,653907,559559
1296.85,0.067158,655963,561981
1301.39,0.067507,657349,562716
1304.8,0.067031,657558,563512
1308.19,0.067678,658515,563492
1311.58,0.067593,658804,563849
1314.97,0.068565,659011,562766
1318.36,0.068954,658272,561631
1321.73,0.069604,658022,560578
1326.23,0.070177,657870,559710
1329.6,0.071046,656482,557413
1332.97,0.072116,654926,554723
1336.33,0.073501,653727,551945
1339.69,0.075109,652497,548870
1343.04,0.077006,649913,544314
1346.39,0.079470,647671,539367
1349.73,0.081658,645338,534723
1354.18,0.084809,641175,527433
1357.52,0.087119,638376,522345
1360.85,0.089247,635805,517698
1364.17,0.091460,633413,513129
1367.49,0.093825,631026,508419
1370.81,0.096424,628050,503003
1374.12,0.098901,625034,497740
1378.54,0.102571,620272,489791
1381.84,0.106111,616892,483168
1385.14,0.109953,613613,476367
1388.43,0.114674,611526,469614
1391.72,0.119155,610663,464137
1395.01,0.125091,610634,457815
1398.29,0.130723,611700,452705
1402.66,0.137705,614051,447198
1405.93,0.144695,616268,441646
1409.2,0.149989,617795,437376
1412.46,0.155295,618872,432819
1415.72,0.160001,619795,428792
1418.98,0.164198,620495,425148
1422.23,0.167970,621087,421874
1426.56,0.172753,621375,417446
1429.8,0.175851,621616,414640
1433.04,0.178767,622129,412205
1436.27,0.180802,621526,409881
1439.5,0.183072,621113,407473
1442.72,0.185711,620921,404879
1445.94,0.188396,620270,401962
1450.23,0.192176,618860,397573
1453.44,0.194534,617697,394677
1456.64,0.197220,616264,391333
1459.85,0.200165,614413,387521
1463.04,0.202831,612307,383829
1466.24,0.206239,610032,379414
1469.43,0.210108,607345,374393
1473.67,0.215501,603789,367607
1476.85,0.220520,601175,361810
1480.02,0.226598,597737,354742
1483.19,0.232873,594479,347747
1486.36,0.238489,591232,341404
1489.52,0.243903,587853,335248
1492.68,0.247306,583875,330380
1496.89,0.249057,578062,325775
1500.03,0.250301,574159,322650
1503.18,0.250036,570285,320668
1506.32,0.249155,565444,318592
1509.45,0.247725,560571,316888
1512.58,0.246769,555821,314895
1515.71,0.244531,550344,313403
1519.87,0.240709,543983,312519
1522.99,0.237561,538764,311772
1526.1,0.235131,533692,310570
1529.21,0.232984,527902,308723
1532.32,0.230535,521886,306931
1535.42,0.226440,515888,306278
1538.51,0.223523,509987,304815
1541.6,0.219735,503936,303837
1545.72,0.215874,494694,300928
1548.8,0.212577,488378,299350
1551.88,0.209821,481832,297218
1554.95,0.207911,474989,294288
1558.02,0.205887,467818,291199
1561.08,0.205026,460730,287356
1564.15,0.204388,454170,283681
1568.22,0.203025,444181,278314
1571.27,0.202295,436947,274242
1574.32,0.200741,429598,270596
1577.36,0.198675,422039,267102
1580.4,0.197596,414375,262904
1583.43,0.196533,406354,258447
1586.46,0.194001,398475,254918
1590.49,0.192250,388982,249850
1593.51,0.190155,380708,245718
1596.53,0.188035,372727,241744
1599.54,0.185849,365060,237966
1602.55,0.183676,357543,234235
1605.55,0.181341,349495,230197
1608.55,0.178686,341154,226081
1612.54,0.178007,330877,219614
1615.53,0.173666,322904,216475
1618.51,0.173328,315116,211418
1621.49,0.171993,307217,206753
1624.47,0.170878,299481,202065
1627.44,0.169442,292112,197746
1630.41,0.168994,284245,192619
1634.36,0.167465,274079,186385
1637.32,0.166950,266916,181729
1640.27,0.166359,259612,176997
1643.22,0.164775,251804,172301
1646.16,0.164409,244348,167340
1649.1,0.163145,236703,162577
1652.04,0.162618,228171,156907
1655.95,0.159796,215408,149096
1658.88,0.154345,204937,143640
1661.8,0.152220,193395,136215
1664.72,0.146680,179728,128214
1667.63,0.138249,163642,119027
1670.54,0.126509,146312,109338
1673.44,0.116630,128451,98199
1677.31,0.105598,105080,82399
1680.21,0.097043,88906,71103
1683.1,0.095757,75033,60186
1685.99,0.100342,63520,50416
1688.87,0.106818,53714,42002
1691.75,0.115389,45653,35001
1694.62,0.111934,39137,30245
1697.49,0.122102,33776,25498
1701.31,0.125520,28175,21103