Folder: textile_sorting_NIRSCAN_/samples/wool/wool-000811 (part 2)

File: Column 1_050531_20150331_115101.csv
Method:,Column 1,,
Host Date-Time:,31/3/15 @ 11:51:1,,
Header Version:,1,,
System Temp (C):,30.24,,
Detector Temp (C):,31.75,,
Humidity (%):,4.97,,
Lamp PD:,3832,,
Shift Vector Coefficients:,-10.5391,0.0761263,-0.000134223,,
Pixel to Wavelength Coefficients:,1775.68,-0.916766,-0.000235065,,
Serial Number:,5510004,,
Scan Config Name:,Column 1,,
Scan Config Type:,Slew,,
Section 1,,
Start wavelength (nm):,900,,
End wavelength (nm):,1700,,
Pattern Pixel Width (nm):,   7.03,,,,
Exposure (ms):,  0.635,,,,
Digital Resolution:,228,,
Num Repeats:,6,,
PGA Gain:,64,,
Total Measurement Time in sec:,  2.675,,
Wavelength (nm),Absorbance (AU),Reference Signal (unitless),Sample Signal (unitless)
901.51,0.047025,108485,97352
905.376,0.050101,121306,108089
909.237,0.053151,131909,116714
913.095,0.052518,143299,126977
916.948,0.053201,156982,138883
922.079,0.052728,179937,159365
925.923,0.052291,200504,177759
929.762,0.053619,222660,196799
933.597,0.054086,244426,215805
937.427,0.053919,263972,233152
941.254,0.055069,281845,248280
945.076,0.054633,297271,262132
950.165,0.054868,315605,278148
953.978,0.054691,328029,289215
957.786,0.055324,340470,299747
961.59,0.056033,352317,309671
965.389,0.056423,363056,318824
969.185,0.056122,373162,327926
972.976,0.057191,382632,335421
976.763,0.057842,391202,342420
981.806,0.058132,400190,350053
985.583,0.059688,406088,353942
989.355,0.059758,410162,357435
993.124,0.060127,412868,359488
996.888,0.060751,414263,360185
1000.65,0.060952,415476,361072
1004.4,0.062598,415479,359709
1009.41,0.063433,414358,358049
1013.15,0.064900,412923,355606
1016.89,0.064900,411526,354403
1020.63,0.064876,409066,352304
1024.36,0.065296,406777,349994
1028.09,0.064285,404427,348783
1031.82,0.063650,401911,347120
1036.78,0.063111,398410,344524
1040.49,0.062537,396204,343069
1044.2,0.061975,394236,341807
1047.91,0.061905,392042,339960
1051.61,0.060819,389823,338882
1055.31,0.060470,388234,337772
1059,0.059442,387599,338019
1063.92,0.058643,386688,337845
1067.61,0.057274,386598,338833
1071.29,0.056543,387377,340088
1074.96,0.056042,388536,341499
1078.63,0.055777,389855,342867
1082.3,0.054302,391215,345234
1085.96,0.053943,393215,347286
1090.84,0.053244,396270,350548
1094.49,0.052944,398760,352994
1098.14,0.052133,400987,355629
1101.79,0.051939,403477,357997
1105.43,0.052126,406116,360184
1109.06,0.051413,407701,362184
1112.7,0.051501,409859,364027
1117.53,0.051759,412494,366150
1121.15,0.052639,414909,367548
1124.77,0.053278,416559,368467
1128.38,0.054453,418532,369212
1131.99,0.056102,419956,369064
1135.6,0.057905,421946,369277
1139.2,0.060068,423881,369127
1143.99,0.063608,426786,368640
1147.58,0.064410,428617,369538
1151.17,0.065889,431169,370475
1154.75,0.067197,433579,371425
1158.33,0.069299,436264,371921
1161.91,0.071823,439132,372196
1165.48,0.075323,442389,371947
1169.04,0.077854,446101,372889
1173.79,0.082791,451929,373490
1177.34,0.084858,456026,375087
1180.9,0.087328,461306,377278
1184.44,0.089775,467657,380323
1187.99,0.090410,473969,384893
1191.52,0.089896,479856,390135
1195.06,0.089038,487372,397029
1199.76,0.087704,497347,406402
1203.29,0.086224,504311,413499
1206.81,0.085431,511507,420166
1210.33,0.083897,519078,427893
1213.84,0.082655,527163,435803
1217.35,0.082003,534208,442290
1220.85,0.080742,540472,448778
1225.51,0.079342,549929,458105
1229.01,0.078425,556888,464882
1232.5,0.077678,562180,470108
1235.98,0.077097,567975,475589
1239.46,0.075665,574815,482907
1242.94,0.074069,582782,491402
1246.41,0.073608,591476,499263
1251.03,0.073426,604016,510061
1254.5,0.073626,612289,516809
1257.96,0.073670,619125,522527
1261.41,0.074284,624551,526361
1264.86,0.075043,629900,529942
1268.31,0.075444,634345,533190
1271.75,0.076096,638574,535939
1276.33,0.076442,642499,538803
1279.76,0.076504,645905,541582
1283.19,0.075914,648307,544336
1286.61,0.075729,650446,546364
1290.03,0.075415,652132,548177
1293.44,0.074763,653907,550494
1296.85,0.074619,655963,552408
1301.39,0.074006,657349,554358
1304.8,0.074767,657558,553563
1308.19,0.074952,658515,554133
1311.58,0.074827,658804,554535
1314.97,0.075934,659011,553297
1318.36,0.076180,658272,552364
1321.73,0.076894,658022,551247
1326.23,0.077667,657870,550140
1329.6,0.078880,656482,547448
1332.97,0.080273,654926,544402
1336.33,0.081637,653727,541701
1339.69,0.083647,652497,538185
1343.04,0.085610,649913,533636
1346.39,0.088174,647671,528665
1349.73,0.090710,645338,523694
1354.18,0.094238,641175,516106
1357.52,0.096856,638376,510764
1360.85,0.098995,635805,506208
1364.17,0.101775,633413,501086
1367.49,0.104390,631026,496201
1370.81,0.106818,628050,491107
1374.12,0.109619,625034,485607
1378.54,0.113556,620272,477558
1381.84,0.117358,616892,470816
1385.14,0.122654,613613,462637
1388.43,0.128357,611526,455049
1391.72,0.134675,610663,447844
1395.01,0.140245,610634,442116
1398.29,0.147034,611700,436018
1402.66,0.156033,614051,428718
1405.93,0.163580,616268,422853
1409.2,0.170952,617795,416766
1412.46,0.176814,618872,411895
1415.72,0.183006,619795,406670
1418.98,0.187701,620495,402752
1422.23,0.192558,621087,398652
1426.56,0.197897,621375,393964
1429.8,0.200916,621616,391387
1433.04,0.204654,622129,388353
1436.27,0.206878,621526,385995
1439.5,0.209087,621113,383781
1442.72,0.212813,620921,380385
1445.94,0.214933,620270,378136
1450.23,0.219003,618860,373757
1453.44,0.221239,617697,371139
1456.64,0.224483,616264,367522
1459.85,0.226501,614413,364720
1463.04,0.229383,612307,361066
1466.24,0.232497,610032,357154
1469.43,0.235205,607345,353371
1473.67,0.239609,603789,347757
1476.85,0.243968,601175,342794
1480.02,0.248981,597737,336922
1483.19,0.254778,594479,330642
1486.36,0.260597,591232,324460
1489.52,0.264723,587853,319555
1492.68,0.269029,583875,314261
1496.89,0.271105,578062,309649
1500.03,0.271806,574159,307062
1503.18,0.272664,570285,304388
1506.32,0.271422,565444,302669
1509.45,0.270773,560571,300509
1512.58,0.269544,555821,298807
1515.71,0.267042,550344,297572
1519.87,0.264226,543983,296046
1522.99,0.261159,538764,295284
1526.1,0.258968,533692,293983
1529.21,0.256257,527902,292615
1532.32,0.253372,521886,291208
1535.42,0.249347,515888,290542
1538.51,0.246173,509987,289325
1541.6,0.242666,503936,288210
1545.72,0.238860,494694,285415
1548.8,0.234894,488378,284356
1551.88,0.232129,481832,282336
1554.95,0.229237,474989,280186
1558.02,0.227151,467818,277285
1561.08,0.226305,460730,273616
1564.15,0.225305,454170,270342
1568.22,0.223949,444181,265223
1571.27,0.223461,436947,261197
1574.32,0.222096,429598,257612
1577.36,0.221032,422039,253700
1580.4,0.219052,414375,250231
1583.43,0.216670,406354,246737
1586.46,0.213920,398475,243490
1590.49,0.211790,388982,238858
1593.51,0.209961,380708,234764
1596.53,0.207380,372727,231212
1599.54,0.204809,365060,227801
1602.55,0.202025,357543,224545
1605.55,0.200545,349495,220240
1608.55,0.197641,341154,216426
1612.54,0.195166,330877,211106
1615.53,0.191583,322904,207726
1618.51,0.191349,315116,202825
1621.49,0.189991,307217,198360
1624.47,0.187463,299481,194494
1627.44,0.186300,292112,190217
1630.41,0.185363,284245,185494
1634.36,0.183359,274079,179687
1637.32,0.181615,266916,175695
1640.27,0.181776,259612,170824
1643.22,0.179774,251804,166452
1646.16,0.179167,244348,161749
1649.1,0.178398,236703,156966
1652.04,0.176726,228171,151892
1655.95,0.176086,215408,143607
1658.88,0.175128,204937,136928
1661.8,0.174293,193395,129465
1664.72,0.171522,179728,121086
1667.63,0.167521,163642,111269
1670.54,0.161975,146312,100764
1673.44,0.156352,128451,89616
1677.31,0.156452,105080,73294
1680.21,0.154541,88906,62286
1683.1,0.156311,75033,52353
1685.99,0.165591,63520,43383
1688.87,0.162226,53714,36971
1691.75,0.179865,45653,30172
1694.62,0.174154,39137,26208
1697.49,0.177102,33776,22465
1701.31,0.181029,28175,18571

File: Column 1_050531_20150331_115104.csv
Method:,Column 1,,
Host Date-Time:,31/3/15 @ 11:51:4,,
Header Version:,1,,
System Temp (C):,30.26,,
Detector Temp (C):,31.69,,
Humidity (%):,4.97,,
Lamp PD:,3831,,
Shift Vector Coefficients:,-10.5391,0.0761263,-0.000134223,,
Pixel to Wavelength Coefficients:,1775.68,-0.916766,-0.000235065,,
Serial Number:,5510004,,
Scan Config Name:,Column 1,,
Scan Config Type:,Slew,,
Section 1,,
Start wavelength (nm):,900,,
End wavelength (nm):,1700,,
Pattern Pixel Width (nm):,   7.03,,,,
Exposure (ms):,  0.635,,,,
Digital Resolution:,228,,
Num Repeats:,6,,
PGA Gain:,64,,
Total Measurement Time in sec:,  2.676,,
Wavelength (nm),Absorbance (AU),Reference Signal (unitless),Sample Signal (unitless)
901.51,0.045271,108485,97746
905.376,0.051147,121306,107829
909.237,0.052360,131909,116927
913.095,0.052853,143299,126879
916.948,0.053054,156982,138930
922.079,0.051533,179937,159804
925.923,0.052685,200504,177598
929.762,0.053635,222660,196792
933.597,0.054164,244426,215766
937.427,0.053988,263972,233115
941.254,0.054652,281845,248518
945.076,0.054356,297271,262299
950.165,0.054720,315605,278243
953.978,0.054878,328029,289091
957.786,0.055396,340470,299697
961.59,0.055855,352317,309798
965.389,0.055709,363056,319348
969.185,0.055997,373162,328020
972.976,0.057104,382632,335488
976.763,0.057857,391202,342408
981.806,0.058340,400190,349886
985.583,0.058908,406088,354578
989.355,0.059126,410162,357956
993.124,0.060089,412868,359519
996.888,0.060924,414263,360041
1000.65,0.061122,415476,360931
1004.4,0.062093,415479,360127
1009.41,0.063680,414358,357846
1013.15,0.064352,412923,356055
1016.89,0.064785,411526,354497
1020.63,0.064118,409066,352919
1024.36,0.064661,406777,350506
1028.09,0.064134,404427,348904
1031.82,0.064439,401911,346490
1036.78,0.063505,398410,344211
1040.49,0.062261,396204,343287
1044.2,0.062221,394236,341614
1047.91,0.061375,392042,340375
1051.61,0.060286,389823,339298
1055.31,0.060055,388234,338095
1059,0.059574,387599,337916
1063.92,0.058456,386688,337991
1067.61,0.057524,386598,338638
1071.29,0.056705,387377,339961
1074.96,0.056471,388536,341162
1078.63,0.055138,389855,343372
1082.3,0.054586,391215,345008
1085.96,0.053314,393215,347789
1090.84,0.053264,396270,350532
1094.49,0.052965,398760,352977
1098.14,0.052337,400987,355462
1101.79,0.052225,403477,357762
1105.43,0.051812,406116,360444
1109.06,0.051145,407701,362407
1112.7,0.051303,409859,364193
1117.53,0.051706,412494,366194
1121.15,0.052312,414909,367825
1124.77,0.052972,416559,368727
1128.38,0.054835,418532,368887
1131.99,0.055749,419956,369364
1135.6,0.058372,421946,368880
1139.2,0.059914,423881,369258
1143.99,0.063037,426786,369125
1147.58,0.064663,428617,369323
1151.17,0.065859,431169,370500
1154.75,0.067377,433579,371271
1158.33,0.069500,436264,371749
1161.91,0.071797,439132,372219
1165.48,0.075029,442389,372199
1169.04,0.077866,446101,372878
1173.79,0.082410,451929,373818
1177.34,0.084628,456026,375285
1180.9,0.087381,461306,377232
1184.44,0.089297,467657,380742
1187.99,0.089940,473969,385310
1191.52,0.089568,479856,390430
1195.06,0.088884,487372,397170
1199.76,0.087130,497347,406939
1203.29,0.086263,504311,413462
1206.81,0.085184,511507,420405
1210.33,0.083627,519078,428160
1213.84,0.082888,527163,435569
1217.35,0.081375,534208,442930
1220.85,0.080546,540472,448980
1225.51,0.078778,549929,458700
1229.01,0.077906,556888,465438
1232.5,0.077661,562180,470126
1235.98,0.076759,567975,475960
1239.46,0.075117,574815,483516
1242.94,0.074556,582782,490852
1246.41,0.073587,591476,499287
1251.03,0.073250,604016,510268
1254.5,0.073275,612289,517227
1257.96,0.073273,619125,523004
1261.41,0.074268,624551,526381
1264.86,0.074770,629900,530276
1268.31,0.075439,634345,533196
1271.75,0.076370,638574,535601
1276.33,0.076803,642499,538356
1279.76,0.076521,645905,541561
1283.19,0.076049,648307,544167
1286.61,0.075452,650446,546713
1290.03,0.075469,652132,548109
1293.44,0.074612,653907,550686
1296.85,0.074415,655963,552668
1301.39,0.074091,657349,554249
1304.8,0.074047,657558,554482
1308.19,0.074814,658515,554309
1311.58,0.074803,658804,554566
1314.97,0.075561,659011,553773
1318.36,0.076049,658272,552531
1321.73,0.076476,658022,551778
1326.23,0.077972,657870,549753
1329.6,0.078752,656482,547609
1332.97,0.080221,654926,544466
1336.33,0.081499,653727,541873
1339.69,0.083192,652497,538749
1343.04,0.085335,649913,533974
1346.39,0.088170,647671,528670
1349.73,0.090334,645338,524147
1354.18,0.093942,641175,516458
1357.52,0.096267,638376,511457
1360.85,0.099100,635805,506086
1364.17,0.101522,633413,501378
1367.49,0.103770,631026,496910
1370.81,0.106832,628050,491091
1374.12,0.109669,625034,485551
1378.54,0.113327,620272,477810
1381.84,0.117697,616892,470449
1385.14,0.122417,613613,462890
1388.43,0.127953,611526,455472
1391.72,0.134063,610663,448475
1395.01,0.140477,610634,441880
1398.29,0.146621,611700,436433
1402.66,0.155971,614051,428779
1405.93,0.163153,616268,423269
1409.2,0.170301,617795,417391
1412.46,0.176832,618872,411878
1415.72,0.182816,619795,406848
1418.98,0.187634,620495,402814
1422.23,0.192371,621087,398824
1426.56,0.197558,621375,394272
1429.8,0.201129,621616,391195
1433.04,0.203826,622129,389094
1436.27,0.207040,621526,385851
1439.5,0.209244,621113,383642
1442.72,0.211578,620921,381468
1445.94,0.214407,620270,378594
1450.23,0.218057,618860,374572
1453.44,0.220876,617697,371449
1456.64,0.224012,616264,367921
1459.85,0.226733,614413,364525
1463.04,0.229819,612307,360703
1466.24,0.232006,610032,357558
1469.43,0.235072,607345,353479
1473.67,0.239046,603789,348208
1476.85,0.243783,601175,342940
1480.02,0.249170,597737,336775
1483.19,0.254382,594479,330944
1486.36,0.260048,591232,324870
1489.52,0.264530,587853,319697
1492.68,0.268171,583875,314883
1496.89,0.271303,578062,309508
1500.03,0.271952,574159,306959
1503.18,0.272046,570285,304822
1506.32,0.271502,565444,302613
1509.45,0.270213,560571,300897
1512.58,0.269220,555821,299030
1515.71,0.266834,550344,297715
1519.87,0.263309,543983,296672
1522.99,0.260879,538764,295474
1526.1,0.258644,533692,294203
1529.21,0.256056,527902,292750
1532.32,0.252252,521886,291960
1535.42,0.248874,515888,290858
1538.51,0.246181,509987,289320
1541.6,0.242483,503936,288332
1545.72,0.237893,494694,286051
1548.8,0.234620,488378,284535
1551.88,0.231353,481832,282841
1554.95,0.229589,474989,279959
1558.02,0.227422,467818,277112
1561.08,0.225384,460730,274197
1564.15,0.224806,454170,270653
1568.22,0.223949,444181,265223
1571.27,0.223019,436947,261463
1574.32,0.222612,429598,257306
1577.36,0.220442,422039,254045
1580.4,0.218742,414375,250410
1583.43,0.217066,406354,246512
1586.46,0.214105,398475,243386
1590.49,0.211766,388982,238871
1593.51,0.209339,380708,235100
1596.53,0.206508,372727,231677
1599.54,0.204188,365060,228127
1602.55,0.201899,357543,224610
1605.55,0.199440,349495,220801
1608.55,0.197452,341154,216520
1612.54,0.193839,330877,211752
1615.53,0.192944,322904,207076
1618.51,0.190904,315116,203033
1621.49,0.188736,307217,198934
1624.47,0.187338,299481,194550
1627.44,0.185452,292112,190589
1630.41,0.184262,284245,185965
1634.36,0.182934,274079,179863
1637.32,0.182221,266916,175450
1640.27,0.180854,259612,171187
1643.22,0.178973,251804,166759
1646.16,0.178009,244348,162181
1649.1,0.177149,236703,157418
1652.04,0.178057,228171,151427
1655.95,0.175754,215408,143717
1658.88,0.174469,204937,137136
1661.8,0.173355,193395,129745
1664.72,0.171787,179728,121012
1667.63,0.167388,163642,111303
1670.54,0.161376,146312,100903
1673.44,0.158519,128451,89170
1677.31,0.153623,105080,73773
1680.21,0.152947,88906,62515
1683.1,0.156975,75033,52273
1685.99,0.161952,63520,43748
1688.87,0.167331,53714,36539
1691.75,0.177697,45653,30323
1694.62,0.177197,39137,26025
1697.49,0.169855,33776,22843
1701.31,0.171247,28175,18994

File: Column 1_050532_20150331_115107.csv
Method:,Column 1,,
Host Date-Time:,31/3/15 @ 11:51:7,,
Header Version:,1,,
System Temp (C):,30.31,,
Detector Temp (C):,31.69,,
Humidity (%):,4.97,,
Lamp PD:,3831,,
Shift Vector Coefficients:,-10.5391,0.0761263,-0.000134223,,
Pixel to Wavelength Coefficients:,1775.68,-0.916766,-0.000235065,,
Serial Number:,5510004,,
Scan Config Name:,Column 1,,
Scan Config Type:,Slew,,
Section 1,,
Start wavelength (nm):,900,,
End wavelength (nm):,1700,,
Pattern Pixel Width (nm):,   7.03,,,,
Exposure (ms):,  0.635,,,,
Digital Resolution:,228,,
Num Repeats:,6,,
PGA Gain:,64,,
Total Measurement Time in sec:,  2.728,,
Wavelength (nm),Absorbance (AU),Reference Signal (unitless),Sample Signal (unitless)
901.51,0.044387,108485,97945
905.376,0.051340,121306,107781
909.237,0.052452,131909,116902
913.095,0.052183,143299,127075
916.948,0.052698,156982,139044
922.079,0.052425,179937,159476
925.923,0.052859,200504,177527
929.762,0.052475,222660,197318
933.597,0.053750,244426,215972
937.427,0.054237,263972,232981
941.254,0.054052,281845,248862
945.076,0.054389,297271,262279
950.165,0.054557,315605,278347
953.978,0.054106,328029,289605
957.786,0.055550,340470,299591
961.59,0.055292,352317,310200
965.389,0.056232,363056,318964
969.185,0.056221,373162,327851
972.976,0.056906,382632,335641
976.763,0.057522,391202,342672
981.806,0.058196,400190,350002
985.583,0.059482,406088,354110
989.355,0.059661,410162,357515
993.124,0.060257,412868,359380
996.888,0.060496,414263,360396
1000.65,0.061784,415476,360381
1004.4,0.062746,415479,359586
1009.41,0.064186,414358,357429
1013.15,0.063772,412923,356531
1016.89,0.064482,411526,354744
1020.63,0.064899,409066,352285
1024.36,0.064627,406777,350533
1028.09,0.063928,404427,349070
1031.82,0.063715,401911,347068
1036.78,0.062573,398410,344951
1040.49,0.062965,396204,342731
1044.2,0.061549,394236,342143
1047.91,0.061549,392042,340239
1051.61,0.061019,389823,338726
1055.31,0.060452,388234,337786
1059,0.059492,387599,337980
1063.92,0.058373,386688,338055
1067.61,0.057319,386598,338798
1071.29,0.056831,387377,339862
1074.96,0.055751,388536,341728
1078.63,0.055448,389855,343127
1082.3,0.054291,391215,345243
1085.96,0.053634,393215,347533
1090.84,0.053328,396270,350480
1094.49,0.052815,398760,353099
1098.14,0.052020,400987,355722
1101.79,0.051881,403477,358045
1105.43,0.052351,406116,359997
1109.06,0.051270,407701,362303
1112.7,0.051662,409859,363892
1117.53,0.051020,412494,366773
1121.15,0.052570,414909,367606
1124.77,0.053078,416559,368637
1128.38,0.054758,418532,368953
1131.99,0.055975,419956,369172
1135.6,0.058255,421946,368979
1139.2,0.060160,423881,369049
1143.99,0.062806,426786,369321
1147.58,0.064252,428617,369673
1151.17,0.065283,431169,370992
1154.75,0.067645,433579,371042
1158.33,0.068686,436264,372446
1161.91,0.072132,439132,371932
1165.48,0.074870,442389,372335
1169.04,0.077829,446101,372910
1173.79,0.081890,451929,374266
1177.34,0.084762,456026,375170
1180.9,0.087460,461306,377163
1184.44,0.088754,467657,381218
1187.99,0.089880,473969,385363
1191.52,0.089788,479856,390232
1195.06,0.089163,487372,396915
1199.76,0.088196,497347,405942
1203.29,0.086063,504311,413652
1206.81,0.085531,511507,420069
1210.33,0.084037,519078,427756
1213.84,0.082998,527163,435459
1217.35,0.081605,534208,442696
1220.85,0.079887,540472,449662
1225.51,0.079418,549929,458024
1229.01,0.078470,556888,464834
1232.5,0.077693,562180,470091
1235.98,0.077184,567975,475494
1239.46,0.075579,574815,483002
1242.94,0.074207,582782,491246
1246.41,0.073617,591476,499252
1251.03,0.072954,604016,510616
1254.5,0.073217,612289,517296
1257.96,0.074072,619125,522043
1261.41,0.074126,624551,526553
1264.86,0.074733,629900,530321
1268.31,0.075344,634345,533312
1271.75,0.075940,638574,536132
1276.33,0.076340,642499,538930
1279.76,0.076543,645905,541534
1283.19,0.075901,648307,544352
1286.61,0.075734,650446,546358
1290.03,0.075032,652132,548660
1293.44,0.074586,653907,550719
1296.85,0.074481,655963,552584
1301.39,0.074195,657349,554116
1304.8,0.074340,657558,554107
1308.19,0.074817,658515,554305
1311.58,0.074930,658804,554404
1314.97,0.075526,659011,553818
1318.36,0.076004,658272,552588
1321.73,0.076050,658022,552320
1326.23,0.077771,657870,550008
1329.6,0.078775,656482,547580
1332.97,0.080073,654926,544652
1336.33,0.081515,653727,541853
1339.69,0.083478,652497,538394
1343.04,0.085253,649913,534075
1346.39,0.088079,647671,528780
1349.73,0.090187,645338,524325
1354.18,0.094007,641175,516380
1357.52,0.096499,638376,511184
1360.85,0.098866,635805,506358
1364.17,0.101320,633413,501611
1367.49,0.103886,631026,496777
1370.81,0.107062,628050,490831
1374.12,0.109740,625034,485471
1378.54,0.113692,620272,477409
1381.84,0.117609,616892,470544
1385.14,0.122958,613613,462313
1388.43,0.127906,611526,455522
1391.72,0.134050,610663,448489
1395.01,0.140056,610634,442308
1398.29,0.146694,611700,436360
1402.66,0.156348,614051,428407
1405.93,0.163233,616268,423191
1409.2,0.170577,617795,417126
1412.46,0.176667,618872,412035
1415.72,0.182753,619795,406907
1418.98,0.187669,620495,402781
1422.23,0.192584,621087,398629
1426.56,0.197568,621375,394263
1429.8,0.201264,621616,391073
1433.04,0.203693,622129,389213
1436.27,0.206960,621526,385922
1439.5,0.208980,621113,383876
1442.72,0.212262,620921,380868
1445.94,0.214180,620270,378792
1450.23,0.218448,618860,374235
1453.44,0.221187,617697,371183
1456.64,0.224120,616264,367830
1459.85,0.226620,614413,364620
1463.04,0.229104,612307,361298
1466.24,0.231802,610032,357726
1469.43,0.234338,607345,354077
1473.67,0.238982,603789,348260
1476.85,0.244233,601175,342585
1480.02,0.248745,597737,337105
1483.19,0.255106,594479,330393
1486.36,0.259810,591232,325048
1489.52,0.264980,587853,319366
1492.68,0.268507,583875,314639
1496.89,0.270793,578062,309871
1500.03,0.271974,574159,306943
1503.18,0.272268,570285,304666
1506.32,0.271447,565444,302651
1509.45,0.270611,560571,300621
1512.58,0.269796,555821,298634
1515.71,0.267133,550344,297510
1519.87,0.264592,543983,295797
1522.99,0.260992,538764,295397
1526.1,0.258838,533692,294071
1529.21,0.255465,527902,293149
1532.32,0.252292,521886,291933
1535.42,0.248865,515888,290864
1538.51,0.245879,509987,289521
1541.6,0.242796,503936,288124
1545.72,0.238081,494694,285927
1548.8,0.234540,488378,284588
1551.88,0.231937,481832,282461
1554.95,0.229321,474989,280132
1558.02,0.227125,467818,277301
1561.08,0.226035,460730,273786
1564.15,0.225385,454170,270292
1568.22,0.223376,444181,265573
1571.27,0.223717,436947,261043
1574.32,0.221427,429598,258009
1577.36,0.220630,422039,253935
1580.4,0.218815,414375,250368
1583.43,0.216375,406354,246905
1586.46,0.214054,398475,243415
1590.49,0.211426,388982,239058
1593.51,0.209471,380708,235029
1596.53,0.206954,372727,231439
1599.54,0.204946,365060,227729
1602.55,0.202863,357543,224112
1605.55,0.200519,349495,220253
1608.55,0.197763,341154,216365
1612.54,0.194494,330877,211433
1615.53,0.192399,322904,207336
1618.51,0.191512,315116,202749
1621.49,0.188594,307217,198999
1624.47,0.187722,299481,194378
1627.44,0.185723,292112,190470
1630.41,0.184533,284245,185849
1634.36,0.182172,274079,180179
1637.32,0.182570,266916,175309
1640.27,0.182180,259612,170665
1643.22,0.179575,251804,166528
1646.16,0.178628,244348,161950
1649.1,0.178849,236703,156803
1652.04,0.177109,228171,151758
1655.95,0.176401,215408,143503
1658.88,0.175569,204937,136789
1661.8,0.173140,193395,129809
1664.72,0.170447,179728,121386
1667.63,0.167056,163642,111388
1670.54,0.161621,146312,100846
1673.44,0.159728,128451,88922
1677.31,0.153994,105080,73710
1680.21,0.156588,88906,61993
1683.1,0.157549,75033,52204
1685.99,0.165141,63520,43428
1688.87,0.172111,53714,36139
1691.75,0.171172,45653,30782
1694.62,0.177581,39137,26002
1697.49,0.182960,33776,22164
1701.31,0.181192,28175,18564