Folder: textile_sorting_NIRSCAN_/samples/wool/wool-000811 (part 10)

File: Column 1_050536_20150331_115318.csv
Method:,Column 1,,
Host Date-Time:,31/3/15 @ 11:53:18,,
Header Version:,1,,
System Temp (C):,31.54,,
Detector Temp (C):,30.12,,
Humidity (%):,3.61,,
Lamp PD:,3826,,
Shift Vector Coefficients:,-10.5391,0.0761263,-0.000134223,,
Pixel to Wavelength Coefficients:,1775.68,-0.916766,-0.000235065,,
Serial Number:,5510004,,
Scan Config Name:,Column 1,,
Scan Config Type:,Slew,,
Section 1,,
Start wavelength (nm):,900,,
End wavelength (nm):,1700,,
Pattern Pixel Width (nm):,   7.03,,,,
Exposure (ms):,  0.635,,,,
Digital Resolution:,228,,
Num Repeats:,6,,
PGA Gain:,64,,
Total Measurement Time in sec:,  2.718,,
Wavelength (nm),Absorbance (AU),Reference Signal (unitless),Sample Signal (unitless)
901.51,0.042154,108485,98450
905.376,0.048236,121306,108554
909.237,0.050991,131909,117296
913.095,0.049988,143299,127719
916.948,0.050271,156982,139823
922.079,0.048791,179937,160816
925.923,0.049649,200504,178844
929.762,0.050949,222660,198013
933.597,0.050756,244426,217466
937.427,0.051610,263972,234395
941.254,0.052098,281845,249984
945.076,0.051879,297271,263799
950.165,0.051921,315605,280042
953.978,0.052267,328029,290834
957.786,0.052226,340470,301893
961.59,0.053866,352317,311220
965.389,0.053360,363056,321080
969.185,0.053699,373162,329760
972.976,0.053898,382632,337974
976.763,0.054932,391202,344722
981.806,0.055349,400190,352304
985.583,0.056751,406088,356344
989.355,0.057241,410162,359513
993.124,0.057911,412868,361327
996.888,0.058581,414263,361989
1000.65,0.059375,415476,362386
1004.4,0.060084,415479,361797
1009.41,0.061330,414358,359787
1013.15,0.061466,412923,358429
1016.89,0.062931,411526,356013
1020.63,0.062577,409066,354174
1024.36,0.062163,406777,352528
1028.09,0.061953,404427,350661
1031.82,0.061801,401911,348601
1036.78,0.061263,398410,345993
1040.49,0.060527,396204,344661
1044.2,0.060393,394236,343055
1047.91,0.059874,392042,341553
1051.61,0.058262,389823,340883
1055.31,0.058453,388234,339344
1059,0.057361,387599,339642
1063.92,0.055988,386688,339917
1067.61,0.054845,386598,340733
1071.29,0.054305,387377,341845
1074.96,0.053057,388536,343854
1078.63,0.052810,389855,345218
1082.3,0.052533,391215,346643
1085.96,0.051812,393215,348994
1090.84,0.051042,396270,352330
1094.49,0.050612,398760,354895
1098.14,0.050316,400987,357120
1101.79,0.050324,403477,359331
1105.43,0.050231,406116,361759
1109.06,0.049830,407701,363506
1112.7,0.049323,409859,365857
1117.53,0.048803,412494,368650
1121.15,0.050230,414909,369592
1124.77,0.050735,416559,370631
1128.38,0.052067,418532,371246
1131.99,0.054343,419956,370562
1135.6,0.056103,421946,370812
1139.2,0.058520,423881,370445
1143.99,0.061244,426786,370652
1147.58,0.061850,428617,371723
1151.17,0.063599,431169,372433
1154.75,0.064903,433579,373392
1158.33,0.067090,436264,373817
1161.91,0.070394,439132,373423
1165.48,0.071991,442389,374812
1169.04,0.075314,446101,375076
1173.79,0.079666,451929,376187
1177.34,0.082889,456026,376791
1180.9,0.084767,461306,379509
1184.44,0.087290,467657,382505
1187.99,0.087751,473969,387257
1191.52,0.087756,479856,392062
1195.06,0.086371,487372,399475
1199.76,0.084868,497347,409064
1203.29,0.084035,504311,415588
1206.81,0.082641,511507,422874
1210.33,0.081413,519078,430348
1213.84,0.080508,527163,437962
1217.35,0.079562,534208,444783
1220.85,0.077709,540472,451923
1225.51,0.076811,549929,460782
1229.01,0.076031,556888,467452
1232.5,0.075218,562180,472778
1235.98,0.074629,567975,478300
1239.46,0.073294,574815,485550
1242.94,0.072052,582782,493690
1246.41,0.071322,591476,501898
1251.03,0.070973,604016,512951
1254.5,0.071170,612289,519740
1257.96,0.071446,619125,525209
1261.41,0.072128,624551,528981
1264.86,0.072442,629900,533126
1268.31,0.073191,634345,535963
1271.75,0.073635,638574,538985
1276.33,0.074395,642499,541349
1279.76,0.074168,645905,544503
1283.19,0.073412,648307,547481
1286.61,0.073133,650446,549640
1290.03,0.072769,652132,551527
1293.44,0.072334,653907,553582
1296.85,0.072326,655963,555333
1301.39,0.072045,657349,556866
1304.8,0.071823,657558,557328
1308.19,0.072099,658515,557785
1311.58,0.072609,658804,557375
1314.97,0.073289,659011,556677
1318.36,0.073851,658272,555334
1321.73,0.074291,658022,554561
1326.23,0.075137,657870,553354
1329.6,0.076407,656482,550574
1332.97,0.077537,654926,547842
1336.33,0.079098,653727,544877
1339.69,0.081177,652497,541254
1343.04,0.082778,649913,537127
1346.39,0.085414,647671,532035
1349.73,0.087600,645338,527457
1354.18,0.091672,641175,519164
1357.52,0.093995,638376,514140
1360.85,0.096529,635805,509090
1364.17,0.098897,633413,504417
1367.49,0.101676,631026,499311
1370.81,0.104586,628050,493638
1374.12,0.107034,625034,488506
1378.54,0.111263,620272,480086
1381.84,0.115042,616892,473333
1385.14,0.119981,613613,465493
1388.43,0.125541,611526,458009
1391.72,0.131254,610663,451385
1395.01,0.136719,610634,445720
1398.29,0.143833,611700,439244
1402.66,0.152252,614051,432466
1405.93,0.159443,616268,426900
1409.2,0.166126,617795,421423
1412.46,0.172690,618872,415825
1415.72,0.178352,619795,411051
1418.98,0.182726,620495,407392
1422.23,0.187054,621087,403737
1426.56,0.191978,621375,399370
1429.8,0.195334,621616,396450
1433.04,0.197879,622129,394459
1436.27,0.200660,621526,391561
1439.5,0.203067,621113,389138
1442.72,0.205589,620921,386765
1445.94,0.208372,620270,383892
1450.23,0.212425,618860,379461
1453.44,0.215042,617697,376473
1456.64,0.218297,616264,372795
1459.85,0.220755,614413,369577
1463.04,0.223192,612307,366250
1466.24,0.225548,610032,362915
1469.43,0.229070,607345,358398
1473.67,0.233858,603789,352393
1476.85,0.239100,601175,346658
1480.02,0.244257,597737,340607
1483.19,0.250606,594479,333834
1486.36,0.256085,591232,327848
1489.52,0.260612,587853,322594
1492.68,0.264646,583875,317449
1496.89,0.266351,578062,313057
1500.03,0.268411,574159,309472
1503.18,0.268134,570285,307580
1506.32,0.268110,565444,304986
1509.45,0.266561,560571,303438
1512.58,0.265714,555821,301454
1515.71,0.262664,550344,300587
1519.87,0.259709,543983,299141
1522.99,0.257019,538764,298112
1526.1,0.254094,533692,297301
1529.21,0.251765,527902,295657
1532.32,0.248594,521886,294430
1535.42,0.245046,515888,293433
1538.51,0.241701,509987,292320
1541.6,0.238569,503936,290942
1545.72,0.233547,494694,288928
1548.8,0.230597,488378,287183
1551.88,0.227522,481832,285347
1554.95,0.225189,474989,282810
1558.02,0.223420,467818,279677
1561.08,0.221640,460730,276571
1564.15,0.220863,454170,273121
1568.22,0.219636,444181,267870
1571.27,0.218480,436947,264210
1574.32,0.218403,429598,259812
1577.36,0.216448,422039,256392
1580.4,0.214682,414375,252762
1583.43,0.212686,406354,249011
1586.46,0.210964,398475,245153
1590.49,0.208201,388982,240840
1593.51,0.206034,380708,236896
1596.53,0.202924,372727,233597
1599.54,0.201007,365060,229804
1602.55,0.199431,357543,225890
1605.55,0.196318,349495,222394
1608.55,0.194157,341154,218169
1612.54,0.191956,330877,212672
1615.53,0.189780,322904,208590
1618.51,0.187295,315116,204727
1621.49,0.185528,307217,200409
1624.47,0.184812,299481,195685
1627.44,0.182841,292112,191738
1630.41,0.181705,284245,187063
1634.36,0.179775,274079,181176
1637.32,0.178450,266916,176980
1640.27,0.178650,259612,172058
1643.22,0.176838,251804,167581
1646.16,0.176450,244348,162764
1649.1,0.174863,236703,158249
1652.04,0.173036,228171,153188
1655.95,0.172544,215408,144783
1658.88,0.171974,204937,137926
1661.8,0.172886,193395,129885
1664.72,0.170501,179728,121371
1667.63,0.166748,163642,111467
1670.54,0.163373,146312,100440
1673.44,0.160750,128451,88713
1677.31,0.156564,105080,73275
1680.21,0.157290,88906,61893
1683.1,0.160437,75033,51858
1685.99,0.167035,63520,43239
1688.87,0.176447,53714,35780
1691.75,0.173663,45653,30606
1694.62,0.182857,39137,25688
1697.49,0.181161,33776,22256
1701.31,0.191586,28175,18125

File: Column 1_050536_20150331_115324.csv
Method:,Column 1,,
Host Date-Time:,31/3/15 @ 11:53:24,,
Header Version:,1,,
System Temp (C):,31.59,,
Detector Temp (C):,30.11,,
Humidity (%):,3.61,,
Lamp PD:,3826,,
Shift Vector Coefficients:,-10.5391,0.0761263,-0.000134223,,
Pixel to Wavelength Coefficients:,1775.68,-0.916766,-0.000235065,,
Serial Number:,5510004,,
Scan Config Name:,Column 1,,
Scan Config Type:,Slew,,
Section 1,,
Start wavelength (nm):,900,,
End wavelength (nm):,1700,,
Pattern Pixel Width (nm):,   7.03,,,,
Exposure (ms):,  0.635,,,,
Digital Resolution:,228,,
Num Repeats:,6,,
PGA Gain:,64,,
Total Measurement Time in sec:,  2.669,,
Wavelength (nm),Absorbance (AU),Reference Signal (unitless),Sample Signal (unitless)
901.51,0.040437,108485,98840
905.376,0.047753,121306,108675
909.237,0.048724,131909,117910
913.095,0.048972,143299,128018
916.948,0.049461,156982,140084
922.079,0.048025,179937,161100
925.923,0.048562,200504,179292
929.762,0.049422,222660,198710
933.597,0.050522,244426,217583
937.427,0.050303,263972,235101
941.254,0.051515,281845,250320
945.076,0.051172,297271,264229
950.165,0.051752,315605,280151
953.978,0.051159,328029,291577
957.786,0.051744,340470,302228
961.59,0.053013,352317,311832
965.389,0.052991,363056,321353
969.185,0.053133,373162,330190
972.976,0.053836,382632,338022
976.763,0.054698,391202,344908
981.806,0.054725,400190,352810
985.583,0.056007,406088,356955
989.355,0.056433,410162,360182
993.124,0.056935,412868,362140
996.888,0.057567,414263,362835
1000.65,0.058391,415476,363208
1004.4,0.059917,415479,361936
1009.41,0.060815,414358,360214
1013.15,0.061261,412923,358598
1016.89,0.062206,411526,356608
1020.63,0.061812,409066,354798
1024.36,0.062186,406777,352509
1028.09,0.061549,404427,350987
1031.82,0.061204,401911,349081
1036.78,0.060305,398410,346757
1040.49,0.059477,396204,345495
1044.2,0.059713,394236,343592
1047.91,0.059407,392042,341921
1051.61,0.058429,389823,340752
1055.31,0.057467,388234,340116
1059,0.056600,387599,340238
1063.92,0.055412,386688,340368
1067.61,0.054731,386598,340823
1071.29,0.054038,387377,342055
1074.96,0.053004,388536,343896
1078.63,0.052768,389855,345251
1082.3,0.051243,391215,347674
1085.96,0.050302,393215,350210
1090.84,0.050102,396270,353093
1094.49,0.050041,398760,355362
1098.14,0.049127,400987,358099
1101.79,0.049461,403477,360046
1105.43,0.049371,406116,362476
1109.06,0.048877,407701,364305
1112.7,0.048691,409859,366390
1117.53,0.048889,412494,368577
1121.15,0.049017,414909,370626
1124.77,0.050636,416559,370715
1128.38,0.052182,418532,371148
1131.99,0.053153,419956,371579
1135.6,0.055484,421946,371341
1139.2,0.057387,423881,371413
1143.99,0.060603,426786,371199
1147.58,0.062057,428617,371546
1151.17,0.063338,431169,372657
1154.75,0.064623,433579,373633
1158.33,0.067010,436264,373886
1161.91,0.069322,439132,374346
1165.48,0.072152,442389,374673
1169.04,0.074792,446101,375527
1173.79,0.078874,451929,376874
1177.34,0.081945,456026,377611
1180.9,0.084323,461306,379897
1184.44,0.086370,467657,383316
1187.99,0.086810,473969,388097
1191.52,0.087203,479856,392562
1195.06,0.085772,487372,400026
1199.76,0.084243,497347,409653
1203.29,0.083497,504311,416104
1206.81,0.082560,511507,422952
1210.33,0.080901,519078,430855
1213.84,0.079633,527163,438846
1217.35,0.078880,534208,445482
1220.85,0.077682,540472,451951
1225.51,0.076747,549929,460850
1229.01,0.075942,556888,467548
1232.5,0.075010,562180,473005
1235.98,0.074276,567975,478689
1239.46,0.072562,574815,486369
1242.94,0.071481,582782,494339
1246.41,0.071146,591476,502101
1251.03,0.070555,604016,513445
1254.5,0.070557,612289,520474
1257.96,0.070901,619125,525869
1261.41,0.071488,624551,529761
1264.86,0.072045,629900,533613
1268.31,0.072672,634345,536603
1271.75,0.073446,638574,539219
1276.33,0.073816,642499,542071
1279.76,0.073777,645905,544994
1283.19,0.073074,648307,547907
1286.61,0.072661,650446,550237
1290.03,0.072688,652132,551630
1293.44,0.071944,653907,554079
1296.85,0.071812,655963,555991
1301.39,0.071698,657349,557311
1304.8,0.071947,657558,557169
1308.19,0.071838,658515,558120
1311.58,0.072155,658804,557958
1314.97,0.072730,659011,557395
1318.36,0.073375,658272,555943
1321.73,0.074025,658022,554901
1326.23,0.075212,657870,553259
1329.6,0.075907,656482,551209
1332.97,0.077363,654926,548061
1336.33,0.078675,653727,545408
1339.69,0.080646,652497,541917
1343.04,0.082872,649913,537011
1346.39,0.085144,647671,532366
1349.73,0.087799,645338,527216
1354.18,0.090972,641175,520002
1357.52,0.093557,638376,514659
1360.85,0.095808,635805,509936
1364.17,0.098449,633413,504938
1367.49,0.101127,631026,499943
1370.81,0.103455,628050,494925
1374.12,0.106494,625034,489114
1378.54,0.110625,620272,480792
1381.84,0.114723,616892,473681
1385.14,0.119336,613613,466185
1388.43,0.124367,611526,459249
1391.72,0.130622,610663,452043
1395.01,0.136452,610634,445994
1398.29,0.142758,611700,440332
1402.66,0.151527,614051,433189
1405.93,0.158730,616268,427602
1409.2,0.165462,617795,422068
1412.46,0.171674,618872,416799
1415.72,0.177282,619795,412065
1418.98,0.182432,620495,407668
1422.23,0.186580,621087,404178
1426.56,0.191753,621375,399577
1429.8,0.194622,621616,397100
1433.04,0.197982,622129,394365
1436.27,0.200429,621526,391769
1439.5,0.202195,621113,389920
1442.72,0.204859,620921,387416
1445.94,0.207599,620270,384576
1450.23,0.211296,618860,380449
1453.44,0.214454,617697,376983
1456.64,0.217654,616264,373347
1459.85,0.220113,614413,370124
1463.04,0.222130,612307,367146
1466.24,0.225531,610032,362929
1469.43,0.228213,607345,359106
1473.67,0.232890,603789,353179
1476.85,0.238056,601175,347492
1480.02,0.243163,597737,341466
1483.19,0.249380,594479,334778
1486.36,0.255090,591232,328600
1489.52,0.259499,587853,323422
1492.68,0.263562,583875,318242
1496.89,0.266320,578062,313079
1500.03,0.267487,574159,310131
1503.18,0.267154,570285,308275
1506.32,0.267797,565444,305206
1509.45,0.266123,560571,303744
1512.58,0.264504,555821,302295
1515.71,0.261737,550344,301229
1519.87,0.259338,543983,299397
1522.99,0.256648,538764,298367
1526.1,0.254029,533692,297346
1529.21,0.250860,527902,296274
1532.32,0.247683,521886,295048
1535.42,0.243783,515888,294288
1538.51,0.240752,509987,292959
1541.6,0.237787,503936,291466
1545.72,0.232547,494694,289594
1548.8,0.229445,488378,287946
1551.88,0.226879,481832,285770
1554.95,0.224776,474989,283079
1558.02,0.222235,467818,280441
1561.08,0.221113,460730,276907
1564.15,0.220201,454170,273538
1568.22,0.218983,444181,268273
1571.27,0.217731,436947,264666
1574.32,0.217195,429598,260536
1577.36,0.216179,422039,256551
1580.4,0.213183,414375,253636
1583.43,0.211646,406354,249608
1586.46,0.209425,398475,246023
1590.49,0.206441,388982,241818
1593.51,0.205016,380708,237452
1596.53,0.201746,372727,234231
1599.54,0.200051,365060,230310
1602.55,0.197390,357543,226954
1605.55,0.195493,349495,222817
1608.55,0.193608,341154,218445
1612.54,0.190837,330877,213221
1615.53,0.187730,322904,209577
1618.51,0.187253,315116,204747
1621.49,0.185392,307217,200472
1624.47,0.183241,299481,196394
1627.44,0.181737,292112,192226
1630.41,0.181445,284245,187175
1634.36,0.178736,274079,181610
1637.32,0.178100,266916,177123
1640.27,0.176693,259612,172835
1643.22,0.175167,251804,168227
1646.16,0.174983,244348,163315
1649.1,0.174276,236703,158463
1652.04,0.173737,228171,152941
1655.95,0.172523,215408,144790
1658.88,0.169315,204937,138773
1661.8,0.170010,193395,130748
1664.72,0.167623,179728,122178
1667.63,0.163995,163642,112176
1670.54,0.159756,146312,101280
1673.44,0.157390,128451,89402
1677.31,0.153393,105080,73812
1680.21,0.154729,88906,62259
1683.1,0.157956,75033,52155
1685.99,0.162350,63520,43708
1688.87,0.163697,53714,36846
1691.75,0.168556,45653,30968
1694.62,0.168409,39137,26557
1697.49,0.177024,33776,22469
1701.31,0.162085,28175,19399

File: Column 1_050536_20150331_115327.csv
Method:,Column 1,,
Host Date-Time:,31/3/15 @ 11:53:27,,
Header Version:,1,,
System Temp (C):,31.65,,
Detector Temp (C):,30.11,,
Humidity (%):,3.61,,
Lamp PD:,3827,,
Shift Vector Coefficients:,-10.5391,0.0761263,-0.000134223,,
Pixel to Wavelength Coefficients:,1775.68,-0.916766,-0.000235065,,
Serial Number:,5510004,,
Scan Config Name:,Column 1,,
Scan Config Type:,Slew,,
Section 1,,
Start wavelength (nm):,900,,
End wavelength (nm):,1700,,
Pattern Pixel Width (nm):,   7.03,,,,
Exposure (ms):,  0.635,,,,
Digital Resolution:,228,,
Num Repeats:,6,,
PGA Gain:,64,,
Total Measurement Time in sec:,  2.676,,
Wavelength (nm),Absorbance (AU),Reference Signal (unitless),Sample Signal (unitless)
901.51,0.042335,108485,98409
905.376,0.047102,121306,108838
909.237,0.050000,131909,117564
913.095,0.049855,143299,127758
916.948,0.048585,156982,140367
922.079,0.050070,179937,160343
925.923,0.049306,200504,178985
929.762,0.049906,222660,198489
933.597,0.051220,244426,217234
937.427,0.050584,263972,234949
941.254,0.051090,281845,250565
945.076,0.051419,297271,264079
950.165,0.051377,315605,280393
953.978,0.051788,328029,291155
957.786,0.051977,340470,302066
961.59,0.053570,352317,311432
965.389,0.053105,363056,321269
969.185,0.053299,373162,330064
972.976,0.053919,382632,337958
976.763,0.054378,391202,345162
981.806,0.055736,400190,351990
985.583,0.056183,406088,356810
989.355,0.056921,410162,359778
993.124,0.057250,412868,361877
996.888,0.057778,414263,362659
1000.65,0.058664,415476,362979
1004.4,0.060163,415479,361731
1009.41,0.061686,414358,359492
1013.15,0.061650,412923,358277
1016.89,0.062252,411526,356570
1020.63,0.062428,409066,354295
1024.36,0.061822,406777,352805
1028.09,0.061383,404427,351121
1031.82,0.061566,401911,348790
1036.78,0.060772,398410,346384
1040.49,0.059970,396204,345103
1044.2,0.059981,394236,343380
1047.91,0.059484,392042,341860
1051.61,0.058325,389823,340834
1055.31,0.057871,388234,339799
1059,0.057138,387599,339817
1063.92,0.056213,386688,339741
1067.61,0.055343,386598,340343
1071.29,0.053870,387377,342187
1074.96,0.053377,388536,343601
1078.63,0.053178,389855,344925
1082.3,0.051514,391215,347457
1085.96,0.051002,393215,349646
1090.84,0.050546,396270,352732
1094.49,0.049947,398760,355439
1098.14,0.049689,400987,357636
1101.79,0.049435,403477,360067
1105.43,0.049603,406116,362282
1109.06,0.049465,407701,363812
1112.7,0.049175,409859,365982
1117.53,0.049205,412494,368309
1121.15,0.049928,414909,369849
1124.77,0.050202,416559,371086
1128.38,0.052046,418532,371264
1131.99,0.053767,419956,371054
1135.6,0.055895,421946,370990
1139.2,0.057744,423881,371108
1143.99,0.060816,426786,371017
1147.58,0.061877,428617,371700
1151.17,0.062849,431169,373077
1154.75,0.065182,433579,373152
1158.33,0.067000,436264,373895
1161.91,0.069427,439132,374255
1165.48,0.072516,442389,374359
1169.04,0.075037,446101,375315
1173.79,0.079912,451929,375974
1177.34,0.082106,456026,377471
1180.9,0.084792,461306,379487
1184.44,0.086647,467657,383072
1187.99,0.087395,473969,387574
1191.52,0.087033,479856,392715
1195.06,0.086619,487372,399247
1199.76,0.084734,497347,409190
1203.29,0.083579,504311,416025
1206.81,0.082390,511507,423118
1210.33,0.080876,519078,430880
1213.84,0.079911,527163,438565
1217.35,0.078950,534208,445410
1220.85,0.077783,540472,451846
1225.51,0.076557,549929,461052
1229.01,0.075631,556888,467883
1232.5,0.074972,562180,473046
1235.98,0.074111,567975,478871
1239.46,0.072694,574815,486221
1242.94,0.071632,582782,494167
1246.41,0.070793,591476,502509
1251.03,0.070785,604016,513173
1254.5,0.070708,612289,520293
1257.96,0.070980,619125,525773
1261.41,0.071815,624551,529362
1264.86,0.071889,629900,533805
1268.31,0.072878,634345,536349
1271.75,0.073547,638574,539094
1276.33,0.073792,642499,542101
1279.76,0.073877,645905,544868
1283.19,0.073355,648307,547552
1286.61,0.072883,650446,549957
1290.03,0.072612,652132,551726
1293.44,0.071863,653907,554183
1296.85,0.071637,655963,556215
1301.39,0.071784,657349,557201
1304.8,0.072216,657558,556824
1308.19,0.072019,658515,557887
1311.58,0.072324,658804,557741
1314.97,0.072785,659011,557324
1318.36,0.073067,658272,556338
1321.73,0.074152,658022,554738
1326.23,0.075033,657870,553486
1329.6,0.075784,656482,551365
1332.97,0.077134,654926,548350
1336.33,0.078927,653727,545091
1339.69,0.080732,652497,541810
1343.04,0.082580,649913,537372
1346.39,0.085285,647671,532193
1349.73,0.087310,645338,527810
1354.18,0.091272,641175,519642
1357.52,0.093657,638376,514540
1360.85,0.096184,635805,509495
1364.17,0.098282,633413,505132
1367.49,0.101272,631026,499776
1370.81,0.103848,628050,494477
1374.12,0.107029,625034,488511
1378.54,0.110930,620272,480454
1381.84,0.114928,616892,473458
1385.14,0.119349,613613,466171
1388.43,0.124717,611526,458879
1391.72,0.130425,610663,452248
1395.01,0.136686,610634,445754
1398.29,0.143275,611700,439808
1402.66,0.152025,614051,432693
1405.93,0.159220,616268,427120
1409.2,0.165976,617795,421569
1412.46,0.172044,618872,416444
1415.72,0.177193,619795,412150
1418.98,0.182345,620495,407749
1422.23,0.186407,621087,404339
1426.56,0.191626,621375,399694
1429.8,0.194170,621616,397514
1433.04,0.197414,622129,394881
1436.27,0.200134,621526,392035
1439.5,0.202591,621113,389565
1442.72,0.205242,620921,387074
1445.94,0.207892,620270,384316
1450.23,0.211378,618860,380377
1453.44,0.214880,617697,376613
1456.64,0.217068,616264,373851
1459.85,0.219342,614413,370782
1463.04,0.222750,612307,366623
1466.24,0.225851,610032,362662
1469.43,0.228571,607345,358810
1473.67,0.233181,603789,352943
1476.85,0.237882,601175,347631
1480.02,0.243332,597737,341333
1483.19,0.249467,594479,334711
1486.36,0.255752,591232,328100
1489.52,0.260415,587853,322741
1492.68,0.264165,583875,317801
1496.89,0.266590,578062,312885
1500.03,0.267661,574159,310007
1503.18,0.268182,570285,307546
1506.32,0.267283,565444,305567
1509.45,0.266204,560571,303687
1512.58,0.265137,555821,301855
1515.71,0.262195,550344,300912
1519.87,0.258770,543983,299789
1522.99,0.257223,538764,297972
1526.1,0.254283,533692,297172
1529.21,0.251083,527902,296122
1532.32,0.247648,521886,295072
1535.42,0.244347,515888,293906
1538.51,0.241077,509987,292740
1541.6,0.237301,503936,291793
1545.72,0.232322,494694,289744
1548.8,0.229905,488378,287641
1551.88,0.226975,481832,285707
1554.95,0.224244,474989,283426
1558.02,0.222716,467818,280131
1561.08,0.220819,460730,277094
1564.15,0.221056,454170,273000
1568.22,0.219187,444181,268147
1571.27,0.218509,436947,264192
1574.32,0.217271,429598,260490
1577.36,0.215834,422039,256755
1580.4,0.213208,414375,253621
1583.43,0.211895,406354,249465
1586.46,0.209371,398475,246054
1590.49,0.207783,388982,241072
1593.51,0.205494,380708,237191
1596.53,0.202901,372727,233609
1599.54,0.200918,365060,229851
1602.55,0.197678,357543,226804
1605.55,0.195237,349495,222948
1608.55,0.193748,341154,218375
1612.54,0.191828,330877,212735
1615.53,0.187624,322904,209628
1618.51,0.187274,315116,204737
1621.49,0.185145,307217,200586
1624.47,0.183708,299481,196183
1627.44,0.182973,292112,191680
1630.41,0.180356,284245,187645
1634.36,0.179298,274079,181375
1637.32,0.178056,266916,177141
1640.27,0.177805,259612,172393
1643.22,0.176237,251804,167813
1646.16,0.175384,244348,163164
1649.1,0.174235,236703,158478
1652.04,0.173299,228171,153095
1655.95,0.172223,215408,144890
1658.88,0.170271,204937,138468
1661.8,0.169844,193395,130798
1664.72,0.169718,179728,121590
1667.63,0.165173,163642,111872
1670.54,0.161716,146312,100824
1673.44,0.158767,128451,89119
1677.31,0.153440,105080,73804
1680.21,0.157079,88906,61923
1683.1,0.157915,75033,52160
1685.99,0.163823,63520,43560
1688.87,0.166428,53714,36615
1691.75,0.176253,45653,30424
1694.62,0.177948,39137,25980
1697.49,0.183136,33776,22155
1701.31,0.186938,28175,18320