Folder: textile_sorting_NIRSCAN_/samples/wool/wool-000811 (part 60)

File: Column 1_050563_20150331_120601.csv
Method:,Column 1,,
Host Date-Time:,31/3/15 @ 12:6:1,,
Header Version:,1,,
System Temp (C):,33.79,,
Detector Temp (C):,33.5,,
Humidity (%):,1.95,,
Lamp PD:,3819,,
Shift Vector Coefficients:,-10.5391,0.0761263,-0.000134223,,
Pixel to Wavelength Coefficients:,1775.68,-0.916766,-0.000235065,,
Serial Number:,5510004,,
Scan Config Name:,Column 1,,
Scan Config Type:,Slew,,
Section 1,,
Start wavelength (nm):,900,,
End wavelength (nm):,1700,,
Pattern Pixel Width (nm):,   7.03,,,,
Exposure (ms):,  0.635,,,,
Digital Resolution:,228,,
Num Repeats:,6,,
PGA Gain:,64,,
Total Measurement Time in sec:,  2.721,,
Wavelength (nm),Absorbance (AU),Reference Signal (unitless),Sample Signal (unitless)
901.51,0.034251,108485,100258
905.376,0.039970,121306,110640
909.237,0.041879,131909,119783
913.095,0.044084,143299,129467
916.948,0.042575,156982,142323
922.079,0.045193,179937,162154
925.923,0.045901,200504,180394
929.762,0.047551,222660,199568
933.597,0.048539,244426,218579
937.427,0.046886,263972,236958
941.254,0.046979,281845,252948
945.076,0.046562,297271,267049
950.165,0.045674,315605,284099
953.978,0.045430,328029,295449
957.786,0.045996,340470,306255
961.59,0.046179,352317,316778
965.389,0.046112,363056,326484
969.185,0.046641,373162,335163
972.976,0.047080,382632,343322
976.763,0.047505,391202,350668
981.806,0.047899,400190,358399
985.583,0.049216,406088,362580
989.355,0.048990,410162,366408
993.124,0.049388,412868,368488
996.888,0.050430,414263,368847
1000.65,0.051220,415476,369255
1004.4,0.052023,415479,368575
1009.41,0.053111,414358,366661
1013.15,0.054205,412923,364472
1016.89,0.054671,411526,362849
1020.63,0.054228,409066,361048
1024.36,0.054646,406777,358683
1028.09,0.054398,404427,356814
1031.82,0.054315,401911,354662
1036.78,0.053892,398410,351915
1040.49,0.053877,396204,349979
1044.2,0.053227,394236,348762
1047.91,0.052567,392042,347349
1051.61,0.052333,389823,345569
1055.31,0.051594,388234,344746
1059,0.050922,387599,344715
1063.92,0.050092,386688,344563
1067.61,0.049262,386598,345142
1071.29,0.049295,387377,345811
1074.96,0.048067,388536,347828
1078.63,0.048028,389855,349040
1082.3,0.046805,391215,351245
1085.96,0.045962,393215,353727
1090.84,0.045605,396270,356768
1094.49,0.045088,398760,359438
1098.14,0.044135,400987,362239
1101.79,0.044689,403477,364024
1105.43,0.045085,406116,366071
1109.06,0.044172,407701,368273
1112.7,0.043770,409859,370565
1117.53,0.043642,412494,373057
1121.15,0.044792,414909,374249
1124.77,0.045570,416559,375065
1128.38,0.046362,418532,376155
1131.99,0.048586,419956,375507
1135.6,0.049815,421946,376220
1139.2,0.051224,423881,376721
1143.99,0.054135,426786,376769
1147.58,0.054882,428617,377735
1151.17,0.056358,431169,378695
1154.75,0.057678,433579,379656
1158.33,0.059279,436264,380601
1161.91,0.060987,439132,381600
1165.48,0.064106,442389,381679
1169.04,0.066410,446101,382845
1173.79,0.070037,451929,384621
1177.34,0.071957,456026,386396
1180.9,0.075048,461306,388098
1184.44,0.076528,467657,392102
1187.99,0.077220,473969,396762
1191.52,0.077435,479856,401491
1195.06,0.076785,487372,408390
1199.76,0.076058,497347,417447
1203.29,0.074207,504311,425100
1206.81,0.074346,511507,431028
1210.33,0.073289,519078,438474
1213.84,0.072659,527163,445950
1217.35,0.071916,534208,452683
1220.85,0.071296,540472,458646
1225.51,0.070240,549929,467807
1229.01,0.070058,556888,473925
1232.5,0.069196,562180,479379
1235.98,0.068411,567975,485197
1239.46,0.067279,574815,492322
1242.94,0.066411,582782,500144
1246.41,0.065818,591476,508299
1251.03,0.065691,604016,519227
1254.5,0.065874,612289,526117
1257.96,0.066251,619125,531530
1261.41,0.067109,624551,535130
1264.86,0.067510,629900,539214
1268.31,0.068031,634345,542369
1271.75,0.068749,638574,545083
1276.33,0.069331,642499,547698
1279.76,0.069351,645905,550577
1283.19,0.068490,648307,553721
1286.61,0.068497,650446,555538
1290.03,0.067662,652132,558051
1293.44,0.067365,653907,559952
1296.85,0.067063,655963,562103
1301.39,0.066894,657349,563510
1304.8,0.066948,657558,563620
1308.19,0.067173,658515,564148
1311.58,0.067292,658804,564241
1314.97,0.067979,659011,563526
1318.36,0.068492,658272,562229
1321.73,0.068457,658022,562061
1326.23,0.069895,657870,560074
1329.6,0.070551,656482,558048
1332.97,0.071729,654926,555217
1336.33,0.072941,653727,552657
1339.69,0.074408,652497,549757
1343.04,0.076311,649913,545185
1346.39,0.078663,647671,540370
1349.73,0.080863,645338,535703
1354.18,0.083780,641175,528685
1357.52,0.086211,638376,523438
1360.85,0.088697,635805,518355
1364.17,0.090573,633413,514178
1367.49,0.093283,631026,509054
1370.81,0.095934,628050,503570
1374.12,0.098058,625034,498707
1378.54,0.101298,620272,491229
1381.84,0.104854,616892,484569
1385.14,0.109288,613613,477097
1388.43,0.113088,611526,471332
1391.72,0.118167,610663,465195
1395.01,0.123151,610634,459865
1398.29,0.128448,611700,455083
1402.66,0.135850,614051,449112
1405.93,0.141555,616268,444851
1409.2,0.147187,617795,440207
1412.46,0.151996,618872,436119
1415.72,0.156770,619795,431994
1418.98,0.160731,620495,428556
1422.23,0.165100,621087,424671
1426.56,0.169044,621375,421027
1429.8,0.172208,621616,418133
1433.04,0.175038,622129,415760
1436.27,0.177162,621526,413330
1439.5,0.179412,621113,410921
1442.72,0.182310,620921,408062
1445.94,0.184164,620270,405898
1450.23,0.188534,618860,400921
1453.44,0.190978,617697,397922
1456.64,0.193572,616264,394634
1459.85,0.197044,614413,390316
1463.04,0.199568,612307,386724
1466.24,0.203222,610032,382059
1469.43,0.206562,607345,377462
1473.67,0.212565,603789,370101
1476.85,0.218000,601175,363916
1480.02,0.224089,597737,356797
1483.19,0.231277,594479,349027
1486.36,0.236958,591232,342610
1489.52,0.242449,587853,336372
1492.68,0.245612,583875,331671
1496.89,0.248045,578062,326535
1500.03,0.248416,574159,324053
1503.18,0.249237,570285,321259
1506.32,0.247708,565444,319655
1509.45,0.246425,560571,317838
1512.58,0.245132,555821,316084
1515.71,0.242110,550344,315155
1519.87,0.238798,543983,313897
1522.99,0.236298,538764,312680
1526.1,0.233872,533692,311472
1529.21,0.231207,527902,309989
1532.32,0.227434,521886,309130
1535.42,0.224880,515888,307380
1538.51,0.221493,509987,306243
1541.6,0.218892,503936,304427
1545.72,0.214402,494694,301950
1548.8,0.211152,488378,300334
1551.88,0.208238,481832,298303
1554.95,0.206585,474989,295188
1558.02,0.204187,467818,292341
1561.08,0.202909,460730,288760
1564.15,0.203067,454170,284545
1568.22,0.201164,444181,279509
1571.27,0.200022,436947,275681
1574.32,0.198977,429598,271697
1577.36,0.197485,422039,267835
1580.4,0.196674,414375,263463
1583.43,0.194200,406354,259839
1586.46,0.192591,398475,255747
1590.49,0.191429,388982,250323
1593.51,0.188627,380708,246584
1596.53,0.186674,372727,242503
1599.54,0.184426,365060,238747
1602.55,0.181952,357543,235167
1605.55,0.179812,349495,231009
1608.55,0.177101,341154,226908
1612.54,0.174960,330877,221160
1615.53,0.173110,322904,216752
1618.51,0.171735,315116,212195
1621.49,0.171253,307217,207106
1624.47,0.170577,299481,202205
1627.44,0.168718,292112,198076
1630.41,0.166469,284245,193742
1634.36,0.165023,274079,187436
1637.32,0.166010,266916,182123
1640.27,0.164598,259612,177716
1643.22,0.161771,251804,173497
1646.16,0.162881,244348,167930
1649.1,0.162528,236703,162808
1652.04,0.159150,228171,158165
1655.95,0.158171,215408,149655
1658.88,0.154185,204937,143693
1661.8,0.151265,193395,136515
1664.72,0.144231,179728,128939
1667.63,0.135039,163642,119910
1670.54,0.123733,146312,110039
1673.44,0.112340,128451,99174
1677.31,0.096192,105080,84203
1680.21,0.087301,88906,72716
1683.1,0.084201,75033,61809
1685.99,0.091314,63520,51475
1688.87,0.092748,53714,43385
1691.75,0.102950,45653,36018
1694.62,0.109457,39137,30418
1697.49,0.112684,33776,26057
1701.31,0.119511,28175,21397

File: Column 1_050563_20150331_120604.csv
Method:,Column 1,,
Host Date-Time:,31/3/15 @ 12:6:4,,
Header Version:,1,,
System Temp (C):,33.82,,
Detector Temp (C):,33.55,,
Humidity (%):,1.95,,
Lamp PD:,3819,,
Shift Vector Coefficients:,-10.5391,0.0761263,-0.000134223,,
Pixel to Wavelength Coefficients:,1775.68,-0.916766,-0.000235065,,
Serial Number:,5510004,,
Scan Config Name:,Column 1,,
Scan Config Type:,Slew,,
Section 1,,
Start wavelength (nm):,900,,
End wavelength (nm):,1700,,
Pattern Pixel Width (nm):,   7.03,,,,
Exposure (ms):,  0.635,,,,
Digital Resolution:,228,,
Num Repeats:,6,,
PGA Gain:,64,,
Total Measurement Time in sec:,  2.670,,
Wavelength (nm),Absorbance (AU),Reference Signal (unitless),Sample Signal (unitless)
901.51,0.035639,108485,99938
905.376,0.040748,121306,110442
909.237,0.042845,131909,119517
913.095,0.043313,143299,129697
916.948,0.043662,156982,141967
922.079,0.046386,179937,161709
925.923,0.047131,200504,179884
929.762,0.047621,222660,199536
933.597,0.047941,244426,218880
937.427,0.047094,263972,236845
941.254,0.047491,281845,252650
945.076,0.047113,297271,266710
950.165,0.046511,315605,283552
953.978,0.045819,328029,295184
957.786,0.046145,340470,306150
961.59,0.046077,352317,316852
965.389,0.046307,363056,326337
969.185,0.046666,373162,335144
972.976,0.047348,382632,343110
976.763,0.047122,391202,350977
981.806,0.047987,400190,358327
985.583,0.048685,406088,363024
989.355,0.049540,410162,365945
993.124,0.050041,412868,367934
996.888,0.050310,414263,368949
1000.65,0.050926,415476,369505
1004.4,0.052406,415479,368250
1009.41,0.053451,414358,366374
1013.15,0.054344,412923,364355
1016.89,0.054651,411526,362866
1020.63,0.055248,409066,360201
1024.36,0.054313,406777,358958
1028.09,0.053717,404427,357374
1031.82,0.054090,401911,354846
1036.78,0.053413,398410,352304
1040.49,0.052997,396204,350689
1044.2,0.053237,394236,348754
1047.91,0.053261,392042,346794
1051.61,0.051923,389823,345895
1055.31,0.051757,388234,344617
1059,0.050516,387599,345038
1063.92,0.049647,386688,344916
1067.61,0.049437,386598,345003
1071.29,0.048411,387377,346516
1074.96,0.047817,388536,348028
1078.63,0.047784,389855,349236
1082.3,0.047170,391215,350950
1085.96,0.046355,393215,353407
1090.84,0.045451,396270,356895
1094.49,0.045366,398760,359208
1098.14,0.044211,400987,362176
1101.79,0.044512,403477,364172
1105.43,0.044153,406116,366857
1109.06,0.044158,407701,368285
1112.7,0.044094,409859,370289
1117.53,0.044324,412494,372472
1121.15,0.045073,414909,374007
1124.77,0.044945,416559,375605
1128.38,0.046370,418532,376148
1131.99,0.047790,419956,376196
1135.6,0.049643,421946,376369
1139.2,0.051981,423881,376065
1143.99,0.054111,426786,376790
1147.58,0.054920,428617,377702
1151.17,0.055882,431169,379110
1154.75,0.057472,433579,379836
1158.33,0.059469,436264,380435
1161.91,0.061403,439132,381234
1165.48,0.063298,442389,382390
1169.04,0.066620,446101,382660
1173.79,0.069730,451929,384893
1177.34,0.072715,456026,385722
1180.9,0.074837,461306,388286
1184.44,0.076460,467657,392164
1187.99,0.077342,473969,396650
1191.52,0.077152,479856,401753
1195.06,0.076883,487372,408298
1199.76,0.076177,497347,417333
1203.29,0.074871,504311,424451
1206.81,0.074377,511507,430997
1210.33,0.073366,519078,438396
1213.84,0.072760,527163,445846
1217.35,0.071709,534208,452899
1220.85,0.070996,540472,458962
1225.51,0.070205,549929,467845
1229.01,0.069894,556888,474104
1232.5,0.068779,562180,479840
1235.98,0.068891,567975,484661
1239.46,0.067443,574815,492136
1242.94,0.066441,582782,500109
1246.41,0.065868,591476,508240
1251.03,0.065521,604016,519431
1254.5,0.065679,612289,526353
1257.96,0.066266,619125,531511
1261.41,0.066534,624551,535838
1264.86,0.067672,629900,539014
1268.31,0.067825,634345,542626
1271.75,0.068616,638574,545249
1276.33,0.068906,642499,548235
1279.76,0.069069,645905,550934
1283.19,0.068751,648307,553388
1286.61,0.068269,650446,555830
1290.03,0.067571,652132,558168
1293.44,0.067290,653907,560049
1296.85,0.067097,655963,562060
1301.39,0.067068,657349,563285
1304.8,0.066759,657558,563865
1308.19,0.066803,658515,564628
1311.58,0.067617,658804,563818
1314.97,0.067738,659011,563838
1318.36,0.068091,658272,562749
1321.73,0.068547,658022,561944
1326.23,0.069486,657870,560601
1329.6,0.070582,656482,558009
1332.97,0.071735,654926,555210
1336.33,0.072769,653727,552876
1339.69,0.074473,652497,549675
1343.04,0.076499,649913,544949
1346.39,0.078707,647671,540316
1349.73,0.080426,645338,536243
1354.18,0.083829,641175,528625
1357.52,0.086117,638376,523552
1360.85,0.088545,635805,518536
1364.17,0.090729,633413,513994
1367.49,0.093202,631026,509149
1370.81,0.095189,628050,504435
1374.12,0.097835,625034,498963
1378.54,0.101406,620272,491107
1381.84,0.104806,616892,484622
1385.14,0.108661,613613,477786
1388.43,0.113211,611526,471198
1391.72,0.118334,610663,465016
1395.01,0.123019,610634,460004
1398.29,0.127899,611700,455658
1402.66,0.135813,614051,449150
1405.93,0.141369,616268,445042
1409.2,0.147320,617795,440073
1412.46,0.152257,618872,435857
1415.72,0.156432,619795,432331
1418.98,0.161162,620495,428131
1422.23,0.164579,621087,425181
1426.56,0.169227,621375,420849
1429.8,0.171807,621616,418519
1433.04,0.174981,622129,415814
1436.27,0.176874,621526,413605
1439.5,0.179386,621113,410946
1442.72,0.182124,620921,408237
1445.94,0.184637,620270,405456
1450.23,0.187950,618860,401460
1453.44,0.190835,617697,398053
1456.64,0.193809,616264,394419
1459.85,0.196814,614413,390523
1463.04,0.199420,612307,386856
1466.24,0.202807,610032,382424
1469.43,0.206477,607345,377536
1473.67,0.212405,603789,370237
1476.85,0.218069,601175,363858
1480.02,0.223680,597737,357133
1483.19,0.231279,594479,349026
1486.36,0.236741,591232,342781
1489.52,0.242116,587853,336630
1492.68,0.244790,583875,332300
1496.89,0.247986,578062,326579
1500.03,0.248525,574159,323972
1503.18,0.248413,570285,321869
1506.32,0.247504,565444,319805
1509.45,0.246432,560571,317833
1512.58,0.244740,555821,316370
1515.71,0.242474,550344,314891
1519.87,0.239177,543983,313623
1522.99,0.236582,538764,312476
1526.1,0.234068,533692,311331
1529.21,0.230713,527902,310342
1532.32,0.228054,521886,308689
1535.42,0.224500,515888,307649
1538.51,0.221187,509987,306459
1541.6,0.218751,503936,304526
1545.72,0.213476,494694,302594
1548.8,0.211019,488378,300426
1551.88,0.207964,481832,298491
1554.95,0.205655,474989,295821
1558.02,0.203803,467818,292600
1561.08,0.202594,460730,288970
1564.15,0.202229,454170,285095
1568.22,0.200490,444181,279943
1571.27,0.200755,436947,275216
1574.32,0.198787,429598,271816
1577.36,0.198193,422039,267399
1580.4,0.196652,414375,263476
1583.43,0.194571,406354,259617
1586.46,0.193066,398475,255467
1590.49,0.191436,388982,250319
1593.51,0.188844,380708,246461
1596.53,0.185911,372727,242929
1599.54,0.183808,365060,239087
1602.55,0.182578,357543,234828
1605.55,0.179966,349495,230927
1608.55,0.177568,341154,226664
1612.54,0.174389,330877,221451
1615.53,0.172494,322904,217060
1618.51,0.172133,315116,212001
1621.49,0.171227,307217,207118
1624.47,0.169411,299481,202749
1627.44,0.168849,292112,198016
1630.41,0.166671,284245,193652
1634.36,0.165881,274079,187066
1637.32,0.164986,266916,182553
1640.27,0.163849,259612,178023
1643.22,0.162623,251804,173157
1646.16,0.162516,244348,168071
1649.1,0.162445,236703,162839
1652.04,0.160041,228171,157841
1655.95,0.157779,215408,149790
1658.88,0.155529,204937,143249
1661.8,0.150877,193395,136637
1664.72,0.144521,179728,128853
1667.63,0.133712,163642,120277
1670.54,0.121309,146312,110655
1673.44,0.111653,128451,99331
1677.31,0.096332,105080,84176
1680.21,0.089013,88906,72430
1683.1,0.083913,75033,61850
1685.99,0.088497,63520,51810
1688.87,0.094182,53714,43242
1691.75,0.099898,45653,36272
1694.62,0.106242,39137,30644
1697.49,0.107745,33776,26355
1701.31,0.119552,28175,21395

File: Column 1_050563_20150331_120607.csv
Method:,Column 1,,
Host Date-Time:,31/3/15 @ 12:6:7,,
Header Version:,1,,
System Temp (C):,33.84,,
Detector Temp (C):,33.5,,
Humidity (%):,1.95,,
Lamp PD:,3819,,
Shift Vector Coefficients:,-10.5391,0.0761263,-0.000134223,,
Pixel to Wavelength Coefficients:,1775.68,-0.916766,-0.000235065,,
Serial Number:,5510004,,
Scan Config Name:,Column 1,,
Scan Config Type:,Slew,,
Section 1,,
Start wavelength (nm):,900,,
End wavelength (nm):,1700,,
Pattern Pixel Width (nm):,   7.03,,,,
Exposure (ms):,  0.635,,,,
Digital Resolution:,228,,
Num Repeats:,6,,
PGA Gain:,64,,
Total Measurement Time in sec:,  2.672,,
Wavelength (nm),Absorbance (AU),Reference Signal (unitless),Sample Signal (unitless)
901.51,0.032746,108485,100606
905.376,0.038012,121306,111140
909.237,0.042271,131909,119675
913.095,0.042748,143299,129866
916.948,0.041968,156982,142522
922.079,0.044834,179937,162288
925.923,0.047063,200504,179912
929.762,0.047173,222660,199742
933.597,0.048229,244426,218735
937.427,0.046705,263972,237057
941.254,0.046967,281845,252955
945.076,0.045954,297271,267423
950.165,0.045850,315605,283984
953.978,0.044889,328029,295817
957.786,0.045527,340470,306586
961.59,0.045761,352317,317083
965.389,0.045359,363056,327050
969.185,0.046085,373162,335593
972.976,0.046712,382632,343613
976.763,0.046921,391202,351140
981.806,0.047598,400190,358648
985.583,0.048190,406088,363438
989.355,0.049295,410162,366151
993.124,0.049604,412868,368305
996.888,0.049917,414263,369283
1000.65,0.050635,415476,369752
1004.4,0.052481,415479,368187
1009.41,0.053340,414358,366468
1013.15,0.053694,412923,364901
1016.89,0.054278,411526,363178
1020.63,0.054331,409066,360963
1024.36,0.054033,406777,359189
1028.09,0.053947,404427,357185
1031.82,0.053996,401911,354923
1036.78,0.053472,398410,352256
1040.49,0.052940,396204,350735
1044.2,0.052477,394236,349365
1047.91,0.052459,392042,347435
1051.61,0.051892,389823,345920
1055.31,0.051169,388234,345084
1059,0.050710,387599,344884
1063.92,0.049702,386688,344873
1067.61,0.048534,386598,345721
1071.29,0.047940,387377,346892
1074.96,0.047540,388536,348250
1078.63,0.047222,389855,349688
1082.3,0.046653,391215,351368
1085.96,0.045742,393215,353906
1090.84,0.045205,396270,357097
1094.49,0.044161,398760,360206
1098.14,0.044537,400987,361904
1101.79,0.043900,403477,364686
1105.43,0.044062,406116,366934
1109.06,0.043645,407701,368720
1112.7,0.043751,409859,370581
1117.53,0.043737,412494,372976
1121.15,0.045077,414909,374004
1124.77,0.044971,416559,375583
1128.38,0.046508,418532,376028
1131.99,0.048053,419956,375968
1135.6,0.049401,421946,376579
1139.2,0.051452,423881,376523
1143.99,0.053841,426786,377024
1147.58,0.054833,428617,377778
1151.17,0.056054,431169,378960
1154.75,0.056990,433579,380258
1158.33,0.059007,436264,380840
1161.91,0.060743,439132,381814
1165.48,0.063498,442389,382214
1169.04,0.066432,446101,382826
1173.79,0.069024,451929,385519
1177.34,0.072128,456026,386244
1180.9,0.074173,461306,388880
1184.44,0.076370,467657,392245
1187.99,0.077303,473969,396686
1191.52,0.077073,479856,401826
1195.06,0.076175,487372,408964
1199.76,0.075739,497347,417754
1203.29,0.074651,504311,424666
1206.81,0.074047,511507,431325
1210.33,0.073161,519078,438603
1213.84,0.072299,527163,446320
1217.35,0.071939,534208,452659
1220.85,0.070677,540472,459300
1225.51,0.069942,549929,468128
1229.01,0.069340,556888,474709
1232.5,0.068890,562180,479717
1235.98,0.067878,567975,485793
1239.46,0.067048,574815,492584
1242.94,0.066419,582782,500135
1246.41,0.065381,591476,508810
1251.03,0.065253,604016,519751
1254.5,0.065601,612289,526448
1257.96,0.066032,619125,531797
1261.41,0.066645,624551,535702
1264.86,0.066883,629900,539994
1268.31,0.067919,634345,542509
1271.75,0.068341,638574,545595
1276.33,0.069082,642499,548013
1279.76,0.068908,645905,551138
1283.19,0.068135,648307,554174
1286.61,0.068053,650446,556107
1290.03,0.067634,652132,558087
1293.44,0.067154,653907,560225
1296.85,0.066763,655963,562492
1301.39,0.066528,657349,563986
1304.8,0.066317,657558,564439
1308.19,0.066825,658515,564600
1311.58,0.067142,658804,564435
1314.97,0.067968,659011,563540
1318.36,0.068241,658272,562554
1321.73,0.068362,658022,562184
1326.23,0.069501,657870,560582
1329.6,0.070064,656482,558674
1332.97,0.071439,654926,555589
1336.33,0.072638,653727,553043
1339.69,0.074703,652497,549383
1343.04,0.076407,649913,545065
1346.39,0.078046,647671,541138
1349.73,0.080290,645338,536410
1354.18,0.083870,641175,528575
1357.52,0.085681,638376,524077
1360.85,0.088255,635805,518882
1364.17,0.090519,633413,514242
1367.49,0.092694,631026,509745
1370.81,0.095534,628050,504034
1374.12,0.097498,625034,499351
1378.54,0.101151,620272,491395
1381.84,0.104524,616892,484937
1385.14,0.108465,613613,478002
1388.43,0.113075,611526,471346
1391.72,0.117920,610663,465459
1395.01,0.122430,610634,460629
1398.29,0.128102,611700,455446
1402.66,0.135431,614051,449545
1405.93,0.140946,616268,445475
1409.2,0.146341,617795,441066
1412.46,0.151946,618872,436169
1415.72,0.156327,619795,432435
1418.98,0.160731,620495,428556
1422.23,0.164701,621087,425061
1426.56,0.168652,621375,421407
1429.8,0.171414,621616,418898
1433.04,0.174126,622129,416634
1436.27,0.176856,621526,413622
1439.5,0.179184,621113,411137
1442.72,0.181408,620921,408911
1445.94,0.183584,620270,406440
1450.23,0.187259,618860,402099
1453.44,0.190853,617697,398036
1456.64,0.193407,616264,394784
1459.85,0.196549,614413,390761
1463.04,0.199344,612307,386924
1466.24,0.202426,610032,382760
1469.43,0.205940,607345,378003
1473.67,0.212428,603789,370218
1476.85,0.218057,601175,363868
1480.02,0.223713,597737,357106
1483.19,0.230363,594479,349763
1486.36,0.236335,591232,343102
1489.52,0.240978,587853,337513
1492.68,0.245246,583875,331951
1496.89,0.247217,578062,327158
1500.03,0.247884,574159,324450
1503.18,0.247794,570285,322328
1506.32,0.246982,565444,320190
1509.45,0.245902,560571,318221
1512.58,0.244221,555821,316748
1515.71,0.241899,550344,315308
1519.87,0.239197,543983,313609
1522.99,0.235868,538764,312990
1526.1,0.234113,533692,311299
1529.21,0.230262,527902,310664
1532.32,0.227116,521886,309357
1535.42,0.224130,515888,307911
1538.51,0.220906,509987,306657
1541.6,0.218137,503936,304957
1545.72,0.213448,494694,302614
1548.8,0.210229,488378,300973
1551.88,0.207426,481832,298861
1554.95,0.205351,474989,296028
1558.02,0.203883,467818,292546
1561.08,0.201913,460730,289423
1564.15,0.202099,454170,285180
1568.22,0.200886,444181,279688
1571.27,0.199581,436947,275961
1574.32,0.198150,429598,272215
1577.36,0.196970,422039,268153
1580.4,0.195497,414375,264178
1583.43,0.194070,406354,259917
1586.46,0.192192,398475,255982
1590.49,0.190503,388982,250857
1593.51,0.188122,380708,246871
1596.53,0.185822,372727,242979
1599.54,0.183434,365060,239293
1602.55,0.181874,357543,235209
1605.55,0.178369,349495,231778
1608.55,0.176793,341154,227069
1612.54,0.174626,330877,221330
1615.53,0.172212,322904,217201
1618.51,0.171361,315116,212378
1621.49,0.169257,307217,208060
1624.47,0.168634,299481,203112
1627.44,0.167752,292112,198517
1630.41,0.166938,284245,193533
1634.36,0.164780,274079,187541
1637.32,0.164631,266916,182702
1640.27,0.164156,259612,177897
1643.22,0.162432,251804,173233
1646.16,0.161399,244348,168504
1649.1,0.160399,236703,163608
1652.04,0.159881,228171,157899
1655.95,0.156635,215408,150185
1658.88,0.153261,204937,143999
1661.8,0.150775,193395,136669
1664.72,0.143249,179728,129231
1667.63,0.132735,163642,120548
1670.54,0.121713,146312,110552
1673.44,0.109442,128451,99838
1677.31,0.093493,105080,84728
1680.21,0.084830,88906,73131
1683.1,0.082693,75033,62024
1685.99,0.085490,63520,52170
1688.87,0.090272,53714,43633
1691.75,0.090025,45653,37106
1694.62,0.098739,39137,31178
1697.49,0.100311,33776,26810
1701.31,0.110075,28175,21867