Folder: textile_sorting_NIRSCAN_/samples/wool/wool-000811 (part 26)

File: Column 1_050545_20150331_115717.csv
Method:,Column 1,,
Host Date-Time:,31/3/15 @ 11:57:17,,
Header Version:,1,,
System Temp (C):,32.81,,
Detector Temp (C):,31.29,,
Humidity (%):,2.54,,
Lamp PD:,3823,,
Shift Vector Coefficients:,-10.5391,0.0761263,-0.000134223,,
Pixel to Wavelength Coefficients:,1775.68,-0.916766,-0.000235065,,
Serial Number:,5510004,,
Scan Config Name:,Column 1,,
Scan Config Type:,Slew,,
Section 1,,
Start wavelength (nm):,900,,
End wavelength (nm):,1700,,
Pattern Pixel Width (nm):,   7.03,,,,
Exposure (ms):,  0.635,,,,
Digital Resolution:,228,,
Num Repeats:,6,,
PGA Gain:,64,,
Total Measurement Time in sec:,  2.660,,
Wavelength (nm),Absorbance (AU),Reference Signal (unitless),Sample Signal (unitless)
901.51,0.045889,108485,97607
905.376,0.052106,121306,107591
909.237,0.052475,131909,116896
913.095,0.054689,143299,126344
916.948,0.052117,156982,139230
922.079,0.053789,179937,158976
925.923,0.055615,200504,176404
929.762,0.054987,222660,196180
933.597,0.055998,244426,214857
937.427,0.055340,263972,232390
941.254,0.055352,281845,248118
945.076,0.055113,297271,261842
950.165,0.055842,315605,277525
953.978,0.055658,328029,288572
957.786,0.055541,340470,299597
961.59,0.056158,352317,309582
965.389,0.056338,363056,318886
969.185,0.056180,373162,327882
972.976,0.056710,382632,335793
976.763,0.057843,391202,342419
981.806,0.058460,400190,349789
985.583,0.058950,406088,354544
989.355,0.059262,410162,357844
993.124,0.059544,412868,359971
996.888,0.060584,414263,360323
1000.65,0.061707,415476,360445
1004.4,0.062058,415479,360156
1009.41,0.064056,414358,357536
1013.15,0.064300,412923,356098
1016.89,0.064597,411526,354650
1020.63,0.064121,409066,352917
1024.36,0.064345,406777,350761
1028.09,0.063609,404427,349326
1031.82,0.064427,401911,346500
1036.78,0.063678,398410,344074
1040.49,0.062239,396204,343305
1044.2,0.062631,394236,341291
1047.91,0.061924,392042,339945
1051.61,0.061014,389823,338730
1055.31,0.059926,388234,338195
1059,0.059372,387599,338073
1063.92,0.058543,386688,337923
1067.61,0.057443,386598,338701
1071.29,0.057101,387377,339651
1074.96,0.056052,388536,341491
1078.63,0.055217,389855,343310
1082.3,0.054291,391215,345243
1085.96,0.053517,393215,347627
1090.84,0.052677,396270,351006
1094.49,0.052868,398760,353056
1098.14,0.052294,400987,355497
1101.79,0.052316,403477,357687
1105.43,0.051576,406116,360640
1109.06,0.051393,407701,362200
1112.7,0.051323,409859,364176
1117.53,0.051174,412494,366643
1121.15,0.052073,414909,368027
1124.77,0.052374,416559,369235
1128.38,0.054368,418532,369284
1131.99,0.055808,419956,369314
1135.6,0.058478,421946,368790
1139.2,0.059520,423881,369593
1143.99,0.062769,426786,369353
1147.58,0.063310,428617,370475
1151.17,0.065081,431169,371165
1154.75,0.066543,433579,371985
1158.33,0.068098,436264,372951
1161.91,0.070768,439132,373102
1165.48,0.073758,442389,373290
1169.04,0.077061,446101,373570
1173.79,0.080922,451929,375101
1177.34,0.083856,456026,375953
1180.9,0.086069,461306,378373
1184.44,0.088349,467657,381574
1187.99,0.089156,473969,386006
1191.52,0.088906,479856,391025
1195.06,0.088262,487372,397739
1199.76,0.086385,497347,407638
1203.29,0.085027,504311,414640
1206.81,0.083862,511507,421686
1210.33,0.082653,519078,429121
1213.84,0.081591,527163,436872
1217.35,0.080141,534208,444191
1220.85,0.079207,540472,450367
1225.51,0.078066,549929,459452
1229.01,0.077466,556888,465910
1232.5,0.076403,562180,471490
1235.98,0.075442,567975,477405
1239.46,0.074347,574815,484374
1242.94,0.073470,582782,492080
1246.41,0.072731,591476,500272
1251.03,0.072004,604016,511734
1254.5,0.072232,612289,518471
1257.96,0.072508,619125,523926
1261.41,0.073335,624551,527513
1264.86,0.073513,629900,531813
1268.31,0.074674,634345,534136
1271.75,0.075569,638574,536590
1276.33,0.075401,642499,540097
1279.76,0.075561,645905,542760
1283.19,0.075142,648307,545304
1286.61,0.074639,650446,547737
1290.03,0.073989,652132,549980
1293.44,0.073342,653907,552299
1296.85,0.073206,655963,554209
1301.39,0.072929,657349,555734
1304.8,0.073049,657558,555757
1308.19,0.073525,658515,555956
1311.58,0.073332,658804,556448
1314.97,0.073784,659011,556044
1318.36,0.074367,658272,554675
1321.73,0.075096,658022,553534
1326.23,0.075957,657870,552310
1329.6,0.077009,656482,549812
1332.97,0.078051,654926,547194
1336.33,0.079372,653727,544533
1339.69,0.081599,652497,540729
1343.04,0.083319,649913,536459
1346.39,0.085774,647671,531595
1349.73,0.088104,645338,526845
1354.18,0.091956,641175,518825
1357.52,0.094110,638376,514004
1360.85,0.096505,635805,509118
1364.17,0.098876,633413,504442
1367.49,0.102083,631026,498844
1370.81,0.104779,628050,493418
1374.12,0.107105,625034,488426
1378.54,0.110667,620272,480745
1381.84,0.114595,616892,473821
1385.14,0.119705,613613,465789
1388.43,0.124612,611526,458990
1391.72,0.130341,610663,452335
1395.01,0.135890,610634,446571
1398.29,0.141810,611700,441294
1402.66,0.150748,614051,433967
1405.93,0.157037,616268,429272
1409.2,0.163039,617795,424429
1412.46,0.168547,618872,419811
1415.72,0.174400,619795,414809
1418.98,0.178789,620495,411102
1422.23,0.183086,621087,407443
1426.56,0.187232,621375,403759
1429.8,0.190552,621616,400839
1433.04,0.193487,622129,398468
1436.27,0.196018,621526,395769
1439.5,0.198244,621113,393484
1442.72,0.201114,620921,390771
1445.94,0.203295,620270,388406
1450.23,0.207089,618860,384152
1453.44,0.210278,617697,380625
1456.64,0.212895,616264,377461
1459.85,0.215683,614413,373919
1463.04,0.218298,612307,370400
1466.24,0.221708,610032,366138
1469.43,0.225079,607345,361707
1473.67,0.230629,603789,355023
1476.85,0.235063,601175,349895
1480.02,0.241434,597737,342828
1483.19,0.247584,594479,336165
1486.36,0.253407,591232,329876
1489.52,0.258851,587853,323905
1492.68,0.263148,583875,318546
1496.89,0.265378,578062,313759
1500.03,0.266553,574159,310799
1503.18,0.266924,570285,308438
1506.32,0.265843,565444,306582
1509.45,0.264925,560571,304583
1512.58,0.263560,555821,302953
1515.71,0.261564,550344,301349
1519.87,0.257761,543983,300486
1522.99,0.255921,538764,298867
1526.1,0.253044,533692,298021
1529.21,0.249636,527902,297110
1532.32,0.246854,521886,295612
1535.42,0.243037,515888,294794
1538.51,0.239913,509987,293526
1541.6,0.235469,503936,293026
1545.72,0.232032,494694,289938
1548.8,0.228338,488378,288681
1551.88,0.225230,481832,286857
1554.95,0.223610,474989,283840
1558.02,0.221527,467818,280899
1561.08,0.220194,460730,277493
1564.15,0.218625,454170,274532
1568.22,0.218106,444181,268815
1571.27,0.216793,436947,265238
1574.32,0.216094,429598,261197
1577.36,0.214619,422039,257474
1580.4,0.212784,414375,253869
1583.43,0.211881,406354,249473
1586.46,0.209545,398475,245955
1590.49,0.207178,388982,241408
1593.51,0.204707,380708,237621
1596.53,0.201604,372727,234308
1599.54,0.200451,365060,230098
1602.55,0.197429,357543,226934
1605.55,0.195904,349495,222606
1608.55,0.192657,341154,218924
1612.54,0.189773,330877,213744
1615.53,0.186021,322904,210403
1618.51,0.186314,315116,205190
1621.49,0.186146,307217,200124
1624.47,0.182803,299481,196592
1627.44,0.181374,292112,192387
1630.41,0.180622,284245,187530
1634.36,0.178368,274079,181764
1637.32,0.177370,266916,177421
1640.27,0.177876,259612,172365
1643.22,0.176931,251804,167545
1646.16,0.174627,244348,163449
1649.1,0.174572,236703,158355
1652.04,0.172945,228171,153220
1655.95,0.170438,215408,145487
1658.88,0.168665,204937,138981
1661.8,0.166296,193395,131871
1664.72,0.162225,179728,123706
1667.63,0.156156,163642,114219
1670.54,0.149665,146312,103661
1673.44,0.144737,128451,92045
1677.31,0.136866,105080,76675
1680.21,0.129749,88906,65945
1683.1,0.136282,75033,54824
1685.99,0.137602,63520,46271
1688.87,0.142792,53714,38663
1691.75,0.153980,45653,32025
1694.62,0.152450,39137,27551
1697.49,0.153494,33776,23720
1701.31,0.163520,28175,19335

File: Column 1_050545_20150331_115720.csv
Method:,Column 1,,
Host Date-Time:,31/3/15 @ 11:57:20,,
Header Version:,1,,
System Temp (C):,32.81,,
Detector Temp (C):,31.29,,
Humidity (%):,2.54,,
Lamp PD:,3823,,
Shift Vector Coefficients:,-10.5391,0.0761263,-0.000134223,,
Pixel to Wavelength Coefficients:,1775.68,-0.916766,-0.000235065,,
Serial Number:,5510004,,
Scan Config Name:,Column 1,,
Scan Config Type:,Slew,,
Section 1,,
Start wavelength (nm):,900,,
End wavelength (nm):,1700,,
Pattern Pixel Width (nm):,   7.03,,,,
Exposure (ms):,  0.635,,,,
Digital Resolution:,228,,
Num Repeats:,6,,
PGA Gain:,64,,
Total Measurement Time in sec:,  2.666,,
Wavelength (nm),Absorbance (AU),Reference Signal (unitless),Sample Signal (unitless)
901.51,0.046771,108485,97409
905.376,0.052781,121306,107424
909.237,0.053949,131909,116500
913.095,0.054795,143299,126313
916.948,0.054196,156982,138565
922.079,0.054292,179937,158792
925.923,0.055590,200504,176414
929.762,0.055056,222660,196149
933.597,0.056305,244426,214705
937.427,0.056323,263972,231865
941.254,0.056591,281845,247411
945.076,0.055599,297271,261549
950.165,0.055355,315605,277836
953.978,0.055288,328029,288818
957.786,0.055917,340470,299338
961.59,0.055861,352317,309794
965.389,0.056228,363056,318967
969.185,0.056299,373162,327792
972.976,0.057050,382632,335530
976.763,0.057283,391202,342861
981.806,0.058264,400190,349947
985.583,0.058722,406088,354730
989.355,0.059955,410162,357273
993.124,0.059870,412868,359701
996.888,0.060467,414263,360420
1000.65,0.061549,415476,360576
1004.4,0.062471,415479,359814
1009.41,0.063743,414358,357794
1013.15,0.064773,412923,355710
1016.89,0.064734,411526,354538
1020.63,0.064335,409066,352743
1024.36,0.064568,406777,350581
1028.09,0.064384,404427,348703
1031.82,0.063732,401911,347055
1036.78,0.063217,398410,344440
1040.49,0.062230,396204,343312
1044.2,0.062687,394236,341247
1047.91,0.061628,392042,340177
1051.61,0.060893,389823,338824
1055.31,0.060371,388234,337849
1059,0.059714,387599,337807
1063.92,0.058269,386688,338136
1067.61,0.057146,386598,338933
1071.29,0.056672,387377,339987
1074.96,0.055800,388536,341689
1078.63,0.055294,389855,343249
1082.3,0.055191,391215,344528
1085.96,0.053733,393215,347454
1090.84,0.053173,396270,350605
1094.49,0.052840,398760,353079
1098.14,0.052346,400987,355455
1101.79,0.051908,403477,358023
1105.43,0.051549,406116,360663
1109.06,0.051254,407701,362316
1112.7,0.051339,409859,364163
1117.53,0.051129,412494,366681
1121.15,0.052086,414909,368016
1124.77,0.052449,416559,369171
1128.38,0.053944,418532,369645
1131.99,0.055412,419956,369651
1135.6,0.058134,421946,369082
1139.2,0.060033,423881,369157
1143.99,0.062938,426786,369209
1147.58,0.063813,428617,370047
1151.17,0.065518,431169,370791
1154.75,0.066452,433579,372063
1158.33,0.068360,436264,372726
1161.91,0.070837,439132,373042
1165.48,0.073644,442389,373388
1169.04,0.077195,446101,373455
1173.79,0.081412,451929,374678
1177.34,0.083791,456026,376009
1180.9,0.086424,461306,378064
1184.44,0.087861,467657,382003
1187.99,0.089439,473969,385754
1191.52,0.088724,479856,391189
1195.06,0.087863,487372,398105
1199.76,0.086404,497347,407620
1203.29,0.085351,504311,414331
1206.81,0.084317,511507,421245
1210.33,0.082331,519078,429439
1213.84,0.081648,527163,436814
1217.35,0.080584,534208,443738
1220.85,0.079412,540472,450154
1225.51,0.078354,549929,459148
1229.01,0.078084,556888,465247
1232.5,0.076590,562180,471287
1235.98,0.075543,567975,477294
1239.46,0.074336,574815,484387
1242.94,0.073247,582782,492333
1246.41,0.072721,591476,500284
1251.03,0.072328,604016,511353
1254.5,0.072318,612289,518368
1257.96,0.072445,619125,524002
1261.41,0.073470,624551,527349
1264.86,0.073759,629900,531512
1268.31,0.074598,634345,534229
1271.75,0.075144,638574,537115
1276.33,0.075408,642499,540088
1279.76,0.075701,645905,542585
1283.19,0.074747,648307,545800
1286.61,0.074509,650446,547901
1290.03,0.073934,652132,550049
1293.44,0.073572,653907,552006
1296.85,0.073234,655963,554173
1301.39,0.073226,657349,555354
1304.8,0.072851,657558,556011
1308.19,0.073410,658515,556103
1311.58,0.073598,658804,556107
1314.97,0.074157,659011,555566
1318.36,0.074878,658272,554022
1321.73,0.075053,658022,553589
1326.23,0.076210,657870,551988
1329.6,0.077057,656482,549751
1332.97,0.078240,654926,546956
1336.33,0.079584,653727,544268
1339.69,0.081376,652497,541006
1343.04,0.083406,649913,536351
1346.39,0.085696,647671,531690
1349.73,0.088311,645338,526594
1354.18,0.091717,641175,519110
1357.52,0.094244,638376,513846
1360.85,0.096733,635805,508851
1364.17,0.099023,633413,504271
1367.49,0.101794,631026,499176
1370.81,0.104612,628050,493608
1374.12,0.107335,625034,488167
1378.54,0.111336,620272,480005
1381.84,0.114948,616892,473436
1385.14,0.119694,613613,465801
1388.43,0.124545,611526,459061
1391.72,0.130394,610663,452280
1395.01,0.135914,610634,446547
1398.29,0.141635,611700,441472
1402.66,0.150576,614051,434139
1405.93,0.157239,616268,429072
1409.2,0.163370,617795,424106
1412.46,0.168971,618872,419401
1415.72,0.174644,619795,414576
1418.98,0.179094,620495,410813
1422.23,0.183092,621087,407437
1426.56,0.187134,621375,403850
1429.8,0.190166,621616,401196
1433.04,0.193850,622129,398135
1436.27,0.196389,621526,395431
1439.5,0.198373,621113,393367
1442.72,0.201084,620921,390798
1445.94,0.203324,620270,388380
1450.23,0.207099,618860,384143
1453.44,0.210471,617697,380456
1456.64,0.213178,616264,377215
1459.85,0.215567,614413,374019
1463.04,0.218687,612307,370069
1466.24,0.221599,610032,366230
1469.43,0.225744,607345,361153
1473.67,0.230678,603789,354983
1476.85,0.235528,601175,349521
1480.02,0.240655,597737,343443
1483.19,0.247721,594479,336059
1486.36,0.254157,591232,329307
1489.52,0.259317,587853,323558
1492.68,0.263161,583875,318536
1496.89,0.265788,578062,313463
1500.03,0.266771,574159,310643
1503.18,0.267457,570285,308060
1506.32,0.266115,565444,306390
1509.45,0.265381,560571,304263
1512.58,0.263574,555821,302943
1515.71,0.261500,550344,301394
1519.87,0.258299,543983,300114
1522.99,0.256088,538764,298752
1526.1,0.253120,533692,297969
1529.21,0.249531,527902,297182
1532.32,0.246434,521886,295898
1535.42,0.243028,515888,294800
1538.51,0.239794,509987,293606
1541.6,0.236220,503936,292520
1545.72,0.232286,494694,289768
1548.8,0.228204,488378,288770
1551.88,0.226068,481832,286304
1554.95,0.222995,474989,284242
1558.02,0.220960,467818,281266
1561.08,0.220182,460730,277501
1564.15,0.219073,454170,274249
1568.22,0.217775,444181,269020
1571.27,0.217731,436947,264666
1574.32,0.216836,429598,260751
1577.36,0.214833,422039,257347
1580.4,0.214088,414375,253108
1583.43,0.211625,406354,249620
1586.46,0.209678,398475,245880
1590.49,0.207878,388982,241019
1593.51,0.204282,380708,237854
1596.53,0.202361,372727,233900
1599.54,0.199467,365060,230620
1602.55,0.196958,357543,227180
1605.55,0.195614,349495,222755
1608.55,0.192542,341154,218982
1612.54,0.189767,330877,213747
1615.53,0.188064,322904,209416
1618.51,0.185832,315116,205418
1621.49,0.185706,307217,200327
1624.47,0.183898,299481,196097
1627.44,0.182108,292112,192062
1630.41,0.181392,284245,187198
1634.36,0.180154,274079,181018
1637.32,0.177392,266916,177412
1640.27,0.176530,259612,172900
1643.22,0.175983,251804,167911
1646.16,0.174961,244348,163323
1649.1,0.174073,236703,158537
1652.04,0.173595,228171,152991
1655.95,0.171696,215408,145066
1658.88,0.168734,204937,138959
1661.8,0.168872,193395,131091
1664.72,0.164037,179728,123191
1667.63,0.156788,163642,114053
1670.54,0.150012,146312,103578
1673.44,0.143875,128451,92228
1677.31,0.135193,105080,76971
1680.21,0.132537,88906,65523
1683.1,0.134495,75033,55050
1685.99,0.142576,63520,45744
1688.87,0.146526,53714,38332
1691.75,0.153790,45653,32039
1694.62,0.155662,39137,27348
1697.49,0.163214,33776,23195
1701.31,0.167219,28175,19171

File: Column 1_050545_20150331_115726.csv
Method:,Column 1,,
Host Date-Time:,31/3/15 @ 11:57:26,,
Header Version:,1,,
System Temp (C):,32.86,,
Detector Temp (C):,31.37,,
Humidity (%):,2.54,,
Lamp PD:,3823,,
Shift Vector Coefficients:,-10.5391,0.0761263,-0.000134223,,
Pixel to Wavelength Coefficients:,1775.68,-0.916766,-0.000235065,,
Serial Number:,5510004,,
Scan Config Name:,Column 1,,
Scan Config Type:,Slew,,
Section 1,,
Start wavelength (nm):,900,,
End wavelength (nm):,1700,,
Pattern Pixel Width (nm):,   7.03,,,,
Exposure (ms):,  0.635,,,,
Digital Resolution:,228,,
Num Repeats:,6,,
PGA Gain:,64,,
Total Measurement Time in sec:,  2.675,,
Wavelength (nm),Absorbance (AU),Reference Signal (unitless),Sample Signal (unitless)
901.51,0.046071,108485,97566
905.376,0.049848,121306,108152
909.237,0.054960,131909,116229
913.095,0.053789,143299,126606
916.948,0.053348,156982,138836
922.079,0.054804,179937,158605
925.923,0.055895,200504,176290
929.762,0.055770,222660,195827
933.597,0.056222,244426,214746
937.427,0.055058,263972,232541
941.254,0.055849,281845,247834
945.076,0.056028,297271,261291
950.165,0.055238,315605,277911
953.978,0.054699,328029,289210
957.786,0.055359,340470,299723
961.59,0.056085,352317,309634
965.389,0.056434,363056,318816
969.185,0.056110,373162,327935
972.976,0.056646,382632,335842
976.763,0.057450,391202,342729
981.806,0.058336,400190,349889
985.583,0.059424,406088,354157
989.355,0.059773,410162,357423
993.124,0.060104,412868,359507
996.888,0.060205,414263,360638
1000.65,0.061141,415476,360915
1004.4,0.062679,415479,359642
1009.41,0.063574,414358,357933
1013.15,0.064650,412923,355811
1016.89,0.064690,411526,354574
1020.63,0.064596,409066,352531
1024.36,0.063917,406777,351107
1028.09,0.064050,404427,348972
1031.82,0.063903,401911,346918
1036.78,0.063048,398410,344574
1040.49,0.062492,396204,343105
1044.2,0.062530,394236,341371
1047.91,0.061648,392042,340161
1051.61,0.060923,389823,338801
1055.31,0.060282,388234,337918
1059,0.059020,387599,338347
1063.92,0.058481,386688,337971
1067.61,0.057196,386598,338894
1071.29,0.056808,387377,339880
1074.96,0.056193,388536,341380
1078.63,0.054739,389855,343688
1082.3,0.054620,391215,344981
1085.96,0.053322,393215,347783
1090.84,0.052677,396270,351006
1094.49,0.051949,398760,353804
1098.14,0.052293,400987,355498
1101.79,0.051246,403477,358569
1105.43,0.051512,406116,360693
1109.06,0.051030,407701,362503
1112.7,0.051388,409859,364122
1117.53,0.051024,412494,366770
1121.15,0.052012,414909,368079
1124.77,0.052813,416559,368862
1128.38,0.054184,418532,369441
1131.99,0.055797,419956,369323
1135.6,0.057793,421946,369372
1139.2,0.059396,423881,369699
1143.99,0.062301,426786,369751
1147.58,0.063166,428617,370598
1151.17,0.064925,431169,371298
1154.75,0.066600,433579,371936
1158.33,0.067966,436264,373064
1161.91,0.070700,439132,373160
1165.48,0.073647,442389,373385
1169.04,0.076905,446101,373704
1173.79,0.080736,451929,375262
1177.34,0.083704,456026,376085
1180.9,0.086147,461306,378305
1184.44,0.087908,467657,381961
1187.99,0.088976,473969,386166
1191.52,0.088303,479856,391569
1195.06,0.087801,487372,398162
1199.76,0.086146,497347,407862
1203.29,0.085028,504311,414639
1206.81,0.083598,511507,421943
1210.33,0.082733,519078,429042
1213.84,0.081547,527163,436916
1217.35,0.079982,534208,444353
1220.85,0.079052,540472,450527
1225.51,0.077965,549929,459559
1229.01,0.077570,556888,465798
1232.5,0.076336,562180,471563
1235.98,0.075581,567975,477253
1239.46,0.074336,574815,484387
1242.94,0.073238,582782,492343
1246.41,0.072078,591476,501025
1251.03,0.072115,604016,511603
1254.5,0.071785,612289,519005
1257.96,0.072363,619125,524101
1261.41,0.073139,624551,527751
1264.86,0.073180,629900,532221
1268.31,0.074144,634345,534788
1271.75,0.075021,638574,537267
1276.33,0.075152,642499,540406
1279.76,0.074936,645905,543542
1283.19,0.074566,648307,546028
1286.61,0.074099,650446,548419
1290.03,0.073789,652132,550233
1293.44,0.072880,653907,552886
1296.85,0.072989,655963,554486
1301.39,0.072702,657349,556024
1304.8,0.072612,657558,556317
1308.19,0.073016,658515,556608
1311.58,0.073096,658804,556750
1314.97,0.073869,659011,555935
1318.36,0.074515,658272,554486
1321.73,0.074767,658022,553954
1326.23,0.075941,657870,552331
1329.6,0.076633,656482,550288
1332.97,0.077933,654926,547342
1336.33,0.079445,653727,544442
1339.69,0.081046,652497,541418
1343.04,0.083028,649913,536818
1346.39,0.085382,647671,532075
1349.73,0.087860,645338,527142
1354.18,0.091407,641175,519481
1357.52,0.093729,638376,514455
1360.85,0.096066,635805,509634
1364.17,0.098773,633413,504561
1367.49,0.101794,631026,499176
1370.81,0.104213,628050,494062
1374.12,0.106950,625034,488600
1378.54,0.110875,620272,480515
1381.84,0.114907,616892,473481
1385.14,0.119119,613613,466418
1388.43,0.124506,611526,459102
1391.72,0.130012,610663,452678
1395.01,0.135526,610634,446946
1398.29,0.141654,611700,441453
1402.66,0.149727,614051,434988
1405.93,0.156298,616268,430003
1409.2,0.162324,617795,425129
1412.46,0.168290,618872,420060
1415.72,0.173478,619795,415690
1418.98,0.178524,620495,411353
1422.23,0.182372,621087,408113
1426.56,0.186917,621375,404052
1429.8,0.190302,621616,401070
1433.04,0.192736,622129,399158
1436.27,0.195884,621526,395891
1439.5,0.197982,621113,393721
1442.72,0.200691,620921,391152
1445.94,0.203133,620270,388551
1450.23,0.207115,618860,384129
1453.44,0.209755,617697,381084
1456.64,0.212416,616264,377877
1459.85,0.214869,614413,374620
1463.04,0.218643,612307,370106
1466.24,0.221000,610032,366735
1469.43,0.224609,607345,362098
1473.67,0.229972,603789,355560
1476.85,0.235351,601175,349663
1480.02,0.240630,597737,343463
1483.19,0.247880,594479,335936
1486.36,0.252969,591232,330209
1489.52,0.259139,587853,323690
1492.68,0.262287,583875,319178
1496.89,0.265010,578062,314025
1500.03,0.265928,574159,311246
1503.18,0.266056,570285,309055
1506.32,0.266104,565444,306398
1509.45,0.264157,560571,305122
1512.58,0.263179,555821,303219
1515.71,0.260770,550344,301901
1519.87,0.257670,543983,300549
1522.99,0.255138,538764,299406
1526.1,0.252208,533692,298595
1529.21,0.249230,527902,297388
1532.32,0.245472,521886,296554
1535.42,0.242688,515888,295031
1538.51,0.239481,509987,293818
1541.6,0.236012,503936,292660
1545.72,0.231373,494694,290378
1548.8,0.227520,488378,289225
1551.88,0.225774,481832,286498
1554.95,0.223156,474989,284137
1558.02,0.221332,467818,281025
1561.08,0.219560,460730,277899
1564.15,0.218559,454170,274574
1568.22,0.217798,444181,269006
1571.27,0.217463,436947,264829
1574.32,0.215826,429598,261358
1577.36,0.214457,422039,257570
1580.4,0.212960,414375,253766
1583.43,0.211495,406354,249695
1586.46,0.208422,398475,246592
1590.49,0.206471,388982,241801
1593.51,0.204415,380708,237781
1596.53,0.201607,372727,234306
1599.54,0.198869,365060,230938
1602.55,0.196748,357543,227290
1605.55,0.195317,349495,222907
1608.55,0.191775,341154,219369
1612.54,0.190926,330877,213177
1615.53,0.187620,322904,209630
1618.51,0.186240,315116,205225
1621.49,0.184610,307217,200833
1624.47,0.183058,299481,196477
1627.44,0.181979,292112,192119
1630.41,0.180590,284245,187544
1634.36,0.179219,274079,181408
1637.32,0.177622,266916,177318
1640.27,0.176648,259612,172853
1643.22,0.174953,251804,168310
1646.16,0.174874,244348,163356
1649.1,0.172818,236703,158996
1652.04,0.172925,228171,153227
1655.95,0.170924,215408,145324
1658.88,0.169660,204937,138663
1661.8,0.165174,193395,132212
1664.72,0.163255,179728,123413
1667.63,0.155659,163642,114350
1670.54,0.147479,146312,104184
1673.44,0.141377,128451,92760
1677.31,0.134770,105080,77046
1680.21,0.130388,88906,65848
1683.1,0.133896,75033,55126
1685.99,0.139200,63520,46101
1688.87,0.146934,53714,38296
1691.75,0.152667,45653,32122
1694.62,0.154900,39137,27396
1697.49,0.158966,33776,23423
1701.31,0.168467,28175,19116