Folder: textile_sorting_NIRSCAN_/samples/wool/wool-000811 (part 106)

File: Column 1_050590_20150331_121850.csv
Method:,Column 1,,
Host Date-Time:,31/3/15 @ 12:18:50,,
Header Version:,1,,
System Temp (C):,33.87,,
Detector Temp (C):,34.61,,
Humidity (%):,1.86,,
Lamp PD:,3818,,
Shift Vector Coefficients:,-10.5391,0.0761263,-0.000134223,,
Pixel to Wavelength Coefficients:,1775.68,-0.916766,-0.000235065,,
Serial Number:,5510004,,
Scan Config Name:,Column 1,,
Scan Config Type:,Slew,,
Section 1,,
Start wavelength (nm):,900,,
End wavelength (nm):,1700,,
Pattern Pixel Width (nm):,   7.03,,,,
Exposure (ms):,  0.635,,,,
Digital Resolution:,228,,
Num Repeats:,6,,
PGA Gain:,64,,
Total Measurement Time in sec:,  2.723,,
Wavelength (nm),Absorbance (AU),Reference Signal (unitless),Sample Signal (unitless)
901.51,0.068060,108485,92749
905.376,0.076135,121306,101800
909.237,0.076417,131909,110626
913.095,0.077786,143299,119800
916.948,0.078091,156982,131147
922.079,0.079278,179937,149914
925.923,0.081139,200504,166335
929.762,0.083051,222660,183904
933.597,0.082218,244426,202269
937.427,0.080951,263972,219082
941.254,0.080761,281845,234018
945.076,0.080368,297271,247050
950.165,0.079084,315605,263063
953.978,0.078282,328029,273924
957.786,0.078683,340470,284051
961.59,0.078846,352317,293824
965.389,0.079033,363056,302650
969.185,0.078810,373162,311234
972.976,0.079949,382632,318297
976.763,0.079231,391202,325964
981.806,0.080677,400190,332345
985.583,0.080523,406088,337363
989.355,0.081543,410162,339948
993.124,0.081513,412868,342214
996.888,0.081652,414263,343261
1000.65,0.082461,415476,343625
1004.4,0.084320,415479,342160
1009.41,0.085157,414358,340580
1013.15,0.085034,412923,339496
1016.89,0.086162,411526,337470
1020.63,0.085295,409066,336123
1024.36,0.086310,406777,333462
1028.09,0.086031,404427,331749
1031.82,0.085580,401911,330027
1036.78,0.085310,398410,327356
1040.49,0.085126,396204,325681
1044.2,0.084854,394236,324267
1047.91,0.084787,392042,322512
1051.61,0.085103,389823,320453
1055.31,0.083514,388234,320317
1059,0.083531,387599,319780
1063.92,0.082663,386688,319667
1067.61,0.082782,386598,319505
1071.29,0.081825,387377,320855
1074.96,0.081319,388536,322190
1078.63,0.081338,389855,323270
1082.3,0.080033,391215,325374
1085.96,0.079303,393215,327587
1090.84,0.078186,396270,330983
1094.49,0.077415,398760,333654
1098.14,0.077913,400987,335133
1101.79,0.077033,403477,337898
1105.43,0.076463,406116,340555
1109.06,0.075838,407701,342376
1112.7,0.075447,409859,344499
1117.53,0.074902,412494,347149
1121.15,0.075620,414909,348604
1124.77,0.075411,416559,350159
1128.38,0.076352,418532,351056
1131.99,0.077693,419956,351165
1135.6,0.079287,421946,351536
1139.2,0.080478,423881,352181
1143.99,0.082872,426786,352645
1147.58,0.083213,428617,353880
1151.17,0.084469,431169,354959
1154.75,0.085060,433579,356458
1158.33,0.086555,436264,357433
1161.91,0.088411,439132,358248
1165.48,0.090874,442389,358864
1169.04,0.092510,446101,360515
1173.79,0.095998,451929,362303
1177.34,0.098037,456026,363875
1180.9,0.100112,461306,366334
1184.44,0.102067,467657,369709
1187.99,0.102936,473969,373950
1191.52,0.103162,479856,378398
1195.06,0.102891,487372,384565
1199.76,0.102486,497347,392802
1203.29,0.101496,504311,399211
1206.81,0.101496,511507,404907
1210.33,0.100254,519078,412077
1213.84,0.099801,527163,418932
1217.35,0.099346,534208,424976
1220.85,0.098871,540472,430430
1225.51,0.097979,549929,438862
1229.01,0.097006,556888,445412
1232.5,0.096864,562180,449792
1235.98,0.096262,567975,455059
1239.46,0.095686,574815,461150
1242.94,0.094188,582782,469157
1246.41,0.093431,591476,476986
1251.03,0.093454,604016,487073
1254.5,0.094054,612289,493063
1257.96,0.094044,619125,498579
1261.41,0.094582,624551,502326
1264.86,0.095408,629900,505666
1268.31,0.095817,634345,508755
1271.75,0.096575,638574,511253
1276.33,0.097002,642499,513890
1279.76,0.096820,645905,516831
1283.19,0.095955,648307,519787
1286.61,0.095733,650446,521769
1290.03,0.095405,652132,523517
1293.44,0.094829,653907,525638
1296.85,0.094995,655963,527090
1301.39,0.094895,657349,528325
1304.8,0.094398,657558,529098
1308.19,0.094699,658515,529501
1311.58,0.094584,658804,529873
1314.97,0.095359,659011,529095
1318.36,0.095706,658272,528079
1321.73,0.096305,658022,527152
1326.23,0.096968,657870,526226
1329.6,0.098270,656482,523543
1332.97,0.098953,654926,521482
1336.33,0.099656,653727,519685
1339.69,0.101697,652497,516276
1343.04,0.103467,649913,512139
1346.39,0.104958,647671,508624
1349.73,0.107190,645338,504194
1354.18,0.109697,641175,498058
1357.52,0.112030,638376,493227
1360.85,0.113870,635805,489163
1364.17,0.115769,633413,485197
1367.49,0.118486,631026,480354
1370.81,0.120427,628050,475956
1374.12,0.122521,625034,471393
1378.54,0.125261,620272,464859
1381.84,0.128350,616892,459049
1385.14,0.132039,613613,452747
1388.43,0.136044,611526,447065
1391.72,0.140900,610663,441470
1395.01,0.145216,610634,437084
1398.29,0.149995,611700,433055
1402.66,0.157065,614051,427700
1405.93,0.162295,616268,424106
1409.2,0.167589,617795,420006
1412.46,0.172053,618872,416436
1415.72,0.176458,619795,412848
1418.98,0.180332,620495,409644
1422.23,0.183932,621087,406650
1426.56,0.188053,621375,402996
1429.8,0.189955,621616,401391
1433.04,0.192409,622129,399458
1436.27,0.194723,621526,396950
1439.5,0.196924,621113,394681
1442.72,0.199657,620921,392084
1445.94,0.201672,620270,389860
1450.23,0.205497,618860,385563
1453.44,0.208260,617697,382398
1456.64,0.210651,616264,379416
1459.85,0.213331,614413,375949
1463.04,0.216017,612307,372351
1466.24,0.219024,610032,368408
1469.43,0.222728,607345,363670
1473.67,0.228335,603789,356903
1476.85,0.233135,601175,351452
1480.02,0.238621,597737,345056
1483.19,0.244616,594479,338470
1486.36,0.249571,591232,332803
1489.52,0.254534,587853,327141
1492.68,0.258056,583875,322303
1496.89,0.259572,578062,317982
1500.03,0.260031,574159,315501
1503.18,0.259910,570285,313460
1506.32,0.258883,565444,311535
1509.45,0.257762,560571,309648
1512.58,0.257179,555821,307437
1515.71,0.254423,550344,306345
1519.87,0.251162,543983,305087
1522.99,0.248802,538764,303806
1526.1,0.246508,533692,302540
1529.21,0.243610,527902,301261
1532.32,0.241048,521886,299590
1535.42,0.237546,515888,298545
1538.51,0.234759,509987,297030
1541.6,0.231799,503936,295513
1545.72,0.228142,494694,292546
1548.8,0.225189,488378,290782
1551.88,0.223423,481832,288053
1554.95,0.221220,474989,285406
1558.02,0.219845,467818,281989
1561.08,0.217897,460730,278965
1564.15,0.217490,454170,275251
1568.22,0.216185,444181,270007
1571.27,0.216282,436947,265550
1574.32,0.214724,429598,262022
1577.36,0.213933,422039,257881
1580.4,0.212798,414375,253861
1583.43,0.210515,406354,250259
1586.46,0.209367,398475,246056
1590.49,0.206876,388982,241576
1593.51,0.205646,380708,237108
1596.53,0.202899,372727,233610
1599.54,0.201604,365060,229488
1602.55,0.198074,357543,226597
1605.55,0.197554,349495,221762
1608.55,0.195669,341154,217411
1612.54,0.193825,330877,211759
1615.53,0.191495,322904,207768
1618.51,0.190912,315116,203029
1621.49,0.189947,307217,198380
1624.47,0.189031,299481,193793
1627.44,0.187546,292112,189672
1630.41,0.185984,284245,185229
1634.36,0.185751,274079,178700
1637.32,0.184569,266916,174504
1640.27,0.184459,259612,169772
1643.22,0.182758,251804,165312
1646.16,0.182547,244348,160495
1649.1,0.181737,236703,155764
1652.04,0.179542,228171,150910
1655.95,0.176955,215408,143320
1658.88,0.172784,204937,137669
1661.8,0.167209,193395,131594
1664.72,0.159230,179728,124562
1667.63,0.147979,163642,116390
1670.54,0.134122,146312,107438
1673.44,0.116626,128451,98200
1677.31,0.096915,105080,84063
1680.21,0.089079,88906,72419
1683.1,0.082413,75033,62064
1685.99,0.081248,63520,52682
1688.87,0.082617,53714,44409
1691.75,0.091937,45653,36943
1694.62,0.099743,39137,31106
1697.49,0.101691,33776,26725
1701.31,0.110790,28175,21831

File: Column 1_050590_20150331_121853.csv
Method:,Column 1,,
Host Date-Time:,31/3/15 @ 12:18:53,,
Header Version:,1,,
System Temp (C):,33.86,,
Detector Temp (C):,34.61,,
Humidity (%):,1.86,,
Lamp PD:,3819,,
Shift Vector Coefficients:,-10.5391,0.0761263,-0.000134223,,
Pixel to Wavelength Coefficients:,1775.68,-0.916766,-0.000235065,,
Serial Number:,5510004,,
Scan Config Name:,Column 1,,
Scan Config Type:,Slew,,
Section 1,,
Start wavelength (nm):,900,,
End wavelength (nm):,1700,,
Pattern Pixel Width (nm):,   7.03,,,,
Exposure (ms):,  0.635,,,,
Digital Resolution:,228,,
Num Repeats:,6,,
PGA Gain:,64,,
Total Measurement Time in sec:,  2.682,,
Wavelength (nm),Absorbance (AU),Reference Signal (unitless),Sample Signal (unitless)
901.51,0.070069,108485,92321
905.376,0.075180,121306,102024
909.237,0.078846,131909,110009
913.095,0.079796,143299,119247
916.948,0.079627,156982,130684
922.079,0.081692,179937,149083
925.923,0.083097,200504,165587
929.762,0.083777,222660,183597
933.597,0.083414,244426,201713
937.427,0.081513,263972,218799
941.254,0.081484,281845,233629
945.076,0.080006,297271,247256
950.165,0.079826,315605,262614
953.978,0.079683,328029,273042
957.786,0.079396,340470,283585
961.59,0.079377,352317,293465
965.389,0.078996,363056,302676
969.185,0.079305,373162,310880
972.976,0.080093,382632,318191
976.763,0.080288,391202,325172
981.806,0.080095,400190,332791
985.583,0.080775,406088,337167
989.355,0.081325,410162,340119
993.124,0.081711,412868,342058
996.888,0.082548,414263,342553
1000.65,0.083011,415476,343190
1004.4,0.084391,415479,342104
1009.41,0.085483,414358,340324
1013.15,0.086155,412923,338621
1016.89,0.086216,411526,337428
1020.63,0.086012,409066,335569
1024.36,0.086363,406777,333421
1028.09,0.086353,404427,331503
1031.82,0.086132,401911,329608
1036.78,0.085759,398410,327018
1040.49,0.085665,396204,325277
1044.2,0.085253,394236,323969
1047.91,0.084923,392042,322411
1051.61,0.084552,389823,320860
1055.31,0.084564,388234,319543
1059,0.083766,387599,319607
1063.92,0.084160,386688,318567
1067.61,0.082753,386598,319526
1071.29,0.082924,387377,320044
1074.96,0.081480,388536,322071
1078.63,0.081335,389855,323272
1082.3,0.079810,391215,325541
1085.96,0.079696,393215,327291
1090.84,0.078459,396270,330775
1094.49,0.077753,398760,333395
1098.14,0.077443,400987,335496
1101.79,0.077013,403477,337914
1105.43,0.076579,406116,340464
1109.06,0.075666,407701,342512
1112.7,0.076364,409859,343772
1117.53,0.075342,412494,346797
1121.15,0.075927,414909,348358
1124.77,0.076482,416559,349297
1128.38,0.076774,418532,350715
1131.99,0.078041,419956,350883
1135.6,0.079233,421946,351580
1139.2,0.080675,423881,352021
1143.99,0.083036,426786,352512
1147.58,0.083987,428617,353250
1151.17,0.084692,431169,354777
1154.75,0.085528,433579,356074
1158.33,0.087286,436264,356832
1161.91,0.088672,439132,358033
1165.48,0.091518,442389,358333
1169.04,0.093026,446101,360087
1173.79,0.097205,451929,361298
1177.34,0.098467,456026,363515
1180.9,0.100555,461306,365960
1184.44,0.102445,467657,369388
1187.99,0.103313,473969,373626
1191.52,0.103311,479856,378268
1195.06,0.102666,487372,384764
1199.76,0.102606,497347,392693
1203.29,0.101570,504311,399143
1206.81,0.101580,511507,404829
1210.33,0.100652,519078,411700
1213.84,0.099969,527163,418770
1217.35,0.099552,534208,424774
1220.85,0.098910,540472,430391
1225.51,0.098423,549929,438413
1229.01,0.097610,556888,444793
1232.5,0.096898,562180,449756
1235.98,0.096832,567975,454462
1239.46,0.095326,574815,461532
1242.94,0.094604,582782,468708
1246.41,0.094753,591476,475537
1251.03,0.094133,604016,486313
1254.5,0.094251,612289,492840
1257.96,0.094649,619125,497885
1261.41,0.095435,624551,501341
1264.86,0.095712,629900,505312
1268.31,0.096116,634345,508405
1271.75,0.096405,638574,511454
1276.33,0.096856,642499,514063
1279.76,0.096634,645905,517053
1283.19,0.096700,648307,518897
1286.61,0.096170,650446,521244
1290.03,0.095638,652132,523236
1293.44,0.095428,653907,524914
1296.85,0.095349,655963,526660
1301.39,0.095064,657349,528119
1304.8,0.094679,657558,528756
1308.19,0.094952,658515,529192
1311.58,0.095030,658804,529330
1314.97,0.095639,659011,528754
1318.36,0.096081,658272,527624
1321.73,0.096347,658022,527100
1326.23,0.097217,657870,525924
1329.6,0.098251,656482,523567
1332.97,0.099238,654926,521140
1336.33,0.100325,653727,518885
1339.69,0.101791,652497,516164
1343.04,0.103322,649913,512311
1346.39,0.105184,647671,508359
1349.73,0.107231,645338,504146
1354.18,0.110202,641175,497479
1357.52,0.112361,638376,492851
1360.85,0.114404,635805,488562
1364.17,0.116371,633413,484525
1367.49,0.118353,631026,480501
1370.81,0.120783,628050,475567
1374.12,0.122790,625034,471101
1378.54,0.125890,620272,464186
1381.84,0.128635,616892,458748
1385.14,0.132594,613613,452169
1388.43,0.136151,611526,446955
1391.72,0.140864,610663,441507
1395.01,0.145448,610634,436851
1398.29,0.150191,611700,432860
1402.66,0.157178,614051,427589
1405.93,0.162556,616268,423851
1409.2,0.167470,617795,420121
1412.46,0.172168,618872,416325
1415.72,0.176779,619795,412543
1418.98,0.180532,620495,409455
1422.23,0.183736,621087,406833
1426.56,0.187785,621375,403245
1429.8,0.190287,621616,401084
1433.04,0.193425,622129,398525
1436.27,0.195371,621526,396359
1439.5,0.197779,621113,393905
1442.72,0.199537,620921,392193
1445.94,0.201564,620270,389957
1450.23,0.205078,618860,385935
1453.44,0.208353,617697,382316
1456.64,0.211538,616264,378642
1459.85,0.214137,614413,375252
1463.04,0.216047,612307,372325
1466.24,0.219264,610032,368204
1469.43,0.222180,607345,364129
1473.67,0.228611,603789,356676
1476.85,0.232967,601175,351588
1480.02,0.239386,597737,344448
1483.19,0.245213,594479,338005
1486.36,0.249879,591232,332567
1489.52,0.254705,587853,327012
1492.68,0.258003,583875,322342
1496.89,0.259704,578062,317885
1500.03,0.260344,574159,315274
1503.18,0.260377,570285,313123
1506.32,0.259890,565444,310813
1509.45,0.258039,560571,309451
1512.58,0.256249,555821,308096
1515.71,0.254667,550344,306173
1519.87,0.251998,543983,304500
1522.99,0.249060,538764,303626
1526.1,0.246098,533692,302826
1529.21,0.243811,527902,301122
1532.32,0.241138,521886,299528
1535.42,0.238211,515888,298088
1538.51,0.234705,509987,297067
1541.6,0.233398,503936,294427
1545.72,0.227960,494694,292669
1548.8,0.225505,488378,290570
1551.88,0.222946,481832,288370
1554.95,0.220988,474989,285559
1558.02,0.219498,467818,282214
1561.08,0.218342,460730,278679
1564.15,0.217469,454170,275264
1568.22,0.216553,444181,269778
1571.27,0.215115,436947,266265
1574.32,0.214715,429598,262028
1577.36,0.214282,422039,257674
1580.4,0.212729,414375,253901
1583.43,0.211302,406354,249806
1586.46,0.209515,398475,245972
1590.49,0.207776,388982,241076
1593.51,0.206049,380708,236888
1596.53,0.204098,372727,232966
1599.54,0.201616,365060,229482
1602.55,0.200149,357543,225517
1605.55,0.198734,349495,221160
1608.55,0.195995,341154,217248
1612.54,0.194839,330877,211265
1615.53,0.192338,322904,207365
1618.51,0.190981,315116,202997
1621.49,0.190212,307217,198259
1624.47,0.188767,299481,193911
1627.44,0.187088,292112,189872
1630.41,0.186824,284245,184871
1634.36,0.185975,274079,178608
1637.32,0.185820,266916,174002
1640.27,0.185255,259612,169461
1643.22,0.184003,251804,164839
1646.16,0.182536,244348,160499
1649.1,0.182163,236703,155611
1652.04,0.180490,228171,150581
1655.95,0.177983,215408,142981
1658.88,0.172709,204937,137693
1661.8,0.168915,193395,131078
1664.72,0.160484,179728,124203
1667.63,0.148431,163642,116269
1670.54,0.134547,146312,107333
1673.44,0.118305,128451,97821
1677.31,0.100203,105080,83429
1680.21,0.091255,88906,72057
1683.1,0.083127,75033,61962
1685.99,0.085140,63520,52212
1688.87,0.090840,53714,43576
1691.75,0.090810,45653,37039
1694.62,0.095520,39137,31410
1697.49,0.110406,33776,26194
1701.31,0.108113,28175,21966

File: Column 1_050590_20150331_121856.csv
Method:,Column 1,,
Host Date-Time:,31/3/15 @ 12:18:56,,
Header Version:,1,,
System Temp (C):,33.85,,
Detector Temp (C):,34.58,,
Humidity (%):,1.86,,
Lamp PD:,3818,,
Shift Vector Coefficients:,-10.5391,0.0761263,-0.000134223,,
Pixel to Wavelength Coefficients:,1775.68,-0.916766,-0.000235065,,
Serial Number:,5510004,,
Scan Config Name:,Column 1,,
Scan Config Type:,Slew,,
Section 1,,
Start wavelength (nm):,900,,
End wavelength (nm):,1700,,
Pattern Pixel Width (nm):,   7.03,,,,
Exposure (ms):,  0.635,,,,
Digital Resolution:,228,,
Num Repeats:,6,,
PGA Gain:,64,,
Total Measurement Time in sec:,  2.672,,
Wavelength (nm),Absorbance (AU),Reference Signal (unitless),Sample Signal (unitless)
901.51,0.070705,108485,92186
905.376,0.075908,121306,101853
909.237,0.079506,131909,109842
913.095,0.078915,143299,119489
916.948,0.080073,156982,130550
922.079,0.081809,179937,149043
925.923,0.083136,200504,165572
929.762,0.082902,222660,183967
933.597,0.083138,244426,201841
937.427,0.081777,263972,218666
941.254,0.081523,281845,233608
945.076,0.079953,297271,247286
950.165,0.079451,315605,262841
953.978,0.079403,328029,273218
957.786,0.078768,340470,283995
961.59,0.079622,352317,293300
965.389,0.078459,363056,303050
969.185,0.079253,373162,310917
972.976,0.079244,382632,318814
976.763,0.079834,391202,325512
981.806,0.080155,400190,332745
985.583,0.081008,406088,336986
989.355,0.081800,410162,339747
993.124,0.082073,412868,341773
996.888,0.082134,414263,342880
1000.65,0.083083,415476,343133
1004.4,0.084079,415479,342350
1009.41,0.085907,414358,339992
1013.15,0.085932,412923,338795
1016.89,0.086347,411526,337326
1020.63,0.086265,409066,335373
1024.36,0.086698,406777,333164
1028.09,0.085660,404427,332032
1031.82,0.086053,401911,329668
1036.78,0.086479,398410,326476
1040.49,0.085711,396204,325243
1044.2,0.085705,394236,323632
1047.91,0.084757,392042,322534
1051.61,0.084675,389823,320769
1055.31,0.084237,388234,319784
1059,0.084083,387599,319374
1063.92,0.082895,386688,319496
1067.61,0.082334,386598,319835
1071.29,0.082176,387377,320596
1074.96,0.081543,388536,322024
1078.63,0.080614,389855,323809
1082.3,0.080143,391215,325291
1085.96,0.079429,393215,327492
1090.84,0.078522,396270,330727
1094.49,0.078235,398760,333025
1098.14,0.077681,400987,335312
1101.79,0.076946,403477,337966
1105.43,0.077442,406116,339788
1109.06,0.075638,407701,342534
1112.7,0.075560,409859,344409
1117.53,0.075658,412494,346545
1121.15,0.076114,414909,348208
1124.77,0.075841,416559,349813
1128.38,0.077550,418532,350089
1131.99,0.077981,419956,350932
1135.6,0.079556,421946,351318
1139.2,0.080751,423881,351960
1143.99,0.082843,426786,352669
1147.58,0.083868,428617,353347
1151.17,0.085053,431169,354482
1154.75,0.085887,433579,355780
1158.33,0.087489,436264,356665
1161.91,0.088729,439132,357986
1165.48,0.090891,442389,358850
1169.04,0.093012,446101,360098
1173.79,0.096760,451929,361668
1177.34,0.098753,456026,363276
1180.9,0.100891,461306,365677
1184.44,0.102675,467657,369192
1187.99,0.103354,473969,373591
1191.52,0.103144,479856,378414
1195.06,0.103068,487372,384408
1199.76,0.102446,497347,392838
1203.29,0.102050,504311,398702
1206.81,0.101687,511507,404729
1210.33,0.100964,519078,411404
1213.84,0.100180,527163,418567
1217.35,0.099968,534208,424368
1220.85,0.099005,540472,430297
1225.51,0.098498,549929,438338
1229.01,0.097926,556888,444469
1232.5,0.097005,562180,449646
1235.98,0.096388,567975,454927
1239.46,0.095822,574815,461006
1242.94,0.094647,582782,468661
1246.41,0.094150,591476,476197
1251.03,0.094101,604016,486348
1254.5,0.094074,612289,493040
1257.96,0.094294,619125,498293
1261.41,0.095006,624551,501836
1264.86,0.095461,629900,505604
1268.31,0.096083,634345,508443
1271.75,0.096829,638574,510954
1276.33,0.096986,642499,513909
1279.76,0.096781,645905,516878
1283.19,0.096604,648307,519011
1286.61,0.095914,650446,521552
1290.03,0.095828,652132,523007
1293.44,0.095181,653907,525212
1296.85,0.094963,655963,527128
1301.39,0.094539,657349,528758
1304.8,0.094857,657558,528539
1308.19,0.095284,658515,528788
1311.58,0.094922,658804,529461
1314.97,0.095548,659011,528865
1318.36,0.095841,658272,527915
1321.73,0.096267,658022,527198
1326.23,0.097333,657870,525784
1329.6,0.098236,656482,523584
1332.97,0.099024,654926,521397
1336.33,0.100225,653727,519005
1339.69,0.101843,652497,516102
1343.04,0.102758,649913,512976
1346.39,0.105116,647671,508439
1349.73,0.107363,645338,503993
1354.18,0.110253,641175,497420
1357.52,0.112598,638376,492582
1360.85,0.114423,635805,488541
1364.17,0.116346,633413,484553
1367.49,0.118549,631026,480284
1370.81,0.120449,628050,475932
1374.12,0.122528,625034,471385
1378.54,0.125614,620272,464481
1381.84,0.128863,616892,458507
1385.14,0.132470,613613,452298
1388.43,0.135968,611526,447144
1391.72,0.140744,610663,441629
1395.01,0.145192,610634,437108
1398.29,0.149600,611700,433449
1402.66,0.157253,614051,427515
1405.93,0.162144,616268,424254
1409.2,0.167732,617795,419868
1412.46,0.172426,618872,416078
1415.72,0.176449,619795,412856
1418.98,0.180344,620495,409632
1422.23,0.183316,621087,407227
1426.56,0.187760,621375,403268
1429.8,0.190579,621616,400814
1433.04,0.192629,622129,399256
1436.27,0.195334,621526,396392
1439.5,0.196676,621113,394907
1442.72,0.199597,620921,392138
1445.94,0.201504,620270,390011
1450.23,0.205245,618860,385787
1453.44,0.208174,617697,382474
1456.64,0.210566,616264,379490
1459.85,0.213300,614413,375976
1463.04,0.216005,612307,372361
1466.24,0.219108,610032,368336
1469.43,0.222742,607345,363658
1473.67,0.228283,603789,356946
1476.85,0.233543,601175,351122
1480.02,0.239100,597737,344675
1483.19,0.245109,594479,338086
1486.36,0.250480,591232,332107
1489.52,0.254863,587853,326893
1492.68,0.257580,583875,322656
1496.89,0.259811,578062,317807
1500.03,0.260548,574159,315126
1503.18,0.260521,570285,313019
1506.32,0.259411,565444,311156
1509.45,0.258360,560571,309222
1512.58,0.257040,555821,307535
1515.71,0.254691,550344,306156
1519.87,0.251391,543983,304926
1522.99,0.249334,538764,303434
1526.1,0.246316,533692,302674
1529.21,0.243866,527902,301084
1532.32,0.240967,521886,299646
1535.42,0.238311,515888,298019
1538.51,0.235243,509987,296699
1541.6,0.232799,503936,294833
1545.72,0.228272,494694,292459
1548.8,0.225144,488378,290812
1551.88,0.222750,481832,288500
1554.95,0.221042,474989,285523
1558.02,0.219655,467818,282112
1561.08,0.218515,460730,278568
1564.15,0.217665,454170,275140
1568.22,0.216858,444181,269589
1571.27,0.216042,436947,265697
1574.32,0.215551,429598,261524
1577.36,0.212813,422039,258547
1580.4,0.213152,414375,253654
1583.43,0.211010,406354,249974
1586.46,0.209885,398475,245763
1590.49,0.207379,388982,241296
1593.51,0.205856,380708,236993
1596.53,0.203223,372727,233436
1599.54,0.201756,365060,229408
1602.55,0.199960,357543,225615
1605.55,0.197726,349495,221674
1608.55,0.196409,341154,217041
1612.54,0.194603,330877,211380
1615.53,0.192610,322904,207235
1618.51,0.191375,315116,202813
1621.49,0.189449,307217,198608
1624.47,0.189406,299481,193626
1627.44,0.187986,292112,189480
1630.41,0.186714,284245,184918
1634.36,0.185265,274079,178900
1637.32,0.183580,266916,174902
1640.27,0.184420,259612,169787
1643.22,0.183534,251804,165017
1646.16,0.182980,244348,160335
1649.1,0.183256,236703,155220
1652.04,0.179822,228171,150813
1655.95,0.177082,215408,143278
1658.88,0.173662,204937,137391
1661.8,0.169084,193395,131027
1664.72,0.160777,179728,124119
1667.63,0.149134,163642,116081
1670.54,0.136469,146312,106859
1673.44,0.117489,128451,98005
1677.31,0.101532,105080,83174
1680.21,0.092861,88906,71791
1683.1,0.083590,75033,61896
1685.99,0.085440,63520,52176
1688.87,0.086013,53714,44063
1691.75,0.090658,45653,37052
1694.62,0.096530,39137,31337
1697.49,0.102146,33776,26697
1701.31,0.111946,28175,21773