Folder: textile_sorting_NIRSCAN_/samples/wool/wool-000811 (part 31)

File: Column 1_050548_20150331_115851.csv
Method:,Column 1,,
Host Date-Time:,31/3/15 @ 11:58:51,,
Header Version:,1,,
System Temp (C):,33.15,,
Detector Temp (C):,31.81,,
Humidity (%):,2.34,,
Lamp PD:,3822,,
Shift Vector Coefficients:,-10.5391,0.0761263,-0.000134223,,
Pixel to Wavelength Coefficients:,1775.68,-0.916766,-0.000235065,,
Serial Number:,5510004,,
Scan Config Name:,Column 1,,
Scan Config Type:,Slew,,
Section 1,,
Start wavelength (nm):,900,,
End wavelength (nm):,1700,,
Pattern Pixel Width (nm):,   7.03,,,,
Exposure (ms):,  0.635,,,,
Digital Resolution:,228,,
Num Repeats:,6,,
PGA Gain:,64,,
Total Measurement Time in sec:,  2.666,,
Wavelength (nm),Absorbance (AU),Reference Signal (unitless),Sample Signal (unitless)
901.51,0.043342,108485,98181
905.376,0.049539,121306,108229
909.237,0.050347,131909,117470
913.095,0.052802,143299,126894
916.948,0.053379,156982,138826
922.079,0.053835,179937,158959
925.923,0.055216,200504,176566
929.762,0.055178,222660,196094
933.597,0.056372,244426,214672
937.427,0.055956,263972,232061
941.254,0.055539,281845,248011
945.076,0.055503,297271,261607
950.165,0.054962,315605,278088
953.978,0.054845,328029,289113
957.786,0.055457,340470,299655
961.59,0.055454,352317,310084
965.389,0.055983,363056,319147
969.185,0.055792,373162,328175
972.976,0.056887,382632,335656
976.763,0.057560,391202,342642
981.806,0.058101,400190,350078
985.583,0.058546,406088,354874
989.355,0.058928,410162,358119
993.124,0.059971,412868,359617
996.888,0.060395,414263,360480
1000.65,0.061084,415476,360962
1004.4,0.062226,415479,360017
1009.41,0.063454,414358,358032
1013.15,0.064202,412923,356178
1016.89,0.064519,411526,354714
1020.63,0.064379,409066,352707
1024.36,0.064291,406777,350805
1028.09,0.064069,404427,348956
1031.82,0.063496,401911,347243
1036.78,0.062881,398410,344706
1040.49,0.062587,396204,343030
1044.2,0.061860,394236,341898
1047.91,0.061563,392042,340228
1051.61,0.060550,389823,339092
1055.31,0.059828,388234,338272
1059,0.059302,387599,338128
1063.92,0.058309,386688,338105
1067.61,0.057353,386598,338771
1071.29,0.056608,387377,340037
1074.96,0.055710,388536,341760
1078.63,0.054895,389855,343564
1082.3,0.054200,391215,345315
1085.96,0.052936,393215,348092
1090.84,0.052607,396270,351062
1094.49,0.052162,398760,353630
1098.14,0.052095,400987,355660
1101.79,0.051719,403477,358179
1105.43,0.051435,406116,360757
1109.06,0.051507,407701,362105
1112.7,0.051023,409859,364428
1117.53,0.050642,412494,367093
1121.15,0.051697,414909,368346
1124.77,0.052375,416559,369234
1128.38,0.054167,418532,369455
1131.99,0.055071,419956,369941
1135.6,0.056892,421946,370139
1139.2,0.059034,423881,370007
1143.99,0.062234,426786,369808
1147.58,0.063579,428617,370246
1151.17,0.064940,431169,371285
1154.75,0.066929,433579,371654
1158.33,0.067703,436264,373290
1161.91,0.070563,439132,373278
1165.48,0.073624,442389,373405
1169.04,0.076233,446101,374283
1173.79,0.081048,451929,374992
1177.34,0.083401,456026,376347
1180.9,0.085962,461306,378466
1184.44,0.087928,467657,381944
1187.99,0.088661,473969,386446
1191.52,0.088566,479856,391332
1195.06,0.087625,487372,398323
1199.76,0.086317,497347,407702
1203.29,0.085050,504311,414618
1206.81,0.083918,511507,421632
1210.33,0.082808,519078,428968
1213.84,0.081661,527163,436801
1217.35,0.080014,534208,444321
1220.85,0.079549,540472,450012
1225.51,0.078200,549929,459311
1229.01,0.077259,556888,466132
1232.5,0.076223,562180,471685
1235.98,0.075549,567975,477288
1239.46,0.074724,574815,483954
1242.94,0.073234,582782,492348
1246.41,0.072443,591476,500604
1251.03,0.072427,604016,511236
1254.5,0.072156,612289,518562
1257.96,0.072720,619125,523671
1261.41,0.073368,624551,527472
1264.86,0.073781,629900,531484
1268.31,0.074702,634345,534101
1271.75,0.075579,638574,536577
1276.33,0.075724,642499,539695
1279.76,0.075363,645905,543007
1283.19,0.074820,648307,545709
1286.61,0.074475,650446,547944
1290.03,0.074279,652132,549612
1293.44,0.073671,653907,551880
1296.85,0.073297,655963,554092
1301.39,0.073071,657349,555553
1304.8,0.072885,657558,555967
1308.19,0.073266,658515,556288
1311.58,0.073242,658804,556563
1314.97,0.073744,659011,556094
1318.36,0.074585,658272,554397
1321.73,0.074493,658022,554303
1326.23,0.076121,657870,552102
1329.6,0.076814,656482,550059
1332.97,0.077844,654926,547455
1336.33,0.079275,653727,544655
1339.69,0.081009,652497,541464
1343.04,0.082710,649913,537211
1346.39,0.085306,647671,532168
1349.73,0.087841,645338,527165
1354.18,0.091498,641175,519372
1357.52,0.093869,638376,514289
1360.85,0.096400,635805,509242
1364.17,0.098848,633413,504474
1367.49,0.101823,631026,499142
1370.81,0.104215,628050,494059
1374.12,0.106679,625034,488905
1378.54,0.110631,620272,480785
1381.84,0.114568,616892,473850
1385.14,0.118985,613613,466562
1388.43,0.123946,611526,459694
1391.72,0.129557,610663,453153
1395.01,0.134682,610634,447815
1398.29,0.140412,611700,442717
1402.66,0.148695,614051,436023
1405.93,0.155543,616268,430751
1409.2,0.162154,617795,425295
1412.46,0.167268,618872,421049
1415.72,0.172405,619795,416719
1418.98,0.176686,620495,413097
1422.23,0.180574,621087,409806
1426.56,0.185389,621375,405476
1429.8,0.188504,621616,402734
1433.04,0.191389,622129,400398
1436.27,0.193465,621526,398102
1439.5,0.195565,621113,395918
1442.72,0.198601,620921,393039
1445.94,0.200940,620270,390518
1450.23,0.204703,618860,386269
1453.44,0.208051,617697,382582
1456.64,0.211290,616264,378858
1459.85,0.213700,614413,375630
1463.04,0.216167,612307,372222
1466.24,0.219756,610032,367787
1469.43,0.222477,607345,363880
1473.67,0.228572,603789,356708
1476.85,0.233496,601175,351160
1480.02,0.240003,597737,343959
1483.19,0.246418,594479,337069
1486.36,0.251902,591232,331021
1489.52,0.257495,587853,324918
1492.68,0.261608,583875,319677
1496.89,0.264528,578062,314374
1500.03,0.264758,574159,312086
1503.18,0.266044,570285,309064
1506.32,0.265127,565444,307088
1509.45,0.264073,560571,305181
1512.58,0.262533,555821,303670
1515.71,0.260383,550344,302170
1519.87,0.257107,543983,300939
1522.99,0.254201,538764,300053
1526.1,0.251124,533692,299341
1529.21,0.248188,527902,298102
1532.32,0.245078,521886,296823
1535.42,0.241932,515888,295545
1538.51,0.238312,509987,294610
1541.6,0.235358,503936,293101
1545.72,0.230374,494694,291047
1548.8,0.226506,488378,289901
1551.88,0.224412,481832,287398
1554.95,0.221836,474989,285002
1558.02,0.220037,467818,281864
1561.08,0.217719,460730,279079
1564.15,0.217508,454170,275239
1568.22,0.216246,444181,269969
1571.27,0.216054,436947,265690
1574.32,0.214632,429598,262078
1577.36,0.213486,422039,258147
1580.4,0.211491,414375,254626
1583.43,0.210138,406354,250476
1586.46,0.208517,398475,246538
1590.49,0.204940,388982,242655
1593.51,0.202732,380708,238704
1596.53,0.200395,372727,234961
1599.54,0.197802,365060,231506
1602.55,0.195533,357543,227927
1605.55,0.193160,349495,224017
1608.55,0.191057,341154,219732
1612.54,0.188266,330877,214487
1615.53,0.185764,322904,210528
1618.51,0.184350,315116,206120
1621.49,0.183015,307217,201572
1624.47,0.181170,299481,197333
1627.44,0.180638,292112,192713
1630.41,0.178732,284245,188348
1634.36,0.176513,274079,182542
1637.32,0.176030,266916,177969
1640.27,0.175060,259612,173486
1643.22,0.172747,251804,169167
1646.16,0.173040,244348,164047
1649.1,0.173137,236703,158879
1652.04,0.169807,228171,154331
1655.95,0.169743,215408,145720
1658.88,0.166940,204937,139534
1661.8,0.162701,193395,132967
1664.72,0.158262,179728,124840
1667.63,0.150805,163642,115635
1670.54,0.141776,146312,105561
1673.44,0.134558,128451,94228
1677.31,0.124272,105080,78931
1680.21,0.118785,88906,67631
1683.1,0.122183,75033,56633
1685.99,0.125203,63520,47611
1688.87,0.124901,53714,40289
1691.75,0.135086,45653,33449
1694.62,0.135175,39137,28669
1697.49,0.130859,33776,24989
1701.31,0.145740,28175,20143

File: Column 1_050548_20150331_115854.csv
Method:,Column 1,,
Host Date-Time:,31/3/15 @ 11:58:54,,
Header Version:,1,,
System Temp (C):,33.14,,
Detector Temp (C):,31.86,,
Humidity (%):,2.34,,
Lamp PD:,3823,,
Shift Vector Coefficients:,-10.5391,0.0761263,-0.000134223,,
Pixel to Wavelength Coefficients:,1775.68,-0.916766,-0.000235065,,
Serial Number:,5510004,,
Scan Config Name:,Column 1,,
Scan Config Type:,Slew,,
Section 1,,
Start wavelength (nm):,900,,
End wavelength (nm):,1700,,
Pattern Pixel Width (nm):,   7.03,,,,
Exposure (ms):,  0.635,,,,
Digital Resolution:,228,,
Num Repeats:,6,,
PGA Gain:,64,,
Total Measurement Time in sec:,  2.672,,
Wavelength (nm),Absorbance (AU),Reference Signal (unitless),Sample Signal (unitless)
901.51,0.047409,108485,97266
905.376,0.053602,121306,107221
909.237,0.054616,131909,116321
913.095,0.054135,143299,126505
916.948,0.055662,156982,138098
922.079,0.055310,179937,158420
925.923,0.056023,200504,176238
929.762,0.057592,222660,195007
933.597,0.058063,244426,213838
937.427,0.058326,263972,230798
941.254,0.057262,281845,247029
945.076,0.056952,297271,260736
950.165,0.057358,315605,276558
953.978,0.056215,328029,288202
957.786,0.057075,340470,298541
961.59,0.057456,352317,308658
965.389,0.057496,363056,318037
969.185,0.057932,373162,326562
972.976,0.058206,382632,334638
976.763,0.058904,391202,341584
981.806,0.059631,400190,348847
985.583,0.060443,406088,353327
989.355,0.060353,410162,356946
993.124,0.060996,412868,358769
996.888,0.061059,414263,359929
1000.65,0.062578,415476,359723
1004.4,0.063665,415479,358826
1009.41,0.064621,414358,357071
1013.15,0.065531,412923,355090
1016.89,0.065860,411526,353620
1020.63,0.066110,409066,351304
1024.36,0.065179,406777,350088
1028.09,0.065159,404427,348082
1031.82,0.065550,401911,345605
1036.78,0.063975,398410,343839
1040.49,0.063888,396204,342004
1044.2,0.063299,394236,340767
1047.91,0.062938,392042,339152
1051.61,0.061992,389823,337968
1055.31,0.060947,388234,337401
1059,0.060900,387599,336886
1063.92,0.059608,386688,337095
1067.61,0.058752,386598,337682
1071.29,0.058040,387377,338917
1074.96,0.057152,388536,340627
1078.63,0.056593,389855,342224
1082.3,0.055081,391215,344615
1085.96,0.054699,393215,346682
1090.84,0.053839,396270,350068
1094.49,0.053396,398760,352627
1098.14,0.052944,400987,354966
1101.79,0.052789,403477,357297
1105.43,0.052852,406116,359582
1109.06,0.052437,407701,361331
1112.7,0.052167,409859,363469
1117.53,0.051954,412494,365985
1121.15,0.052896,414909,367330
1124.77,0.053297,416559,368451
1128.38,0.054913,418532,368821
1131.99,0.056878,419956,368405
1135.6,0.058540,421946,368737
1139.2,0.060691,423881,368598
1143.99,0.063536,426786,368701
1147.58,0.064201,428617,369716
1151.17,0.065878,431169,370484
1154.75,0.067369,433579,371278
1158.33,0.068737,436264,372402
1161.91,0.071455,439132,372512
1165.48,0.074438,442389,372706
1169.04,0.077380,446101,373296
1173.79,0.082014,451929,374159
1177.34,0.083979,456026,375847
1180.9,0.086811,461306,377727
1184.44,0.088853,467657,381131
1187.99,0.089750,473969,385478
1191.52,0.089341,479856,390634
1195.06,0.088415,487372,397599
1199.76,0.087083,497347,406983
1203.29,0.085399,504311,414285
1206.81,0.084502,511507,421065
1210.33,0.083636,519078,428151
1213.84,0.082405,527163,436054
1217.35,0.081117,534208,443193
1220.85,0.080162,540472,449377
1225.51,0.079035,549929,458429
1229.01,0.078469,556888,464835
1232.5,0.076768,562180,471094
1235.98,0.076646,567975,476084
1239.46,0.075237,574815,483383
1242.94,0.073909,582782,491583
1246.41,0.073156,591476,499783
1251.03,0.072877,604016,510707
1254.5,0.072898,612289,517676
1257.96,0.073317,619125,522951
1261.41,0.073889,624551,526840
1264.86,0.074427,629900,530694
1268.31,0.075128,634345,533577
1271.75,0.075700,638574,536428
1276.33,0.076269,642499,539018
1279.76,0.075917,645905,542315
1283.19,0.075336,648307,545060
1286.61,0.075136,650446,547111
1290.03,0.074509,652132,549321
1293.44,0.074055,653907,551393
1296.85,0.073694,655963,553586
1301.39,0.073710,657349,554735
1304.8,0.073183,657558,555586
1308.19,0.073722,658515,555704
1311.58,0.073790,658804,555861
1314.97,0.074220,659011,555486
1318.36,0.075234,658272,553568
1321.73,0.075594,658022,552900
1326.23,0.076202,657870,551999
1329.6,0.077352,656482,549377
1332.97,0.078643,654926,546448
1336.33,0.079666,653727,544165
1339.69,0.081327,652497,541067
1343.04,0.083814,649913,535847
1346.39,0.085922,647671,531413
1349.73,0.088270,645338,526644
1354.18,0.092100,641175,518653
1357.52,0.094263,638376,513823
1360.85,0.096853,635805,508711
1364.17,0.099182,633413,504086
1367.49,0.101740,631026,499238
1370.81,0.105001,628050,493166
1374.12,0.107543,625034,487933
1378.54,0.111026,620272,480348
1381.84,0.115025,616892,473352
1385.14,0.119363,613613,466156
1388.43,0.125076,611526,458500
1391.72,0.129623,610663,453084
1395.01,0.134791,610634,447703
1398.29,0.141148,611700,441968
1402.66,0.149262,614051,435454
1405.93,0.156158,616268,430142
1409.2,0.162472,617795,424984
1412.46,0.167821,618872,420513
1415.72,0.173081,619795,416071
1418.98,0.177303,620495,412511
1422.23,0.181460,621087,408971
1426.56,0.185726,621375,405161
1429.8,0.189086,621616,402195
1433.04,0.191807,622129,400012
1436.27,0.194374,621526,397270
1439.5,0.196798,621113,394796
1442.72,0.199364,620921,392349
1445.94,0.201877,620270,389676
1450.23,0.205071,618860,385941
1453.44,0.208361,617697,382309
1456.64,0.211497,616264,378678
1459.85,0.213517,614413,375788
1463.04,0.216680,612307,371783
1466.24,0.219985,610032,367593
1469.43,0.223421,607345,363090
1473.67,0.228487,603789,356778
1476.85,0.234262,601175,350541
1480.02,0.239955,597737,343997
1483.19,0.247340,594479,336354
1486.36,0.252994,591232,330190
1489.52,0.258294,587853,324321
1492.68,0.262424,583875,319077
1496.89,0.265273,578062,313835
1500.03,0.266416,574159,310897
1503.18,0.266426,570285,308792
1506.32,0.265978,565444,306487
1509.45,0.264737,560571,304715
1512.58,0.262998,555821,303345
1515.71,0.260567,550344,302042
1519.87,0.258134,543983,300228
1522.99,0.254599,538764,299778
1526.1,0.252473,533692,298413
1529.21,0.249096,527902,297480
1532.32,0.245992,521886,296199
1535.42,0.242368,515888,295248
1538.51,0.239258,509987,293969
1541.6,0.235837,503936,292778
1545.72,0.230910,494694,290688
1548.8,0.227576,488378,289188
1551.88,0.225135,481832,286920
1554.95,0.222678,474989,284450
1558.02,0.220835,467818,281347
1561.08,0.218829,460730,278367
1564.15,0.218018,454170,274916
1568.22,0.216668,444181,269707
1571.27,0.216924,436947,265158
1574.32,0.215508,429598,261550
1577.36,0.213396,422039,258200
1580.4,0.211776,414375,254459
1583.43,0.211091,406354,249927
1586.46,0.208718,398475,246424
1590.49,0.206455,388982,241810
1593.51,0.203683,380708,238182
1596.53,0.201544,372727,234340
1599.54,0.199219,365060,230752
1602.55,0.197559,357543,226866
1605.55,0.194939,349495,223101
1608.55,0.192308,341154,219100
1612.54,0.188790,330877,214228
1615.53,0.187121,322904,209871
1618.51,0.185925,315116,205374
1621.49,0.184604,307217,200836
1624.47,0.183011,299481,196498
1627.44,0.181254,292112,192440
1630.41,0.180185,284245,187719
1634.36,0.178961,274079,181516
1637.32,0.176961,266916,177588
1640.27,0.176434,259612,172938
1643.22,0.174102,251804,168640
1646.16,0.174382,244348,163541
1649.1,0.174032,236703,158552
1652.04,0.171790,228171,153628
1655.95,0.170035,215408,145622
1658.88,0.168215,204937,139125
1661.8,0.165677,193395,132059
1664.72,0.159862,179728,124381
1667.63,0.153023,163642,115046
1670.54,0.145167,146312,104740
1673.44,0.137865,128451,93513
1677.31,0.127187,105080,78403
1680.21,0.124441,88906,66756
1683.1,0.123481,75033,56464
1685.99,0.128362,63520,47266
1688.87,0.137922,53714,39099
1691.75,0.140890,45653,33005
1694.62,0.143125,39137,28149
1697.49,0.145943,33776,24136
1701.31,0.154583,28175,19737

File: Column 1_050548_20150331_115900.csv
Method:,Column 1,,
Host Date-Time:,31/3/15 @ 11:59:0,,
Header Version:,1,,
System Temp (C):,33.17,,
Detector Temp (C):,31.88,,
Humidity (%):,2.34,,
Lamp PD:,3822,,
Shift Vector Coefficients:,-10.5391,0.0761263,-0.000134223,,
Pixel to Wavelength Coefficients:,1775.68,-0.916766,-0.000235065,,
Serial Number:,5510004,,
Scan Config Name:,Column 1,,
Scan Config Type:,Slew,,
Section 1,,
Start wavelength (nm):,900,,
End wavelength (nm):,1700,,
Pattern Pixel Width (nm):,   7.03,,,,
Exposure (ms):,  0.635,,,,
Digital Resolution:,228,,
Num Repeats:,6,,
PGA Gain:,64,,
Total Measurement Time in sec:,  2.680,,
Wavelength (nm),Absorbance (AU),Reference Signal (unitless),Sample Signal (unitless)
901.51,0.047150,108485,97324
905.376,0.051396,121306,107767
909.237,0.053531,131909,116612
913.095,0.054599,143299,126370
916.948,0.055493,156982,138152
922.079,0.054880,179937,158577
925.923,0.055760,200504,176345
929.762,0.056962,222660,195290
933.597,0.057719,244426,214007
937.427,0.057641,263972,231162
941.254,0.056542,281845,247439
945.076,0.056021,297271,261295
950.165,0.056509,315605,277099
953.978,0.055810,328029,288471
957.786,0.056143,340470,299182
961.59,0.057249,352317,308805
965.389,0.057436,363056,318081
969.185,0.057196,373162,327116
972.976,0.058080,382632,334735
976.763,0.058146,391202,342180
981.806,0.059029,400190,349331
985.583,0.059388,406088,354187
989.355,0.059696,410162,357486
993.124,0.060422,412868,359244
996.888,0.060923,414263,360042
1000.65,0.061955,415476,360239
1004.4,0.062824,415479,359522
1009.41,0.064839,414358,356892
1013.15,0.064865,412923,355635
1016.89,0.064829,411526,354461
1020.63,0.065412,409066,351869
1024.36,0.065172,406777,350094
1028.09,0.064872,404427,348312
1031.82,0.064824,401911,346183
1036.78,0.063673,398410,344078
1040.49,0.063559,396204,342263
1044.2,0.062741,394236,341205
1047.91,0.062135,392042,339780
1051.61,0.061833,389823,338092
1055.31,0.060941,388234,337406
1059,0.060222,387599,337412
1063.92,0.058700,386688,337801
1067.61,0.057970,386598,338290
1071.29,0.057384,387377,339430
1074.96,0.057206,388536,340585
1078.63,0.055923,389855,342752
1082.3,0.054544,391215,345042
1085.96,0.054471,393215,346864
1090.84,0.053230,396270,350559
1094.49,0.052797,398760,353114
1098.14,0.052707,400987,355159
1101.79,0.052534,403477,357507
1105.43,0.052561,406116,359823
1109.06,0.051636,407701,361998
1112.7,0.051273,409859,364218
1117.53,0.051672,412494,366223
1121.15,0.052287,414909,367846
1124.77,0.053516,416559,368265
1128.38,0.054452,418532,369213
1131.99,0.056646,419956,368602
1135.6,0.057698,421946,369453
1139.2,0.059383,423881,369710
1143.99,0.062924,426786,369221
1147.58,0.064113,428617,369791
1151.17,0.065664,431169,370667
1154.75,0.067021,433579,371576
1158.33,0.068204,436264,372860
1161.91,0.071367,439132,372587
1165.48,0.073581,442389,373442
1169.04,0.076925,446101,373687
1173.79,0.081062,451929,374980
1177.34,0.083790,456026,376010
1180.9,0.086533,461306,377969
1184.44,0.088169,467657,381732
1187.99,0.089640,473969,385576
1191.52,0.089164,479856,390793
1195.06,0.088296,487372,397708
1199.76,0.087012,497347,407050
1203.29,0.085512,504311,414177
1206.81,0.084337,511507,421225
1210.33,0.083013,519078,428765
1213.84,0.082345,527163,436114
1217.35,0.080983,534208,443330
1220.85,0.080411,540472,449120
1225.51,0.078302,549929,459203
1229.01,0.078100,556888,465230
1232.5,0.076729,562180,471136
1235.98,0.076105,567975,476677
1239.46,0.074940,574815,483713
1242.94,0.073742,582782,491772
1246.41,0.072923,591476,500051
1251.03,0.072730,604016,510879
1254.5,0.072596,612289,518037
1257.96,0.072703,619125,523691
1261.41,0.073485,624551,527330
1264.86,0.074217,629900,530951
1268.31,0.074859,634345,533908
1271.75,0.075535,638574,536632
1276.33,0.076000,642499,539352
1279.76,0.076127,645905,542053
1283.19,0.075117,648307,545336
1286.61,0.074627,650446,547752
1290.03,0.074603,652132,549203
1293.44,0.073863,653907,551637
1296.85,0.073817,655963,553430
1301.39,0.073395,657349,555138
1304.8,0.073236,657558,555518
1308.19,0.073480,658515,556014
1311.58,0.073448,658804,556299
1314.97,0.074347,659011,555323
1318.36,0.074826,658272,554089
1321.73,0.075062,658022,553577
1326.23,0.076181,657870,552026
1329.6,0.077200,656482,549570
1332.97,0.078337,654926,546834
1336.33,0.079245,653727,544693
1339.69,0.081564,652497,540772
1343.04,0.083336,649913,536437
1346.39,0.085668,647671,531724
1349.73,0.088074,645338,526882
1354.18,0.091665,641175,519172
1357.52,0.094207,638376,513889
1360.85,0.096608,635805,508998
1364.17,0.099125,633413,504152
1367.49,0.101881,631026,499075
1370.81,0.104620,628050,493599
1374.12,0.107022,625034,488519
1378.54,0.110992,620272,480386
1381.84,0.114857,616892,473535
1385.14,0.119400,613613,466117
1388.43,0.124019,611526,459617
1391.72,0.129619,610663,453088
1395.01,0.135338,610634,447139
1398.29,0.141156,611700,441960
1402.66,0.149379,614051,435337
1405.93,0.155560,616268,430734
1409.2,0.161747,617795,425694
1412.46,0.167872,618872,420464
1415.72,0.172526,619795,416603
1418.98,0.177116,620495,412688
1422.23,0.180663,621087,409722
1426.56,0.185827,621375,405067
1429.8,0.188336,621616,402890
1433.04,0.191542,622129,400257
1436.27,0.194006,621526,397606
1439.5,0.196012,621113,395511
1442.72,0.198800,620921,392859
1445.94,0.201051,620270,390418
1450.23,0.205443,618860,385611
1453.44,0.208514,617697,382174
1456.64,0.211312,616264,378839
1459.85,0.214296,614413,375115
1463.04,0.216587,612307,371862
1466.24,0.219775,610032,367771
1469.43,0.223123,607345,363339
1473.67,0.228580,603789,356702
1476.85,0.234266,601175,350538
1480.02,0.240351,597737,343684
1483.19,0.246918,594479,336681
1486.36,0.252669,591232,330437
1489.52,0.258026,587853,324521
1492.68,0.262122,583875,319299
1496.89,0.264757,578062,314208
1500.03,0.265385,574159,311636
1503.18,0.265803,570285,309235
1506.32,0.265053,565444,307140
1509.45,0.264517,560571,304869
1512.58,0.262885,555821,303424
1515.71,0.261057,550344,301701
1519.87,0.257741,543983,300500
1522.99,0.255160,538764,299391
1526.1,0.252616,533692,298315
1529.21,0.248925,527902,297597
1532.32,0.245780,521886,296344
1535.42,0.242557,515888,295120
1538.51,0.238964,509987,294168
1541.6,0.235975,503936,292685
1545.72,0.231050,494694,290594
1548.8,0.227346,488378,289341
1551.88,0.224791,481832,287147
1554.95,0.221970,474989,284914
1558.02,0.220779,467818,281383
1561.08,0.218356,460730,278670
1564.15,0.218440,454170,274649
1568.22,0.216946,444181,269534
1571.27,0.217265,436947,264950
1574.32,0.215647,429598,261466
1577.36,0.213398,422039,258199
1580.4,0.212262,414375,254174
1583.43,0.210577,406354,250223
1586.46,0.208299,398475,246662
1590.49,0.206425,388982,241827
1593.51,0.204251,380708,237871
1596.53,0.201267,372727,234490
1599.54,0.198878,365060,230933
1602.55,0.196742,357543,227293
1605.55,0.194603,349495,223274
1608.55,0.192171,341154,219169
1612.54,0.189241,330877,214006
1615.53,0.187059,322904,209901
1618.51,0.186299,315116,205197
1621.49,0.184359,307217,200949
1624.47,0.182947,299481,196527
1627.44,0.181141,292112,192490
1630.41,0.179551,284245,187993
1634.36,0.179016,274079,181493
1637.32,0.178051,266916,177143
1640.27,0.175897,259612,173152
1643.22,0.174208,251804,168599
1646.16,0.174149,244348,163629
1649.1,0.173411,236703,158779
1652.04,0.170311,228171,154152
1655.95,0.170515,215408,145461
1658.88,0.166256,204937,139754
1661.8,0.163948,193395,132586
1664.72,0.160221,179728,124278
1667.63,0.152819,163642,115100
1670.54,0.145130,146312,104749
1673.44,0.136845,128451,93733
1677.31,0.127492,105080,78348
1680.21,0.124090,88906,66810
1683.1,0.125949,75033,56144
1685.99,0.130157,63520,47071
1688.87,0.136447,53714,39232
1691.75,0.137900,45653,33233
1694.62,0.143835,39137,28103
1697.49,0.142466,33776,24330
1701.31,0.154165,28175,19756