Folder: textile_sorting_NIRSCAN_/samples/wool/wool-000811 (part 161)

File: Column 1_050620_20150331_123303.csv
Method:,Column 1,,
Host Date-Time:,31/3/15 @ 12:33:3,,
Header Version:,1,,
System Temp (C):,34.11,,
Detector Temp (C):,35.01,,
Humidity (%):,1.66,,
Lamp PD:,3818,,
Shift Vector Coefficients:,-10.5391,0.0761263,-0.000134223,,
Pixel to Wavelength Coefficients:,1775.68,-0.916766,-0.000235065,,
Serial Number:,5510004,,
Scan Config Name:,Column 1,,
Scan Config Type:,Slew,,
Section 1,,
Start wavelength (nm):,900,,
End wavelength (nm):,1700,,
Pattern Pixel Width (nm):,   7.03,,,,
Exposure (ms):,  0.635,,,,
Digital Resolution:,228,,
Num Repeats:,6,,
PGA Gain:,64,,
Total Measurement Time in sec:,  2.674,,
Wavelength (nm),Absorbance (AU),Reference Signal (unitless),Sample Signal (unitless)
901.51,0.066756,108485,93028
905.376,0.073718,121306,102368
909.237,0.076190,131909,110684
913.095,0.077746,143299,119811
916.948,0.078728,156982,130955
922.079,0.079583,179937,149809
925.923,0.081027,200504,166378
929.762,0.081648,222660,184499
933.597,0.081570,244426,202571
937.427,0.080769,263972,219174
941.254,0.080144,281845,234351
945.076,0.077426,297271,248729
950.165,0.077311,315605,264139
953.978,0.076971,328029,274752
957.786,0.076875,340470,285236
961.59,0.077007,352317,295071
965.389,0.077379,363056,303805
969.185,0.077476,373162,312192
972.976,0.077709,382632,319943
976.763,0.078074,391202,326834
981.806,0.078325,400190,334150
985.583,0.078941,406088,338594
989.355,0.079457,410162,341585
993.124,0.080403,412868,343090
996.888,0.080337,414263,344302
1000.65,0.080713,415476,345011
1004.4,0.082046,415479,343956
1009.41,0.083404,414358,341957
1013.15,0.084062,412923,340257
1016.89,0.084736,411526,338580
1020.63,0.084539,409066,336709
1024.36,0.084358,406777,334964
1028.09,0.083674,404427,333554
1031.82,0.083577,401911,331553
1036.78,0.083388,398410,328808
1040.49,0.084037,396204,326499
1044.2,0.083037,394236,325626
1047.91,0.083054,392042,323801
1051.61,0.082946,389823,322049
1055.31,0.082865,388234,320796
1059,0.082610,387599,320459
1063.92,0.081252,386688,320707
1067.61,0.080507,386598,321183
1071.29,0.079500,387377,322577
1074.96,0.079372,388536,323638
1078.63,0.078490,389855,325397
1082.3,0.078213,391215,326740
1085.96,0.076748,393215,329520
1090.84,0.076355,396270,332381
1094.49,0.076051,398760,334704
1098.14,0.074881,400987,337481
1101.79,0.074797,403477,339642
1105.43,0.074109,406116,342406
1109.06,0.073269,407701,344408
1112.7,0.073295,409859,346210
1117.53,0.072233,412494,349289
1121.15,0.073292,414909,350478
1124.77,0.073887,416559,351390
1128.38,0.074263,418532,352749
1131.99,0.075771,419956,352722
1135.6,0.076718,421946,353622
1139.2,0.078471,423881,353812
1143.99,0.080547,426786,354538
1147.58,0.081053,428617,355645
1151.17,0.081596,431169,357315
1154.75,0.082292,433579,358737
1158.33,0.083873,436264,359647
1161.91,0.085518,439132,360643
1165.48,0.087887,442389,361341
1169.04,0.090517,446101,362173
1173.79,0.093238,451929,364613
1177.34,0.095456,456026,366044
1180.9,0.097475,461306,368565
1184.44,0.099887,467657,371570
1187.99,0.100149,473969,376358
1191.52,0.100209,479856,380980
1195.06,0.100608,487372,386592
1199.76,0.099817,497347,395223
1203.29,0.098933,504311,401574
1206.81,0.098145,511507,408044
1210.33,0.097574,519078,414628
1213.84,0.097687,527163,420977
1217.35,0.096698,534208,427575
1220.85,0.095800,540472,433484
1225.51,0.095069,549929,441812
1229.01,0.094767,556888,447714
1232.5,0.094143,562180,452619
1235.98,0.093805,567975,457640
1239.46,0.092764,574815,464263
1242.94,0.091420,582782,472157
1246.41,0.090953,591476,479716
1251.03,0.091018,604016,489813
1254.5,0.091377,612289,496112
1257.96,0.091780,619125,501185
1261.41,0.091958,624551,505370
1264.86,0.092316,629900,509279
1268.31,0.093212,634345,511816
1271.75,0.093794,638574,514538
1276.33,0.093828,642499,517660
1279.76,0.093947,645905,520261
1283.19,0.093331,648307,522938
1286.61,0.092717,650446,525405
1290.03,0.092265,652132,527316
1293.44,0.091980,653907,529098
1296.85,0.091883,655963,530880
1301.39,0.091924,657349,531951
1304.8,0.091542,657558,532589
1308.19,0.091891,658515,532935
1311.58,0.091905,658804,533152
1314.97,0.092208,659011,532948
1318.36,0.092768,658272,531664
1321.73,0.093065,658022,531099
1326.23,0.093911,657870,529943
1329.6,0.094587,656482,528002
1332.97,0.095145,654926,526075
1336.33,0.095912,653727,524185
1339.69,0.097504,652497,521284
1343.04,0.099087,649913,517331
1346.39,0.100735,647671,513594
1349.73,0.103017,645338,509061
1354.18,0.105655,641175,502715
1357.52,0.107512,638376,498385
1360.85,0.109364,635805,494265
1364.17,0.111470,633413,490024
1367.49,0.113881,631026,485474
1370.81,0.115975,628050,480861
1374.12,0.117747,625034,476603
1378.54,0.120768,620272,469693
1381.84,0.123610,616892,464087
1385.14,0.126167,613613,458910
1388.43,0.129818,611526,453521
1391.72,0.134017,610663,448523
1395.01,0.137788,610634,444624
1398.29,0.142032,611700,441069
1402.66,0.147632,614051,437092
1405.93,0.152473,616268,433807
1409.2,0.157152,617795,430222
1412.46,0.160984,618872,427186
1415.72,0.165183,619795,423706
1418.98,0.168663,620495,420800
1422.23,0.171874,621087,418098
1426.56,0.175683,621375,414640
1429.8,0.178149,621616,412452
1433.04,0.180524,622129,410541
1436.27,0.182968,621526,407841
1439.5,0.184731,621113,405919
1442.72,0.187324,620921,403378
1445.94,0.189647,620270,400806
1450.23,0.193061,618860,396763
1453.44,0.196501,617697,392893
1456.64,0.199146,616264,389602
1459.85,0.201539,614413,386297
1463.04,0.204873,612307,382029
1466.24,0.207988,610032,377889
1469.43,0.212397,607345,372425
1473.67,0.219010,603789,364649
1476.85,0.224150,601175,358799
1480.02,0.230375,597737,351670
1483.19,0.237270,594479,344244
1486.36,0.243852,591232,337214
1489.52,0.248409,587853,331787
1492.68,0.251524,583875,327187
1496.89,0.253846,578062,322202
1500.03,0.254021,574159,319898
1503.18,0.254266,570285,317560
1506.32,0.253253,565444,315600
1509.45,0.251868,560571,313879
1512.58,0.250591,555821,312136
1515.71,0.248086,550344,310848
1519.87,0.244814,543983,309579
1522.99,0.242573,538764,308195
1526.1,0.240305,533692,306892
1529.21,0.237312,527902,305662
1532.32,0.233755,521886,304664
1535.42,0.231170,515888,302960
1538.51,0.228491,509987,301348
1541.6,0.225586,503936,299771
1545.72,0.221302,494694,297190
1548.8,0.218100,488378,295567
1551.88,0.216575,481832,292631
1554.95,0.214410,474989,289917
1558.02,0.212901,467818,286534
1561.08,0.212173,460730,282666
1564.15,0.211842,454170,278854
1568.22,0.210244,444181,273726
1571.27,0.209458,436947,269756
1574.32,0.208350,429598,265896
1577.36,0.207516,422039,261720
1580.4,0.206181,414375,257758
1583.43,0.204759,406354,253598
1586.46,0.203755,398475,249256
1590.49,0.201683,388982,244482
1593.51,0.199123,380708,240696
1596.53,0.197007,372727,236801
1599.54,0.196461,365060,232222
1602.55,0.193696,357543,228893
1605.55,0.191755,349495,224743
1608.55,0.190346,341154,220092
1612.54,0.188276,330877,214482
1615.53,0.186102,322904,210364
1618.51,0.185426,315116,205610
1621.49,0.184273,307217,200989
1624.47,0.183217,299481,196405
1627.44,0.182038,292112,192093
1630.41,0.180458,284245,187601
1634.36,0.180293,274079,180960
1637.32,0.179566,266916,176526
1640.27,0.178875,259612,171969
1643.22,0.178354,251804,166997
1646.16,0.176990,244348,162562
1649.1,0.176058,236703,157814
1652.04,0.174055,228171,152829
1655.95,0.171984,215408,144970
1658.88,0.167900,204937,139226
1661.8,0.162999,193395,132876
1664.72,0.153811,179728,126126
1667.63,0.142156,163642,117961
1670.54,0.126064,146312,109450
1673.44,0.110304,128451,99640
1677.31,0.088372,105080,85733
1680.21,0.078961,88906,74126
1683.1,0.070908,75033,63730
1685.99,0.071491,63520,53879
1688.87,0.072946,53714,45409
1691.75,0.079103,45653,38051
1694.62,0.085299,39137,32158
1697.49,0.089102,33776,27511
1701.31,0.091529,28175,22821

File: Column 1_050620_20150331_123308.csv
Method:,Column 1,,
Host Date-Time:,31/3/15 @ 12:33:8,,
Header Version:,1,,
System Temp (C):,34.14,,
Detector Temp (C):,35.01,,
Humidity (%):,1.61,,
Lamp PD:,3818,,
Shift Vector Coefficients:,-10.5391,0.0761263,-0.000134223,,
Pixel to Wavelength Coefficients:,1775.68,-0.916766,-0.000235065,,
Serial Number:,5510004,,
Scan Config Name:,Column 1,,
Scan Config Type:,Slew,,
Section 1,,
Start wavelength (nm):,900,,
End wavelength (nm):,1700,,
Pattern Pixel Width (nm):,   7.03,,,,
Exposure (ms):,  0.635,,,,
Digital Resolution:,228,,
Num Repeats:,6,,
PGA Gain:,64,,
Total Measurement Time in sec:,  2.726,,
Wavelength (nm),Absorbance (AU),Reference Signal (unitless),Sample Signal (unitless)
901.51,0.069322,108485,92480
905.376,0.073192,121306,102492
909.237,0.077203,131909,110426
913.095,0.077478,143299,119885
916.948,0.079790,156982,130635
922.079,0.080238,179937,149583
925.923,0.082120,200504,165960
929.762,0.082808,222660,184007
933.597,0.082794,244426,202001
937.427,0.080957,263972,219079
941.254,0.080394,281845,234216
945.076,0.078729,297271,247984
950.165,0.078556,315605,263383
953.978,0.077655,328029,274320
957.786,0.077562,340470,284785
961.59,0.077692,352317,294606
965.389,0.077896,363056,303443
969.185,0.077897,373162,311889
972.976,0.078054,382632,319689
976.763,0.078554,391202,326473
981.806,0.078730,400190,333838
985.583,0.080043,406088,337736
989.355,0.080260,410162,340954
993.124,0.080427,412868,343071
996.888,0.080793,414263,343940
1000.65,0.082162,415476,343862
1004.4,0.082400,415479,343676
1009.41,0.083879,414358,341583
1013.15,0.084749,412923,339719
1016.89,0.084387,411526,338852
1020.63,0.084705,409066,336580
1024.36,0.084941,406777,334515
1028.09,0.084555,404427,332878
1031.82,0.084840,401911,330590
1036.78,0.084148,398410,328233
1040.49,0.083392,396204,326984
1044.2,0.084056,394236,324863
1047.91,0.083594,392042,323399
1051.61,0.083325,389823,321768
1055.31,0.082315,388234,321202
1059,0.082135,387599,320810
1063.92,0.081454,386688,320558
1067.61,0.080783,386598,320979
1071.29,0.080258,387377,322015
1074.96,0.080176,388536,323039
1078.63,0.079579,389855,324582
1082.3,0.078253,391215,326710
1085.96,0.077741,393215,328768
1090.84,0.076657,396270,332150
1094.49,0.076125,398760,334647
1098.14,0.075765,400987,336795
1101.79,0.075378,403477,339188
1105.43,0.074501,406116,342097
1109.06,0.074062,407701,343779
1112.7,0.073910,409859,345720
1117.53,0.073352,412494,348390
1121.15,0.073447,414909,350353
1124.77,0.074147,416559,351180
1128.38,0.075309,418532,351900
1131.99,0.075888,419956,352627
1135.6,0.077648,421946,352865
1139.2,0.078621,423881,353690
1143.99,0.080279,426786,354757
1147.58,0.081640,428617,355164
1151.17,0.082340,431169,356704
1154.75,0.083041,433579,358119
1158.33,0.084933,436264,358770
1161.91,0.086272,439132,360017
1165.48,0.088490,442389,360840
1169.04,0.090412,446101,362261
1173.79,0.094228,451929,363783
1177.34,0.096156,456026,365455
1180.9,0.098036,461306,368089
1184.44,0.099571,467657,371840
1187.99,0.101095,473969,375539
1191.52,0.100713,479856,380538
1195.06,0.101070,487372,386181
1199.76,0.100071,497347,394992
1203.29,0.099451,504311,401095
1206.81,0.098978,511507,407262
1210.33,0.098342,519078,413895
1213.84,0.097676,527163,420987
1217.35,0.097047,534208,427232
1220.85,0.096672,540472,432615
1225.51,0.096913,549929,439940
1229.01,0.095452,556888,447009
1232.5,0.094480,562180,452268
1235.98,0.093893,567975,457548
1239.46,0.092998,574815,464013
1242.94,0.091911,582782,471623
1246.41,0.091359,591476,479268
1251.03,0.091471,604016,489303
1254.5,0.091953,612289,495454
1257.96,0.092130,619125,500781
1261.41,0.092611,624551,504611
1264.86,0.093213,629900,508228
1268.31,0.093343,634345,511661
1271.75,0.094191,638574,514068
1276.33,0.094466,642499,516900
1279.76,0.094278,645905,519865
1283.19,0.093699,648307,522495
1286.61,0.093788,650446,524111
1290.03,0.092954,652132,526479
1293.44,0.092520,653907,528440
1296.85,0.092191,655963,530504
1301.39,0.091584,657349,532368
1304.8,0.091856,657558,532204
1308.19,0.092297,658515,532437
1311.58,0.092089,658804,532927
1314.97,0.092730,659011,532308
1318.36,0.092930,658272,531466
1321.73,0.093026,658022,531147
1326.23,0.094036,657870,529791
1329.6,0.094480,656482,528132
1332.97,0.095264,654926,525930
1336.33,0.096661,653727,523281
1339.69,0.097817,652497,520908
1343.04,0.099565,649913,516761
1346.39,0.101412,647671,512794
1349.73,0.103215,645338,508829
1354.18,0.106357,641175,501903
1357.52,0.108407,638376,497358
1360.85,0.110385,635805,493104
1364.17,0.111822,633413,489627
1367.49,0.114228,631026,485087
1370.81,0.116092,628050,480731
1374.12,0.118327,625034,475967
1378.54,0.121087,620272,469348
1381.84,0.124010,616892,463659
1385.14,0.127074,613613,457953
1388.43,0.130551,611526,452756
1391.72,0.134302,610663,448229
1395.01,0.138189,610634,444214
1398.29,0.142092,611700,441008
1402.66,0.148590,614051,436128
1405.93,0.153335,616268,432947
1409.2,0.157507,617795,429870
1412.46,0.161871,618872,426314
1415.72,0.165932,619795,422976
1418.98,0.168849,620495,420619
1422.23,0.172523,621087,417474
1426.56,0.176340,621375,414013
1429.8,0.178425,621616,412190
1433.04,0.180983,622129,410107
1436.27,0.183127,621526,407692
1439.5,0.185234,621113,405449
1442.72,0.187949,620921,402798
1445.94,0.190042,620270,400441
1450.23,0.193346,618860,396503
1453.44,0.196050,617697,393301
1456.64,0.199440,616264,389338
1459.85,0.201773,614413,386089
1463.04,0.204934,612307,381975
1466.24,0.208703,610032,377268
1469.43,0.212949,607345,371952
1473.67,0.218813,603789,364815
1476.85,0.225040,601175,358064
1480.02,0.230565,597737,351516
1483.19,0.237617,594479,343969
1486.36,0.244440,591232,336758
1489.52,0.249269,587853,331131
1492.68,0.252316,583875,326591
1496.89,0.254174,578062,321959
1500.03,0.254516,574159,319533
1503.18,0.254909,570285,317090
1506.32,0.253573,565444,315367
1509.45,0.251903,560571,313854
1512.58,0.250953,555821,311876
1515.71,0.248208,550344,310761
1519.87,0.244814,543983,309579
1522.99,0.242439,538764,308290
1526.1,0.240719,533692,306600
1529.21,0.237754,527902,305351
1532.32,0.234515,521886,304131
1535.42,0.231425,515888,302782
1538.51,0.228949,509987,301030
1541.6,0.225579,503936,299776
1545.72,0.222078,494694,296660
1548.8,0.218852,488378,295056
1551.88,0.216736,481832,292523
1554.95,0.215110,474989,289450
1558.02,0.212798,467818,286602
1561.08,0.212640,460730,282362
1564.15,0.212145,454170,278659
1568.22,0.210793,444181,273380
1571.27,0.210476,436947,269124
1574.32,0.209264,429598,265337
1577.36,0.207478,422039,261743
1580.4,0.207564,414375,256939
1583.43,0.205987,406354,252882
1586.46,0.204026,398475,249101
1590.49,0.202593,388982,243970
1593.51,0.200124,380708,240142
1596.53,0.198497,372727,235990
1599.54,0.196614,365060,232140
1602.55,0.194644,357543,228394
1605.55,0.192076,349495,224577
1608.55,0.190862,341154,219831
1612.54,0.188819,330877,214214
1615.53,0.187956,322904,209468
1618.51,0.186037,315116,205321
1621.49,0.185337,307217,200497
1624.47,0.183566,299481,196247
1627.44,0.182950,292112,191690
1630.41,0.182509,284245,186717
1634.36,0.181158,274079,180600
1637.32,0.180029,266916,176338
1640.27,0.179585,259612,171688
1643.22,0.178429,251804,166968
1646.16,0.177003,244348,162557
1649.1,0.176053,236703,157816
1652.04,0.176554,228171,151952
1655.95,0.171891,215408,145001
1658.88,0.168731,204937,138960
1661.8,0.162166,193395,133131
1664.72,0.156003,179728,125491
1667.63,0.142989,163642,117735
1670.54,0.127304,146312,109138
1673.44,0.110374,128451,99624
1677.31,0.091851,105080,85049
1680.21,0.077475,88906,74380
1683.1,0.069717,75033,63905
1685.99,0.076240,63520,53293
1688.87,0.079586,53714,44720
1691.75,0.078658,45653,38090
1694.62,0.084853,39137,32191
1697.49,0.085502,33776,27740
1701.31,0.100256,28175,22367

File: Column 1_050620_20150331_123314.csv
Method:,Column 1,,
Host Date-Time:,31/3/15 @ 12:33:14,,
Header Version:,1,,
System Temp (C):,34.11,,
Detector Temp (C):,35.05,,
Humidity (%):,1.56,,
Lamp PD:,3818,,
Shift Vector Coefficients:,-10.5391,0.0761263,-0.000134223,,
Pixel to Wavelength Coefficients:,1775.68,-0.916766,-0.000235065,,
Serial Number:,5510004,,
Scan Config Name:,Column 1,,
Scan Config Type:,Slew,,
Section 1,,
Start wavelength (nm):,900,,
End wavelength (nm):,1700,,
Pattern Pixel Width (nm):,   7.03,,,,
Exposure (ms):,  0.635,,,,
Digital Resolution:,228,,
Num Repeats:,6,,
PGA Gain:,64,,
Total Measurement Time in sec:,  2.678,,
Wavelength (nm),Absorbance (AU),Reference Signal (unitless),Sample Signal (unitless)
901.51,0.071252,108485,92070
905.376,0.076429,121306,101731
909.237,0.077573,131909,110332
913.095,0.078109,143299,119711
916.948,0.079269,156982,130792
922.079,0.080067,179937,149642
925.923,0.083307,200504,165507
929.762,0.082721,222660,184044
933.597,0.083637,244426,201609
937.427,0.081108,263972,219003
941.254,0.080752,281845,234023
945.076,0.079862,297271,247338
950.165,0.077774,315605,263858
953.978,0.077512,328029,274410
957.786,0.077884,340470,284574
961.59,0.077856,352317,294495
965.389,0.078332,363056,303139
969.185,0.077924,373162,311870
972.976,0.078219,382632,319567
976.763,0.078616,391202,326426
981.806,0.078720,400190,333846
985.583,0.079502,406088,338157
989.355,0.079940,410162,341205
993.124,0.079992,412868,343415
996.888,0.080427,414263,344230
1000.65,0.082000,415476,343990
1004.4,0.083125,415479,343103
1009.41,0.083935,414358,341539
1013.15,0.084451,412923,339952
1016.89,0.085086,411526,338307
1020.63,0.084970,409066,336375
1024.36,0.084958,406777,334502
1028.09,0.084868,404427,332638
1031.82,0.084347,401911,330966
1036.78,0.084373,398410,328063
1040.49,0.084115,396204,326440
1044.2,0.083833,394236,325030
1047.91,0.083284,392042,323630
1051.61,0.082967,389823,322033
1055.31,0.083042,388234,320665
1059,0.082292,387599,320694
1063.92,0.081642,386688,320419
1067.61,0.081205,386598,320667
1071.29,0.080838,387377,321585
1074.96,0.080186,388536,323032
1078.63,0.079391,389855,324722
1082.3,0.078240,391215,326720
1085.96,0.078068,393215,328520
1090.84,0.077227,396270,331714
1094.49,0.076714,398760,334193
1098.14,0.075903,400987,336688
1101.79,0.075374,403477,339191
1105.43,0.075139,406116,341595
1109.06,0.074210,407701,343662
1112.7,0.073606,409859,345962
1117.53,0.073692,412494,348117
1121.15,0.074355,414909,349621
1124.77,0.074425,416559,350955
1128.38,0.075456,418532,351781
1131.99,0.075812,419956,352689
1135.6,0.077456,421946,353021
1139.2,0.078657,423881,353661
1143.99,0.080768,426786,354358
1147.58,0.081625,428617,355177
1151.17,0.082489,431169,356581
1154.75,0.083239,433579,357956
1158.33,0.084089,436264,359468
1161.91,0.086008,439132,360236
1165.48,0.088330,442389,360973
1169.04,0.090356,446101,362307
1173.79,0.093813,451929,364131
1177.34,0.096164,456026,365448
1180.9,0.098211,461306,367941
1184.44,0.100074,467657,371410
1187.99,0.101646,473969,375063
1191.52,0.101010,479856,380278
1195.06,0.101142,487372,386117
1199.76,0.100389,497347,394703
1203.29,0.099384,504311,401157
1206.81,0.098930,511507,407307
1210.33,0.098388,519078,413852
1213.84,0.098146,527163,420532
1217.35,0.097612,534208,426676
1220.85,0.096632,540472,432654
1225.51,0.095972,549929,440894
1229.01,0.095294,556888,447171
1232.5,0.094720,562180,452018
1235.98,0.094189,567975,457236
1239.46,0.093390,574815,463594
1242.94,0.092017,582782,471508
1246.41,0.092364,591476,478160
1251.03,0.091008,604016,489824
1254.5,0.091745,612289,495691
1257.96,0.092052,619125,500871
1261.41,0.092809,624551,504381
1264.86,0.092947,629900,508539
1268.31,0.093491,634345,511487
1271.75,0.094436,638574,513778
1276.33,0.094463,642499,516903
1279.76,0.094386,645905,519736
1283.19,0.093887,648307,522268
1286.61,0.093403,650446,524576
1290.03,0.093115,652132,526285
1293.44,0.092240,653907,528781
1296.85,0.092142,655963,530564
1301.39,0.092175,657349,531644
1304.8,0.091812,657558,532258
1308.19,0.092190,658515,532569
1311.58,0.092464,658804,532467
1314.97,0.092598,659011,532470
1318.36,0.093295,658272,531020
1321.73,0.093357,658022,530742
1326.23,0.094338,657870,529422
1329.6,0.094934,656482,527581
1332.97,0.095599,654926,525525
1336.33,0.096346,653727,523661
1339.69,0.097895,652497,520815
1343.04,0.099494,649913,516846
1346.39,0.101710,647671,512442
1349.73,0.103321,645338,508705
1354.18,0.106331,641175,501933
1357.52,0.107851,638376,497996
1360.85,0.110262,635805,493244
1364.17,0.112089,633413,489326
1367.49,0.113970,631026,485375
1370.81,0.116370,628050,480423
1374.12,0.118432,625034,475852
1378.54,0.121319,620272,469098
1381.84,0.123599,616892,464099
1385.14,0.126875,613613,458162
1388.43,0.130451,611526,452860
1391.72,0.134472,610663,448053
1395.01,0.138785,610634,443605
1398.29,0.142524,611700,440570
1402.66,0.148164,614051,436556
1405.93,0.153319,616268,432963
1409.2,0.157295,617795,430080
1412.46,0.161557,618872,426623
1415.72,0.165926,619795,422982
1418.98,0.168893,620495,420577
1422.23,0.172233,621087,417753
1426.56,0.176319,621375,414033
1429.8,0.179181,621616,411473
1433.04,0.181057,622129,410037
1436.27,0.183363,621526,407471
1439.5,0.185259,621113,405426
1442.72,0.187495,620921,403219
1445.94,0.190465,620270,400051
1450.23,0.193614,618860,396258
1453.44,0.196385,617697,392998
1456.64,0.200043,616264,388798
1459.85,0.202407,614413,385526
1463.04,0.205178,612307,381761
1466.24,0.208912,610032,377086
1469.43,0.212853,607345,372034
1473.67,0.219265,603789,364435
1476.85,0.224605,601175,358423
1480.02,0.231262,597737,350952
1483.19,0.237865,594479,343773
1486.36,0.243873,591232,337198
1489.52,0.248502,587853,331716
1492.68,0.252033,583875,326804
1496.89,0.254503,578062,321715
1500.03,0.255104,574159,319101
1503.18,0.254924,570285,317079
1506.32,0.253882,565444,315143
1509.45,0.252356,560571,313527
1512.58,0.251810,555821,311261
1515.71,0.248820,550344,310323
1519.87,0.245409,543983,309155
1522.99,0.243849,538764,307291
1526.1,0.240816,533692,306531
1529.21,0.237764,527902,305344
1532.32,0.235208,521886,303646
1535.42,0.232080,515888,302326
1538.51,0.229330,509987,300766
1541.6,0.226440,503936,299182
1545.72,0.222253,494694,296540
1548.8,0.220069,488378,294230
1551.88,0.217357,481832,292105
1554.95,0.215087,474989,289465
1558.02,0.213439,467818,286179
1561.08,0.211883,460730,282855
1564.15,0.212167,454170,278645
1568.22,0.210849,444181,273345
1571.27,0.211117,436947,268727
1574.32,0.208880,429598,265572
1577.36,0.208348,422039,261219
1580.4,0.207744,414375,256832
1583.43,0.206404,406354,252639
1586.46,0.204542,398475,248805
1590.49,0.201500,388982,244585
1593.51,0.200594,380708,239882
1596.53,0.198267,372727,236115
1599.54,0.196603,365060,232146
1602.55,0.194891,357543,228264
1605.55,0.193934,349495,223618
1608.55,0.191039,341154,219741
1612.54,0.189093,330877,214079
1615.53,0.187726,322904,209579
1618.51,0.187278,315116,204735
1621.49,0.185623,307217,200365
1624.47,0.184992,299481,195604
1627.44,0.183401,292112,191491
1630.41,0.182016,284245,186929
1634.36,0.181055,274079,180643
1637.32,0.181509,266916,175738
1640.27,0.179691,259612,171646
1643.22,0.179140,251804,166695
1646.16,0.177570,244348,162345
1649.1,0.177773,236703,157192
1652.04,0.176197,228171,152077
1655.95,0.174119,215408,144259
1658.88,0.170534,204937,138384
1661.8,0.163961,193395,132582
1664.72,0.155443,179728,125653
1667.63,0.143045,163642,117720
1670.54,0.129242,146312,108652
1673.44,0.111688,128451,99323
1677.31,0.093134,105080,84798
1680.21,0.079758,88906,73990
1683.1,0.072533,75033,63492
1685.99,0.074484,63520,53509
1688.87,0.077870,53714,44897
1691.75,0.083658,45653,37654
1694.62,0.090502,39137,31775
1697.49,0.090272,33776,27437
1701.31,0.097971,28175,22485