Folder: textile_sorting_NIRSCAN_/samples/wool/wool-000811 (part 47)

File: Column 1_050556_20150331_120251.csv
Method:,Column 1,,
Host Date-Time:,31/3/15 @ 12:2:51,,
Header Version:,1,,
System Temp (C):,33.54,,
Detector Temp (C):,32.76,,
Humidity (%):,2.44,,
Lamp PD:,3820,,
Shift Vector Coefficients:,-10.5391,0.0761263,-0.000134223,,
Pixel to Wavelength Coefficients:,1775.68,-0.916766,-0.000235065,,
Serial Number:,5510004,,
Scan Config Name:,Column 1,,
Scan Config Type:,Slew,,
Section 1,,
Start wavelength (nm):,900,,
End wavelength (nm):,1700,,
Pattern Pixel Width (nm):,   7.03,,,,
Exposure (ms):,  0.635,,,,
Digital Resolution:,228,,
Num Repeats:,6,,
PGA Gain:,64,,
Total Measurement Time in sec:,  2.676,,
Wavelength (nm),Absorbance (AU),Reference Signal (unitless),Sample Signal (unitless)
901.51,0.032824,108485,100588
905.376,0.039370,121306,110793
909.237,0.041546,131909,119875
913.095,0.043330,143299,129692
916.948,0.042663,156982,142294
922.079,0.044366,179937,162463
925.923,0.045223,200504,180676
929.762,0.044933,222660,200775
933.597,0.046100,244426,219810
937.427,0.045662,263972,237627
941.254,0.046094,281845,253464
945.076,0.045501,297271,267702
950.165,0.045734,315605,284060
953.978,0.045265,328029,295561
957.786,0.045432,340470,306653
961.59,0.045798,352317,317056
965.389,0.046100,363056,326493
969.185,0.046615,373162,335183
972.976,0.046822,382632,343526
976.763,0.047391,391202,350760
981.806,0.048103,400190,358231
985.583,0.048995,406088,362765
989.355,0.049263,410162,366178
993.124,0.049962,412868,368001
996.888,0.050233,414263,369014
1000.65,0.050778,415476,369631
1004.4,0.053099,415479,367663
1009.41,0.054391,414358,365582
1013.15,0.054133,412923,364532
1016.89,0.054572,411526,362932
1020.63,0.054706,409066,360651
1024.36,0.054587,406777,358731
1028.09,0.054230,404427,356952
1031.82,0.054083,401911,354852
1036.78,0.053817,398410,351976
1040.49,0.053406,396204,350359
1044.2,0.053580,394236,348479
1047.91,0.052648,392042,347284
1051.61,0.051921,389823,345897
1055.31,0.051481,388234,344836
1059,0.050991,387599,344661
1063.92,0.049858,386688,344749
1067.61,0.049405,386598,345028
1071.29,0.048892,387377,346132
1074.96,0.048595,388536,347405
1078.63,0.047853,389855,349181
1082.3,0.046507,391215,351486
1085.96,0.045907,393215,353772
1090.84,0.045826,396270,356587
1094.49,0.045380,398760,359196
1098.14,0.044865,400987,361631
1101.79,0.044585,403477,364111
1105.43,0.044518,406116,366549
1109.06,0.044089,407701,368343
1112.7,0.043626,409859,370688
1117.53,0.044080,412494,372681
1121.15,0.045114,414909,373972
1124.77,0.045277,416559,375318
1128.38,0.046435,418532,376092
1131.99,0.048335,419956,375724
1135.6,0.050017,421946,376045
1139.2,0.052142,423881,375926
1143.99,0.053852,426786,377015
1147.58,0.055407,428617,377279
1151.17,0.056782,431169,378325
1154.75,0.058018,433579,379359
1158.33,0.060293,436264,379714
1161.91,0.061646,439132,381021
1165.48,0.064368,442389,381449
1169.04,0.066770,446101,382528
1173.79,0.070495,451929,384216
1177.34,0.072546,456026,385872
1180.9,0.075165,461306,387993
1184.44,0.077056,467657,391626
1187.99,0.077661,473969,396359
1191.52,0.077781,479856,401171
1195.06,0.077233,487372,407969
1199.76,0.076356,497347,417161
1203.29,0.075362,504311,423971
1206.81,0.074544,511507,430832
1210.33,0.074021,519078,437735
1213.84,0.072942,527163,445659
1217.35,0.072317,534208,452265
1220.85,0.071664,540472,458257
1225.51,0.070763,549929,467244
1229.01,0.070152,556888,473823
1232.5,0.069330,562180,479231
1235.98,0.069019,567975,484518
1239.46,0.068089,574815,491404
1242.94,0.066830,582782,499662
1246.41,0.066205,591476,507846
1251.03,0.065862,604016,519023
1254.5,0.066307,612289,525593
1257.96,0.066640,619125,531053
1261.41,0.067357,624551,534824
1264.86,0.067743,629900,538925
1268.31,0.067986,634345,542425
1271.75,0.069417,638574,544245
1276.33,0.069596,642499,547364
1279.76,0.069431,645905,550475
1283.19,0.068678,648307,553481
1286.61,0.068355,650446,555720
1290.03,0.068002,652132,557614
1293.44,0.067576,653907,559680
1296.85,0.067636,655963,561362
1301.39,0.067589,657349,562610
1304.8,0.067375,657558,563066
1308.19,0.067316,658515,563962
1311.58,0.067787,658804,563598
1314.97,0.068559,659011,562773
1318.36,0.068705,658272,561954
1321.73,0.069370,658022,560881
1326.23,0.070678,657870,559065
1329.6,0.071283,656482,557109
1332.97,0.072364,654926,554407
1336.33,0.073706,653727,551684
1339.69,0.075728,652497,548088
1343.04,0.077200,649913,544071
1346.39,0.079258,647671,539630
1349.73,0.081639,645338,534747
1354.18,0.084785,641175,527462
1357.52,0.087371,638376,522042
1360.85,0.089369,635805,517553
1364.17,0.091887,633413,512625
1367.49,0.094284,631026,507882
1370.81,0.096371,628050,503064
1374.12,0.099418,625034,497148
1378.54,0.102742,620272,489599
1381.84,0.106174,616892,483098
1385.14,0.110179,613613,476119
1388.43,0.115455,611526,468770
1391.72,0.120403,610663,462806
1395.01,0.125224,610634,457675
1398.29,0.130839,611700,452584
1402.66,0.138510,614051,446369
1405.93,0.145249,616268,441083
1409.2,0.150660,617795,436701
1412.46,0.155805,618872,432311
1415.72,0.160274,619795,428523
1418.98,0.165114,620495,424252
1422.23,0.169385,621087,420501
1426.56,0.173618,621375,416616
1429.8,0.176323,621616,414190
1433.04,0.179329,622129,411672
1436.27,0.181541,621526,409184
1439.5,0.183961,621113,406640
1442.72,0.186132,620921,404487
1445.94,0.189021,620270,401384
1450.23,0.192605,618860,397180
1453.44,0.195609,617697,393701
1456.64,0.198478,616264,390201
1459.85,0.200905,614413,386861
1463.04,0.204256,612307,382572
1466.24,0.207361,610032,378435
1469.43,0.210674,607345,373905
1473.67,0.215947,603789,367230
1476.85,0.220751,601175,361618
1480.02,0.226901,597737,354494
1483.19,0.233493,594479,347251
1486.36,0.239034,591232,340976
1489.52,0.244067,587853,335121
1492.68,0.247394,583875,330313
1496.89,0.249522,578062,325426
1500.03,0.250384,574159,322588
1503.18,0.250880,570285,320046
1506.32,0.249688,565444,318201
1509.45,0.248131,560571,316592
1512.58,0.246515,555821,315079
1515.71,0.244272,550344,313590
1519.87,0.240620,543983,312583
1522.99,0.238575,538764,311045
1526.1,0.235474,533692,310325
1529.21,0.233031,527902,308690
1532.32,0.229654,521886,307554
1535.42,0.226762,515888,306051
1538.51,0.223989,509987,304488
1541.6,0.221142,503936,302854
1545.72,0.216546,494694,300463
1548.8,0.212870,488378,299148
1551.88,0.210253,481832,296922
1554.95,0.208506,474989,293885
1558.02,0.206215,467818,290979
1561.08,0.205200,460730,287241
1564.15,0.204252,454170,283770
1568.22,0.202361,444181,278740
1571.27,0.202369,436947,274195
1574.32,0.201118,429598,270361
1577.36,0.199603,422039,266532
1580.4,0.197945,414375,262693
1583.43,0.197132,406354,258091
1586.46,0.194243,398475,254776
1590.49,0.192507,388982,249702
1593.51,0.190670,380708,245427
1596.53,0.188116,372727,241699
1599.54,0.186450,365060,237637
1602.55,0.182958,357543,234623
1605.55,0.181505,349495,230110
1608.55,0.179432,341154,225693
1612.54,0.176540,330877,220357
1615.53,0.174937,322904,215842
1618.51,0.174433,315116,210881
1621.49,0.172290,307217,206612
1624.47,0.171160,299481,201934
1627.44,0.170149,292112,197424
1630.41,0.167850,284245,193127
1634.36,0.167018,274079,186577
1637.32,0.165938,266916,182153
1640.27,0.166084,259612,177109
1643.22,0.164326,251804,172479
1646.16,0.163683,244348,167620
1649.1,0.163487,236703,162449
1652.04,0.162048,228171,157113
1655.95,0.159470,215408,149208
1658.88,0.157126,204937,142723
1661.8,0.152188,193395,136225
1664.72,0.146894,179728,128151
1667.63,0.138925,163642,118842
1670.54,0.128871,146312,108745
1673.44,0.117915,128451,97909
1677.31,0.105777,105080,82365
1680.21,0.099291,88906,70736
1683.1,0.096219,75033,60122
1685.99,0.104279,63520,49961
1688.87,0.107117,53714,41973
1691.75,0.113853,45653,35125
1694.62,0.116931,39137,29899
1697.49,0.115057,33776,25915
1701.31,0.118963,28175,21424

File: Column 1_050557_20150331_120302.csv
Method:,Column 1,,
Host Date-Time:,31/3/15 @ 12:3:2,,
Header Version:,1,,
System Temp (C):,33.54,,
Detector Temp (C):,32.76,,
Humidity (%):,2.34,,
Lamp PD:,3820,,
Shift Vector Coefficients:,-10.5391,0.0761263,-0.000134223,,
Pixel to Wavelength Coefficients:,1775.68,-0.916766,-0.000235065,,
Serial Number:,5510004,,
Scan Config Name:,Column 1,,
Scan Config Type:,Slew,,
Section 1,,
Start wavelength (nm):,900,,
End wavelength (nm):,1700,,
Pattern Pixel Width (nm):,   7.03,,,,
Exposure (ms):,  0.635,,,,
Digital Resolution:,228,,
Num Repeats:,6,,
PGA Gain:,64,,
Total Measurement Time in sec:,  2.667,,
Wavelength (nm),Absorbance (AU),Reference Signal (unitless),Sample Signal (unitless)
901.51,0.034047,108485,100305
905.376,0.040406,121306,110529
909.237,0.041828,131909,119797
913.095,0.043487,143299,129645
916.948,0.042605,156982,142313
922.079,0.044353,179937,162468
925.923,0.045805,200504,180434
929.762,0.047373,222660,199650
933.597,0.046705,244426,219504
937.427,0.046269,263972,237295
941.254,0.046468,281845,253246
945.076,0.046376,297271,267163
950.165,0.045783,315605,284028
953.978,0.045615,328029,295323
957.786,0.045780,340470,306407
961.59,0.046092,352317,316841
965.389,0.046795,363056,325971
969.185,0.046820,373162,335025
972.976,0.047244,382632,343192
976.763,0.047626,391202,350570
981.806,0.048427,400190,357964
985.583,0.049645,406088,362222
989.355,0.049654,410162,365849
993.124,0.049428,412868,368454
996.888,0.050552,414263,368743
1000.65,0.051775,415476,368783
1004.4,0.052432,415479,368228
1009.41,0.054251,414358,365700
1013.15,0.054512,412923,364214
1016.89,0.055451,411526,362198
1020.63,0.055467,409066,360020
1024.36,0.055173,406777,358248
1028.09,0.054865,404427,356431
1031.82,0.054433,401911,354566
1036.78,0.054138,398410,351716
1040.49,0.053663,396204,350151
1044.2,0.053220,394236,348768
1047.91,0.053069,392042,346947
1051.61,0.052755,389823,345233
1055.31,0.052054,388234,344381
1059,0.051269,387599,344440
1063.92,0.050498,386688,344241
1067.61,0.049665,386598,344822
1071.29,0.049598,387377,345570
1074.96,0.048616,388536,347388
1078.63,0.048060,389855,349014
1082.3,0.046908,391215,351162
1085.96,0.046774,393215,353066
1090.84,0.046067,396270,356389
1094.49,0.045787,398760,358860
1098.14,0.045771,400987,360877
1101.79,0.045348,403477,363472
1105.43,0.045421,406116,365788
1109.06,0.043973,407701,368442
1112.7,0.043905,409859,370450
1117.53,0.044394,412494,372412
1121.15,0.045601,414909,373553
1124.77,0.045798,416559,374868
1128.38,0.047320,418532,375326
1131.99,0.047979,419956,376032
1135.6,0.050064,421946,376004
1139.2,0.051956,423881,376087
1143.99,0.054552,426786,376407
1147.58,0.055499,428617,377199
1151.17,0.057079,431169,378067
1154.75,0.057915,433579,379449
1158.33,0.059602,436264,380318
1161.91,0.061610,439132,381053
1165.48,0.063866,442389,381890
1169.04,0.067677,446101,381730
1173.79,0.070908,451929,383851
1177.34,0.072748,456026,385693
1180.9,0.075204,461306,387958
1184.44,0.077304,467657,391402
1187.99,0.077737,473969,396290
1191.52,0.077744,479856,401206
1195.06,0.077769,487372,407466
1199.76,0.076153,497347,417356
1203.29,0.075206,504311,424124
1206.81,0.074766,511507,430611
1210.33,0.074104,519078,437652
1213.84,0.073334,527163,445257
1217.35,0.072535,534208,452038
1220.85,0.072170,540472,457723
1225.51,0.070710,549929,467301
1229.01,0.070105,556888,473874
1232.5,0.069621,562180,478911
1235.98,0.068782,567975,484783
1239.46,0.068086,574815,491408
1242.94,0.067026,582782,499436
1246.41,0.066223,591476,507825
1251.03,0.065868,604016,519016
1254.5,0.066038,612289,525919
1257.96,0.066628,619125,531068
1261.41,0.067182,624551,535039
1264.86,0.068091,629900,538494
1268.31,0.068713,634345,541517
1271.75,0.069446,638574,544209
1276.33,0.069669,642499,547272
1279.76,0.069671,645905,550171
1283.19,0.069196,648307,552821
1286.61,0.068781,650446,555175
1290.03,0.068542,652132,556921
1293.44,0.068148,653907,558944
1296.85,0.068091,655963,560774
1301.39,0.067440,657349,562802
1304.8,0.067499,657558,562905
1308.19,0.067713,658515,563447
1311.58,0.068121,658804,563165
1314.97,0.068192,659011,563249
1318.36,0.068989,658272,561586
1321.73,0.069742,658022,560400
1326.23,0.070671,657870,559074
1329.6,0.071751,656482,556509
1332.97,0.072411,654926,554346
1336.33,0.073880,653727,551463
1339.69,0.075870,652497,547909
1343.04,0.076991,649913,544333
1346.39,0.079443,647671,539401
1349.73,0.081899,645338,534427
1354.18,0.085188,641175,526973
1357.52,0.087572,638376,521800
1360.85,0.089336,635805,517592
1364.17,0.091924,633413,512582
1367.49,0.094403,631026,507743
1370.81,0.096693,628050,502691
1374.12,0.099646,625034,496887
1378.54,0.102601,620272,489758
1381.84,0.106357,616892,482894
1385.14,0.110573,613613,475687
1388.43,0.114862,611526,469411
1391.72,0.120060,610663,463171
1395.01,0.124742,610634,458183
1398.29,0.130954,611700,452464
1402.66,0.138396,614051,446487
1405.93,0.144630,616268,441712
1409.2,0.150339,617795,437024
1412.46,0.156071,618872,432046
1415.72,0.160879,619795,427926
1418.98,0.165203,620495,424165
1422.23,0.169289,621087,420594
1426.56,0.173308,621375,416913
1429.8,0.176568,621616,413956
1433.04,0.179483,622129,411526
1436.27,0.181649,621526,409082
1439.5,0.184240,621113,406378
1442.72,0.186599,620921,404052
1445.94,0.188705,620270,401676
1450.23,0.192461,618860,397312
1453.44,0.195117,617697,394147
1456.64,0.198237,616264,390418
1459.85,0.201101,614413,386687
1463.04,0.204028,612307,382773
1466.24,0.207092,610032,378670
1469.43,0.210486,607345,374067
1473.67,0.215883,603789,367284
1476.85,0.221490,601175,361003
1480.02,0.227343,597737,354134
1483.19,0.233767,594479,347032
1486.36,0.239433,591232,340663
1489.52,0.243721,587853,335388
1492.68,0.247676,583875,330099
1496.89,0.249833,578062,325193
1500.03,0.250550,574159,322465
1503.18,0.251097,570285,319886
1506.32,0.250054,565444,317933
1509.45,0.248798,560571,316106
1512.58,0.246998,555821,314729
1515.71,0.244671,550344,313302
1519.87,0.241212,543983,312157
1522.99,0.239007,538764,310736
1526.1,0.236087,533692,309887
1529.21,0.233112,527902,308632
1532.32,0.229893,521886,307385
1535.42,0.226993,515888,305888
1538.51,0.223564,509987,304786
1541.6,0.220074,503936,303600
1545.72,0.215826,494694,300961
1548.8,0.213252,488378,298885
1551.88,0.210487,481832,296762
1554.95,0.208586,474989,293831
1558.02,0.206105,467818,291053
1561.08,0.204985,460730,287383
1564.15,0.204482,454170,283620
1568.22,0.202676,444181,278538
1571.27,0.202160,436947,274327
1574.32,0.201401,429598,270185
1577.36,0.199952,422039,266318
1580.4,0.198453,414375,262386
1583.43,0.196789,406354,258295
1586.46,0.195079,398475,254286
1590.49,0.192636,388982,249628
1593.51,0.190879,380708,245309
1596.53,0.188461,372727,241507
1599.54,0.186463,365060,237630
1602.55,0.184259,357543,233921
1605.55,0.180796,349495,230486
1608.55,0.179706,341154,225551
1612.54,0.178161,330877,219536
1615.53,0.174336,322904,216141
1618.51,0.174573,315116,210813
1621.49,0.172969,307217,206289
1624.47,0.171515,299481,201769
1627.44,0.171546,292112,196790
1630.41,0.168730,284245,192736
1634.36,0.168260,274079,186044
1637.32,0.166585,266916,181882
1640.27,0.165763,259612,177240
1643.22,0.164671,251804,172342
1646.16,0.165503,244348,166919
1649.1,0.163947,236703,162277
1652.04,0.162590,228171,156917
1655.95,0.159100,215408,149335
1658.88,0.156327,204937,142986
1661.8,0.153920,193395,135683
1664.72,0.147684,179728,127918
1667.63,0.139719,163642,118625
1670.54,0.129530,146312,108580
1673.44,0.119003,128451,97664
1677.31,0.106532,105080,82222
1680.21,0.100964,88906,70464
1683.1,0.102681,75033,59234
1685.99,0.103324,63520,50071
1688.87,0.110066,53714,41689
1691.75,0.117204,45653,34855
1694.62,0.119977,39137,29690
1697.49,0.125265,33776,25313
1701.31,0.137052,28175,20550

File: Column 1_050557_20150331_120305.csv
Method:,Column 1,,
Host Date-Time:,31/3/15 @ 12:3:5,,
Header Version:,1,,
System Temp (C):,33.54,,
Detector Temp (C):,32.76,,
Humidity (%):,2.34,,
Lamp PD:,3820,,
Shift Vector Coefficients:,-10.5391,0.0761263,-0.000134223,,
Pixel to Wavelength Coefficients:,1775.68,-0.916766,-0.000235065,,
Serial Number:,5510004,,
Scan Config Name:,Column 1,,
Scan Config Type:,Slew,,
Section 1,,
Start wavelength (nm):,900,,
End wavelength (nm):,1700,,
Pattern Pixel Width (nm):,   7.03,,,,
Exposure (ms):,  0.635,,,,
Digital Resolution:,228,,
Num Repeats:,6,,
PGA Gain:,64,,
Total Measurement Time in sec:,  2.673,,
Wavelength (nm),Absorbance (AU),Reference Signal (unitless),Sample Signal (unitless)
901.51,0.031715,108485,100845
905.376,0.037676,121306,111226
909.237,0.040753,131909,120094
913.095,0.042677,143299,129887
916.948,0.041986,156982,142516
922.079,0.044077,179937,162571
925.923,0.043989,200504,181190
929.762,0.045355,222660,200580
933.597,0.045742,244426,219991
937.427,0.044775,263972,238113
941.254,0.046166,281845,253422
945.076,0.045241,297271,267862
950.165,0.044785,315605,284681
953.978,0.044719,328029,295933
957.786,0.045165,340470,306841
961.59,0.045256,352317,317452
965.389,0.045464,363056,326971
969.185,0.045981,373162,335673
972.976,0.046780,382632,343559
976.763,0.047725,391202,350490
981.806,0.047408,400190,358805
985.583,0.048586,406088,363107
989.355,0.049162,410162,366263
993.124,0.049906,412868,368049
996.888,0.050322,414263,368939
1000.65,0.050662,415476,369729
1004.4,0.052520,415479,368154
1009.41,0.053188,414358,366596
1013.15,0.053776,412923,364832
1016.89,0.054617,411526,362894
1020.63,0.053935,409066,361292
1024.36,0.054485,406777,358816
1028.09,0.053627,404427,357448
1031.82,0.054258,401911,354709
1036.78,0.053509,398410,352226
1040.49,0.052880,396204,350783
1044.2,0.053043,394236,348910
1047.91,0.052265,392042,347590
1051.61,0.051854,389823,345950
1055.31,0.051268,388234,345005
1059,0.050710,387599,344884
1063.92,0.049810,386688,344787
1067.61,0.048668,386598,345614
1071.29,0.048706,387377,346280
1074.96,0.048359,388536,347594
1078.63,0.046963,389855,349897
1082.3,0.046420,391215,351557
1085.96,0.046004,393215,353693
1090.84,0.045204,396270,357098
1094.49,0.044911,398760,359584
1098.14,0.044984,400987,361532
1101.79,0.044463,403477,364213
1105.43,0.044589,406116,366489
1109.06,0.044139,407701,368301
1112.7,0.043583,409859,370725
1117.53,0.044119,412494,372648
1121.15,0.044455,414909,374540
1124.77,0.044778,416559,375750
1128.38,0.046271,418532,376234
1131.99,0.047823,419956,376167
1135.6,0.049449,421946,376537
1139.2,0.051774,423881,376244
1143.99,0.053169,426786,377608
1147.58,0.054991,428617,377640
1151.17,0.056350,431169,378702
1154.75,0.057678,433579,379656
1158.33,0.059122,436264,380739
1161.91,0.061724,439132,380953
1165.48,0.063869,442389,381887
1169.04,0.066523,446101,382746
1173.79,0.070529,451929,384186
1177.34,0.072498,456026,385915
1180.9,0.074592,461306,388505
1184.44,0.076351,467657,392262
1187.99,0.077804,473969,396229
1191.52,0.077222,479856,401688
1195.06,0.076741,487372,408432
1199.76,0.076023,497347,417481
1203.29,0.075123,504311,424205
1206.81,0.074205,511507,431168
1210.33,0.072821,519078,438947
1213.84,0.072669,527163,445939
1217.35,0.071834,534208,452769
1220.85,0.071306,540472,458635
1225.51,0.070483,549929,467545
1229.01,0.069669,556888,474350
1232.5,0.069005,562180,479590
1235.98,0.068546,567975,485046
1239.46,0.067696,574815,491849
1242.94,0.066671,582782,499845
1246.41,0.066138,591476,507925
1251.03,0.065959,604016,518907
1254.5,0.065676,612289,526357
1257.96,0.066246,619125,531535
1261.41,0.066709,624551,535623
1264.86,0.067556,629900,539158
1268.31,0.068040,634345,542357
1271.75,0.068950,638574,544830
1276.33,0.069264,642499,547783
1279.76,0.068966,645905,551065
1283.19,0.068505,648307,553702
1286.61,0.068360,650446,555714
1290.03,0.067720,652132,557976
1293.44,0.067468,653907,559820
1296.85,0.067226,655963,561893
1301.39,0.066962,657349,563422
1304.8,0.066942,657558,563628
1308.19,0.067491,658515,563735
1311.58,0.067774,658804,563614
1314.97,0.067897,659011,563632
1318.36,0.068723,658272,561930
1321.73,0.068820,658022,561592
1326.23,0.069951,657870,560001
1329.6,0.070941,656482,557547
1332.97,0.071982,654926,554894
1336.33,0.073118,653727,552432
1339.69,0.075026,652497,548975
1343.04,0.076953,649913,544380
1346.39,0.079228,647671,539668
1349.73,0.081389,645338,535055
1354.18,0.084814,641175,527427
1357.52,0.086734,638376,522808
1360.85,0.089018,635805,517972
1364.17,0.091037,633413,513630
1367.49,0.093587,631026,508698
1370.81,0.096098,628050,503380
1374.12,0.098879,625034,497765
1378.54,0.102373,620272,490015
1381.84,0.105808,616892,483505
1385.14,0.109835,613613,476496
1388.43,0.114588,611526,469707
1391.72,0.119322,610663,463959
1395.01,0.124926,610634,457989
1398.29,0.130297,611700,453149
1402.66,0.137951,614051,446944
1405.93,0.144212,616268,442138
1409.2,0.149773,617795,437594
1412.46,0.155437,618872,432677
1415.72,0.160138,619795,428657
1418.98,0.164841,620495,424519
1422.23,0.168159,621087,421690
1426.56,0.172734,621375,417465
1429.8,0.175627,621616,414854
1433.04,0.178726,622129,412244
1436.27,0.180859,621526,409827
1439.5,0.183398,621113,407167
1442.72,0.185983,620921,404626
1445.94,0.188207,620270,402137
1450.23,0.191801,618860,397916
1453.44,0.194713,617697,394514
1456.64,0.197236,616264,391319
1459.85,0.200461,614413,387257
1463.04,0.203490,612307,383247
1466.24,0.206562,610032,379132
1469.43,0.209880,607345,374589
1473.67,0.215778,603789,367373
1476.85,0.220793,601175,361583
1480.02,0.226343,597737,354950
1483.19,0.232711,594479,347877
1486.36,0.238787,591232,341170
1489.52,0.243504,587853,335556
1492.68,0.247046,583875,330578
1496.89,0.249386,578062,325528
1500.03,0.249975,574159,322892
1503.18,0.249499,570285,321065
1506.32,0.248749,565444,318890
1509.45,0.247821,560571,316818
1512.58,0.246584,555821,315029
1515.71,0.243973,550344,313806
1519.87,0.240901,543983,312381
1522.99,0.237740,538764,311644
1526.1,0.235305,533692,310446
1529.21,0.232307,527902,309205
1532.32,0.228847,521886,308126
1535.42,0.228248,515888,305005
1538.51,0.222572,509987,305483
1541.6,0.219755,503936,303823
1545.72,0.215557,494694,301148
1548.8,0.212046,488378,299716
1551.88,0.209518,481832,297425
1554.95,0.207208,474989,294765
1558.02,0.205713,467818,291316
1561.08,0.204639,460730,287612
1564.15,0.203952,454170,283966
1568.22,0.202613,444181,278578
1571.27,0.201701,436947,274617
1574.32,0.200481,429598,270758
1577.36,0.198000,422039,267518
1580.4,0.197459,414375,262987
1583.43,0.196530,406354,258449
1586.46,0.194428,398475,254667
1590.49,0.191337,388982,250376
1593.51,0.188992,380708,246377
1596.53,0.187658,372727,241954
1599.54,0.185211,365060,238316
1602.55,0.182884,357543,234663
1605.55,0.180932,349495,230414
1608.55,0.178183,341154,226343
1612.54,0.176240,330877,220509
1615.53,0.173293,322904,216661
1618.51,0.173725,315116,211225
1621.49,0.171991,307217,206754
1624.47,0.169753,299481,202589
1627.44,0.169549,292112,197697
1630.41,0.168178,284245,192981
1634.36,0.166797,274079,186672
1637.32,0.165533,266916,182323
1640.27,0.165942,259612,177167
1643.22,0.163650,251804,172748
1646.16,0.162914,244348,167917
1649.1,0.161835,236703,163068
1652.04,0.160030,228171,157845
1655.95,0.158751,215408,149455
1658.88,0.155068,204937,143401
1661.8,0.152922,193395,135995
1664.72,0.145902,179728,128444
1667.63,0.136803,163642,119424
1670.54,0.125937,146312,109482
1673.44,0.114715,128451,98633
1677.31,0.101251,105080,83228
1680.21,0.094522,88906,71517
1683.1,0.094388,75033,60376
1685.99,0.097286,63520,50772
1688.87,0.101392,53714,42530
1691.75,0.109033,45653,35517
1694.62,0.105987,39137,30662
1697.49,0.109495,33776,26249
1701.31,0.117648,28175,21489