Folder: textile_sorting_NIRSCAN_/samples/wool/wool-000811 (part 105)

File: Column 1_050589_20150331_121819.csv
Method:,Column 1,,
Host Date-Time:,31/3/15 @ 12:18:19,,
Header Version:,1,,
System Temp (C):,33.84,,
Detector Temp (C):,34.59,,
Humidity (%):,1.86,,
Lamp PD:,3818,,
Shift Vector Coefficients:,-10.5391,0.0761263,-0.000134223,,
Pixel to Wavelength Coefficients:,1775.68,-0.916766,-0.000235065,,
Serial Number:,5510004,,
Scan Config Name:,Column 1,,
Scan Config Type:,Slew,,
Section 1,,
Start wavelength (nm):,900,,
End wavelength (nm):,1700,,
Pattern Pixel Width (nm):,   7.03,,,,
Exposure (ms):,  0.635,,,,
Digital Resolution:,228,,
Num Repeats:,6,,
PGA Gain:,64,,
Total Measurement Time in sec:,  2.678,,
Wavelength (nm),Absorbance (AU),Reference Signal (unitless),Sample Signal (unitless)
901.51,0.070620,108485,92204
905.376,0.075593,121306,101927
909.237,0.077821,131909,110269
913.095,0.081098,143299,118890
916.948,0.080389,156982,130455
922.079,0.082270,179937,148885
925.923,0.083955,200504,165260
929.762,0.082053,222660,184327
933.597,0.083379,244426,201729
937.427,0.082944,263972,218079
941.254,0.081699,281845,233513
945.076,0.080371,297271,247048
950.165,0.080223,315605,262374
953.978,0.078731,328029,273641
957.786,0.079212,340470,283705
961.59,0.079238,352317,293559
965.389,0.078910,363056,302736
969.185,0.079900,373162,310454
972.976,0.080057,382632,318218
976.763,0.079697,391202,325615
981.806,0.080416,400190,332545
985.583,0.081578,406088,336544
989.355,0.081585,410162,339915
993.124,0.082187,412868,341684
996.888,0.082564,414263,342541
1000.65,0.083606,415476,342720
1004.4,0.084584,415479,341952
1009.41,0.085908,414358,339991
1013.15,0.086489,412923,338361
1016.89,0.086574,411526,337150
1020.63,0.086241,409066,335392
1024.36,0.086967,406777,332958
1028.09,0.086256,404427,331577
1031.82,0.086914,401911,329015
1036.78,0.085899,398410,326912
1040.49,0.086126,396204,324932
1044.2,0.085533,394236,323760
1047.91,0.085792,392042,321766
1051.61,0.084931,389823,320580
1055.31,0.084681,388234,319457
1059,0.084570,387599,319016
1063.92,0.083091,386688,319352
1067.61,0.083187,386598,319207
1071.29,0.082048,387377,320690
1074.96,0.081859,388536,321790
1078.63,0.081219,389855,323358
1082.3,0.080305,391215,325170
1085.96,0.080153,393215,326947
1090.84,0.079063,396270,330315
1094.49,0.078132,398760,333104
1098.14,0.078023,400987,335048
1101.79,0.077766,403477,337328
1105.43,0.076719,406116,340354
1109.06,0.076795,407701,341623
1112.7,0.075892,409859,344146
1117.53,0.075567,412494,346618
1121.15,0.076199,414909,348140
1124.77,0.076258,416559,349477
1128.38,0.077248,418532,350333
1131.99,0.078731,419956,350326
1135.6,0.080048,421946,350921
1139.2,0.081009,423881,351751
1143.99,0.083060,426786,352493
1147.58,0.083831,428617,353377
1151.17,0.084851,431169,354647
1154.75,0.086092,433579,355612
1158.33,0.087096,436264,356988
1161.91,0.089280,439132,357532
1165.48,0.091328,442389,358489
1169.04,0.093166,446101,359971
1173.79,0.096486,451929,361896
1177.34,0.098853,456026,363192
1180.9,0.100527,461306,365984
1184.44,0.103047,467657,368876
1187.99,0.103497,473969,373468
1191.52,0.103261,479856,378312
1195.06,0.102911,487372,384547
1199.76,0.103216,497347,392142
1203.29,0.102314,504311,398460
1206.81,0.101553,511507,404854
1210.33,0.101274,519078,411111
1213.84,0.100334,527163,418419
1217.35,0.100106,534208,424233
1220.85,0.098979,540472,430323
1225.51,0.098212,549929,438626
1229.01,0.098013,556888,444380
1232.5,0.097796,562180,448827
1235.98,0.096465,567975,454846
1239.46,0.098149,574815,458542
1242.94,0.095082,582782,468192
1246.41,0.094254,591476,476083
1251.03,0.094203,604016,486234
1254.5,0.094340,612289,492739
1257.96,0.094971,619125,497516
1261.41,0.095306,624551,501490
1264.86,0.095781,629900,505232
1268.31,0.096296,634345,508194
1271.75,0.096965,638574,510794
1276.33,0.097340,642499,513490
1279.76,0.096878,645905,516762
1283.19,0.095944,648307,519800
1286.61,0.096469,650446,520885
1290.03,0.096358,652132,522369
1293.44,0.095357,653907,525000
1296.85,0.095432,655963,526559
1301.39,0.094991,657349,528208
1304.8,0.095068,657558,528282
1308.19,0.095397,658515,528651
1311.58,0.095300,658804,529001
1314.97,0.096033,659011,528275
1318.36,0.096236,658272,527436
1321.73,0.096841,658022,526501
1326.23,0.097441,657870,525653
1329.6,0.098577,656482,523173
1332.97,0.099527,654926,520793
1336.33,0.100612,653727,518543
1339.69,0.102309,652497,515549
1343.04,0.103497,649913,512104
1346.39,0.105795,647671,507644
1349.73,0.107635,645338,503677
1354.18,0.110729,641175,496875
1357.52,0.112505,638376,492688
1360.85,0.114612,635805,488328
1364.17,0.116712,633413,484144
1367.49,0.118753,631026,480059
1370.81,0.120855,628050,475488
1374.12,0.123375,625034,470466
1378.54,0.126132,620272,463928
1381.84,0.129244,616892,458105
1385.14,0.133011,613613,451735
1388.43,0.136641,611526,446451
1391.72,0.140894,610663,441477
1395.01,0.145996,610634,436300
1398.29,0.150504,611700,432548
1402.66,0.157494,614051,427278
1405.93,0.163152,616268,423270
1409.2,0.168196,617795,419419
1412.46,0.173008,618872,415521
1415.72,0.176864,619795,412462
1418.98,0.181219,620495,408808
1422.23,0.184743,621087,405891
1426.56,0.188823,621375,402282
1429.8,0.191208,621616,400234
1433.04,0.194117,622129,397890
1436.27,0.195973,621526,395810
1439.5,0.198315,621113,393419
1442.72,0.200433,620921,391384
1445.94,0.203008,620270,388663
1450.23,0.206602,618860,384583
1453.44,0.208650,617697,382055
1456.64,0.211517,616264,378660
1459.85,0.214004,614413,375367
1463.04,0.216409,612307,372015
1466.24,0.220018,610032,367565
1469.43,0.223494,607345,363029
1473.67,0.229211,603789,356184
1476.85,0.233970,601175,350777
1480.02,0.239703,597737,344197
1483.19,0.245440,594479,337829
1486.36,0.250871,591232,331808
1489.52,0.255481,587853,326428
1492.68,0.258519,583875,321959
1496.89,0.260585,578062,317241
1500.03,0.261025,574159,314780
1503.18,0.261341,570285,312429
1506.32,0.259849,565444,310843
1509.45,0.259176,560571,308642
1512.58,0.257217,555821,307410
1515.71,0.254775,550344,306097
1519.87,0.252338,543983,304262
1522.99,0.249579,538764,303263
1526.1,0.247442,533692,301890
1529.21,0.244172,527902,300872
1532.32,0.241843,521886,299042
1535.42,0.239090,515888,297485
1538.51,0.235687,509987,296396
1541.6,0.233396,503936,294428
1545.72,0.228700,494694,292171
1548.8,0.226247,488378,290074
1551.88,0.223538,481832,287977
1554.95,0.221849,474989,284993
1558.02,0.220270,467818,281713
1561.08,0.219046,460730,278228
1564.15,0.218407,454170,274670
1568.22,0.217472,444181,269208
1571.27,0.216206,436947,265597
1574.32,0.215446,429598,261587
1577.36,0.215019,422039,257237
1580.4,0.213193,414375,253630
1583.43,0.211535,406354,249672
1586.46,0.210369,398475,245489
1590.49,0.208159,388982,240863
1593.51,0.206612,380708,236581
1596.53,0.204158,372727,232934
1599.54,0.202176,365060,229186
1602.55,0.200058,357543,225564
1605.55,0.197601,349495,221738
1608.55,0.196527,341154,216982
1612.54,0.194288,330877,211533
1615.53,0.192512,322904,207282
1618.51,0.191079,315116,202951
1621.49,0.191118,307217,197846
1624.47,0.189906,299481,193403
1627.44,0.187361,292112,189753
1630.41,0.186681,284245,184932
1634.36,0.186829,274079,178257
1637.32,0.185336,266916,174196
1640.27,0.184617,259612,169710
1643.22,0.184345,251804,164709
1646.16,0.183124,244348,160282
1649.1,0.182934,236703,155335
1652.04,0.180358,228171,150627
1655.95,0.178132,215408,142932
1658.88,0.174121,204937,137246
1661.8,0.170708,193395,130538
1664.72,0.162344,179728,123672
1667.63,0.149074,163642,116097
1670.54,0.135620,146312,107068
1673.44,0.119573,128451,97536
1677.31,0.101094,105080,83258
1680.21,0.090286,88906,72218
1683.1,0.087176,75033,61387
1685.99,0.084625,63520,52274
1688.87,0.087841,53714,43878
1691.75,0.090798,45653,37040
1694.62,0.099157,39137,31148
1697.49,0.107070,33776,26396
1701.31,0.112544,28175,21743

File: Column 1_050589_20150331_121822.csv
Method:,Column 1,,
Host Date-Time:,31/3/15 @ 12:18:22,,
Header Version:,1,,
System Temp (C):,33.81,,
Detector Temp (C):,34.53,,
Humidity (%):,1.86,,
Lamp PD:,3818,,
Shift Vector Coefficients:,-10.5391,0.0761263,-0.000134223,,
Pixel to Wavelength Coefficients:,1775.68,-0.916766,-0.000235065,,
Serial Number:,5510004,,
Scan Config Name:,Column 1,,
Scan Config Type:,Slew,,
Section 1,,
Start wavelength (nm):,900,,
End wavelength (nm):,1700,,
Pattern Pixel Width (nm):,   7.03,,,,
Exposure (ms):,  0.635,,,,
Digital Resolution:,228,,
Num Repeats:,6,,
PGA Gain:,64,,
Total Measurement Time in sec:,  2.682,,
Wavelength (nm),Absorbance (AU),Reference Signal (unitless),Sample Signal (unitless)
901.51,0.069792,108485,92380
905.376,0.077450,121306,101492
909.237,0.078444,131909,110111
913.095,0.078084,143299,119718
916.948,0.080576,156982,130399
922.079,0.081998,179937,148978
925.923,0.082683,200504,165745
929.762,0.083223,222660,183831
933.597,0.083330,244426,201752
937.427,0.081796,263972,218656
941.254,0.081980,281845,233362
945.076,0.080646,297271,246892
950.165,0.079593,315605,262755
953.978,0.078906,328029,273531
957.786,0.079503,340470,283515
961.59,0.078823,352317,293840
965.389,0.079540,363056,302297
969.185,0.079702,373162,310596
972.976,0.080140,382632,318157
976.763,0.080212,391202,325229
981.806,0.080275,400190,332653
985.583,0.080703,406088,337223
989.355,0.081658,410162,339858
993.124,0.082048,412868,341793
996.888,0.082747,414263,342396
1000.65,0.083626,415476,342705
1004.4,0.084574,415479,341960
1009.41,0.085288,414358,340477
1013.15,0.085654,412923,339012
1016.89,0.086505,411526,337204
1020.63,0.086794,409066,334965
1024.36,0.086425,406777,333374
1028.09,0.086004,404427,331769
1031.82,0.086294,401911,329485
1036.78,0.085421,398410,327272
1040.49,0.085519,396204,325387
1044.2,0.086008,394236,323406
1047.91,0.085504,392042,321980
1051.61,0.084961,389823,320558
1055.31,0.084331,388234,319715
1059,0.084065,387599,319387
1063.92,0.083683,386688,318917
1067.61,0.082517,386598,319700
1071.29,0.082197,387377,320580
1074.96,0.081768,388536,321857
1078.63,0.080934,389855,323571
1082.3,0.080269,391215,325197
1085.96,0.080121,393215,326971
1090.84,0.078086,396270,331059
1094.49,0.078697,398760,332671
1098.14,0.078044,400987,335032
1101.79,0.077168,403477,337793
1105.43,0.077049,406116,340096
1109.06,0.076745,407701,341662
1112.7,0.075455,409859,344492
1117.53,0.075969,412494,346297
1121.15,0.076493,414909,347904
1124.77,0.076428,416559,349340
1128.38,0.076888,418532,350623
1131.99,0.077684,419956,351172
1135.6,0.078846,421946,351893
1139.2,0.080640,423881,352050
1143.99,0.082993,426786,352547
1147.58,0.082762,428617,354248
1151.17,0.084875,431169,354628
1154.75,0.085629,433579,355991
1158.33,0.087245,436264,356865
1161.91,0.088865,439132,357874
1165.48,0.090671,442389,359032
1169.04,0.093459,446101,359728
1173.79,0.096155,451929,362172
1177.34,0.098546,456026,363449
1180.9,0.100599,461306,365923
1184.44,0.102167,467657,369624
1187.99,0.103715,473969,373280
1191.52,0.103756,479856,377881
1195.06,0.103031,487372,384441
1199.76,0.102881,497347,392445
1203.29,0.101727,504311,398999
1206.81,0.101377,511507,405018
1210.33,0.101211,519078,411170
1213.84,0.100198,527163,418550
1217.35,0.100028,534208,424309
1220.85,0.098996,540472,430306
1225.51,0.098608,549929,438226
1229.01,0.098013,556888,444380
1232.5,0.097272,562180,449369
1235.98,0.096772,567975,454524
1239.46,0.095840,574815,460986
1242.94,0.094632,582782,468677
1246.41,0.094148,591476,476200
1251.03,0.094247,604016,486185
1254.5,0.094257,612289,492833
1257.96,0.094731,619125,497791
1261.41,0.095516,624551,501247
1264.86,0.095696,629900,505331
1268.31,0.096397,634345,508076
1271.75,0.096693,638574,511114
1276.33,0.097180,642499,513680
1279.76,0.097175,645905,516409
1283.19,0.096442,648307,519205
1286.61,0.096363,650446,521013
1290.03,0.095425,652132,523493
1293.44,0.095480,653907,524851
1296.85,0.094783,655963,527347
1301.39,0.094949,657349,528259
1304.8,0.095016,657558,528345
1308.19,0.095281,658515,528792
1311.58,0.095082,658804,529266
1314.97,0.095649,659011,528742
1318.36,0.095850,658272,527905
1321.73,0.096393,658022,527045
1326.23,0.097536,657870,525538
1329.6,0.098220,656482,523604
1332.97,0.099433,654926,520906
1336.33,0.100443,653727,518744
1339.69,0.101906,652497,516027
1343.04,0.103221,649913,512430
1346.39,0.105400,647671,508106
1349.73,0.107408,645338,503940
1354.18,0.110273,641175,497398
1357.52,0.112507,638376,492685
1360.85,0.114472,635805,488486
1364.17,0.116451,633413,484435
1367.49,0.118487,631026,480353
1370.81,0.120989,628050,475341
1374.12,0.123039,625034,470831
1378.54,0.125786,620272,464297
1381.84,0.129258,616892,458090
1385.14,0.132894,613613,451856
1388.43,0.136787,611526,446301
1391.72,0.141168,610663,441198
1395.01,0.146040,610634,436256
1398.29,0.151019,611700,432036
1402.66,0.157069,614051,427696
1405.93,0.163022,616268,423397
1409.2,0.168419,617795,419204
1412.46,0.172500,618872,416007
1415.72,0.177308,619795,412041
1418.98,0.181767,620495,408292
1422.23,0.184802,621087,405836
1426.56,0.188611,621375,402479
1429.8,0.191045,621616,400384
1433.04,0.193785,622129,398195
1436.27,0.196042,621526,395747
1439.5,0.197830,621113,393859
1442.72,0.200371,620921,391440
1445.94,0.202939,620270,388724
1450.23,0.206002,618860,385115
1453.44,0.208841,617697,381887
1456.64,0.211500,616264,378675
1459.85,0.213987,614413,375382
1463.04,0.216988,612307,371519
1466.24,0.220102,610032,367494
1469.43,0.223512,607345,363014
1473.67,0.229210,603789,356185
1476.85,0.234538,601175,350318
1480.02,0.239925,597737,344021
1483.19,0.244905,594479,338245
1486.36,0.250874,591232,331806
1489.52,0.255436,587853,326462
1492.68,0.258529,583875,321952
1496.89,0.260280,578062,317464
1500.03,0.260818,574159,314930
1503.18,0.261177,570285,312547
1506.32,0.260409,565444,310442
1509.45,0.259174,560571,308643
1512.58,0.257444,555821,307249
1515.71,0.255014,550344,305929
1519.87,0.251756,543983,304670
1522.99,0.249429,538764,303368
1526.1,0.247116,533692,302117
1529.21,0.244793,527902,300442
1532.32,0.241409,521886,299341
1535.42,0.238508,515888,297884
1538.51,0.235583,509987,296467
1541.6,0.232986,503936,294706
1545.72,0.228746,494694,292140
1548.8,0.225774,488378,290390
1551.88,0.223874,481832,287754
1554.95,0.221967,474989,284916
1558.02,0.219971,467818,281907
1561.08,0.218830,460730,278366
1564.15,0.217553,454170,275211
1568.22,0.216835,444181,269603
1571.27,0.216382,436947,265489
1574.32,0.215800,429598,261374
1577.36,0.214048,422039,257813
1580.4,0.213010,414375,253737
1583.43,0.211465,406354,249712
1586.46,0.209666,398475,245887
1590.49,0.207785,388982,241071
1593.51,0.206379,380708,236708
1596.53,0.204180,372727,232922
1599.54,0.201782,365060,229394
1602.55,0.200598,357543,225284
1605.55,0.198483,349495,221288
1608.55,0.196255,341154,217118
1612.54,0.194670,330877,211347
1615.53,0.193086,322904,207008
1618.51,0.190786,315116,203088
1621.49,0.190640,307217,198064
1624.47,0.189249,299481,193696
1627.44,0.188146,292112,189410
1630.41,0.187327,284245,184657
1634.36,0.186530,274079,178380
1637.32,0.184659,266916,174468
1640.27,0.185496,259612,169367
1643.22,0.184024,251804,164831
1646.16,0.183075,244348,160300
1649.1,0.183354,236703,155185
1652.04,0.180499,228171,150578
1655.95,0.177058,215408,143286
1658.88,0.174725,204937,137055
1661.8,0.168823,193395,131106
1664.72,0.160183,179728,124289
1667.63,0.150111,163642,115820
1670.54,0.135856,146312,107010
1673.44,0.121053,128451,97204
1677.31,0.099397,105080,83584
1680.21,0.090424,88906,72195
1683.1,0.086377,75033,61500
1685.99,0.088153,63520,51851
1688.87,0.087692,53714,43893
1691.75,0.087214,45653,37347
1694.62,0.095962,39137,31378
1697.49,0.097824,33776,26964
1701.31,0.116255,28175,21558

File: Column 1_050589_20150331_121836.csv
Method:,Column 1,,
Host Date-Time:,31/3/15 @ 12:18:36,,
Header Version:,1,,
System Temp (C):,33.84,,
Detector Temp (C):,34.54,,
Humidity (%):,1.86,,
Lamp PD:,3819,,
Shift Vector Coefficients:,-10.5391,0.0761263,-0.000134223,,
Pixel to Wavelength Coefficients:,1775.68,-0.916766,-0.000235065,,
Serial Number:,5510004,,
Scan Config Name:,Column 1,,
Scan Config Type:,Slew,,
Section 1,,
Start wavelength (nm):,900,,
End wavelength (nm):,1700,,
Pattern Pixel Width (nm):,   7.03,,,,
Exposure (ms):,  0.635,,,,
Digital Resolution:,228,,
Num Repeats:,6,,
PGA Gain:,64,,
Total Measurement Time in sec:,  2.673,,
Wavelength (nm),Absorbance (AU),Reference Signal (unitless),Sample Signal (unitless)
901.51,0.071950,108485,91922
905.376,0.076617,121306,101687
909.237,0.080626,131909,109559
913.095,0.078875,143299,119500
916.948,0.080596,156982,130393
922.079,0.081928,179937,149002
925.923,0.083750,200504,165338
929.762,0.084139,222660,183444
933.597,0.083599,244426,201627
937.427,0.082775,263972,218164
941.254,0.081895,281845,233408
945.076,0.080517,297271,246965
950.165,0.079281,315605,262944
953.978,0.079063,328029,273432
957.786,0.079059,340470,283805
961.59,0.079576,352317,293331
965.389,0.079474,363056,302343
969.185,0.079675,373162,310615
972.976,0.079958,382632,318290
976.763,0.080054,391202,325347
981.806,0.080467,400190,332506
985.583,0.081738,406088,336420
989.355,0.081631,410162,339879
993.124,0.082039,412868,341800
996.888,0.082857,414263,342310
1000.65,0.084106,415476,342326
1004.4,0.084682,415479,341875
1009.41,0.085976,414358,339938
1013.15,0.085774,412923,338918
1016.89,0.086587,411526,337140
1020.63,0.086496,409066,335195
1024.36,0.086676,406777,333181
1028.09,0.086724,404427,331220
1031.82,0.085825,401911,329841
1036.78,0.086229,398410,326664
1040.49,0.085707,396204,325246
1044.2,0.086226,394236,323244
1047.91,0.085447,392042,322022
1051.61,0.085080,389823,320470
1055.31,0.084725,388234,319425
1059,0.083891,387599,319515
1063.92,0.083234,386688,319247
1067.61,0.082536,386598,319686
1071.29,0.082627,387377,320263
1074.96,0.081987,388536,321695
1078.63,0.081449,389855,323187
1082.3,0.080184,391215,325261
1085.96,0.079681,393215,327302
1090.84,0.078993,396270,330368
1094.49,0.078805,398760,332588
1098.14,0.077460,400987,335483
1101.79,0.077189,403477,337777
1105.43,0.076597,406116,340450
1109.06,0.076825,407701,341599
1112.7,0.076031,409859,344036
1117.53,0.075444,412494,346716
1121.15,0.075840,414909,348428
1124.77,0.075873,416559,349787
1128.38,0.077435,418532,350182
1131.99,0.078559,419956,350465
1135.6,0.079854,421946,351077
1139.2,0.081099,423881,351678
1143.99,0.083445,426786,352180
1147.58,0.083859,428617,353354
1151.17,0.085131,431169,354419
1154.75,0.085881,433579,355785
1158.33,0.087197,436264,356905
1161.91,0.088803,439132,357925
1165.48,0.091196,442389,358598
1169.04,0.093543,446101,359658
1173.79,0.096542,451929,361850
1177.34,0.098482,456026,363503
1180.9,0.100545,461306,365969
1184.44,0.102172,467657,369620
1187.99,0.103514,473969,373453
1191.52,0.103785,479856,377856
1195.06,0.103724,487372,383828
1199.76,0.102370,497347,392907
1203.29,0.102075,504311,398679
1206.81,0.101630,511507,404782
1210.33,0.100794,519078,411565
1213.84,0.100537,527163,418223
1217.35,0.100168,534208,424172
1220.85,0.099118,540472,430185
1225.51,0.098432,549929,438404
1229.01,0.098010,556888,444383
1232.5,0.097343,562180,449296
1235.98,0.096878,567975,454413
1239.46,0.095859,574815,460966
1242.94,0.094924,582782,468363
1246.41,0.094212,591476,476130
1251.03,0.094075,604016,486378
1254.5,0.094301,612289,492783
1257.96,0.094823,619125,497686
1261.41,0.095100,624551,501727
1264.86,0.095977,629900,505004
1268.31,0.096293,634345,508198
1271.75,0.096853,638574,510926
1276.33,0.096670,642499,514283
1279.76,0.096887,645905,516751
1283.19,0.096677,648307,518924
1286.61,0.096285,650446,521106
1290.03,0.095661,652132,523208
1293.44,0.095339,653907,525021
1296.85,0.095303,655963,526716
1301.39,0.095122,657349,528049
1304.8,0.095105,657558,528237
1308.19,0.095109,658515,529001
1311.58,0.095306,658804,528993
1314.97,0.095671,659011,528715
1318.36,0.095967,658272,527762
1321.73,0.096445,658022,526981
1326.23,0.097655,657870,525394
1329.6,0.098068,656482,523787
1332.97,0.099458,654926,520876
1336.33,0.100508,653727,518667
1339.69,0.102070,652497,515832
1343.04,0.103886,649913,511646
1346.39,0.105581,647671,507895
1349.73,0.107340,645338,504019
1354.18,0.110259,641175,497413
1357.52,0.112493,638376,492701
1360.85,0.114306,635805,488673
1364.17,0.116531,633413,484346
1367.49,0.118897,631026,479900
1370.81,0.121244,628050,475062
1374.12,0.123249,625034,470603
1378.54,0.126400,620272,463641
1381.84,0.129176,616892,458177
1385.14,0.132845,613613,451907
1388.43,0.136364,611526,446736
1391.72,0.141185,610663,441181
1395.01,0.145600,610634,436698
1398.29,0.150455,611700,432597
1402.66,0.157541,614051,427232
1405.93,0.163259,616268,423166
1409.2,0.168281,617795,419337
1412.46,0.172844,618872,415678
1415.72,0.177317,619795,412032
1418.98,0.180198,620495,409770
1422.23,0.184284,621087,406320
1426.56,0.188380,621375,402693
1429.8,0.190775,621616,400633
1433.04,0.193468,622129,398485
1436.27,0.195708,621526,396051
1439.5,0.197608,621113,394060
1442.72,0.200291,620921,391512
1445.94,0.202763,620270,388882
1450.23,0.206078,618860,385048
1453.44,0.208645,617697,382059
1456.64,0.211296,616264,378853
1459.85,0.213699,614413,375631
1463.04,0.216327,612307,372085
1466.24,0.220138,610032,367464
1469.43,0.223671,607345,362881
1473.67,0.228592,603789,356692
1476.85,0.233526,601175,351136
1480.02,0.238973,597737,344776
1483.19,0.245870,594479,337494
1486.36,0.250752,591232,331899
1489.52,0.254945,587853,326831
1492.68,0.258397,583875,322050
1496.89,0.260169,578062,317545
1500.03,0.260908,574159,314865
1503.18,0.261075,570285,312620
1506.32,0.260044,565444,310703
1509.45,0.258972,560571,308787
1512.58,0.256967,555821,307587
1515.71,0.255008,550344,305933
1519.87,0.251984,543983,304510
1522.99,0.249263,538764,303484
1526.1,0.247323,533692,301973
1529.21,0.244580,527902,300589
1532.32,0.241993,521886,298939
1535.42,0.238459,515888,297918
1538.51,0.235688,509987,296395
1541.6,0.232595,503936,294972
1545.72,0.228368,494694,292394
1548.8,0.225597,488378,290509
1551.88,0.223717,481832,287858
1554.95,0.221233,474989,285398
1558.02,0.219755,467818,282047
1561.08,0.218819,460730,278373
1564.15,0.218249,454170,274770
1568.22,0.217867,444181,268963
1571.27,0.216350,436947,265509
1574.32,0.215355,429598,261642
1577.36,0.213425,422039,258183
1580.4,0.212613,414375,253969
1583.43,0.211850,406354,249491
1586.46,0.210311,398475,245522
1590.49,0.207925,388982,240993
1593.51,0.207003,380708,236368
1596.53,0.204628,372727,232682
1599.54,0.202804,365060,228855
1602.55,0.200966,357543,225093
1605.55,0.198001,349495,221534
1608.55,0.196113,341154,217189
1612.54,0.194307,330877,211524
1615.53,0.193017,322904,207041
1618.51,0.191178,315116,202905
1621.49,0.190635,307217,198066
1624.47,0.189917,299481,193398
1627.44,0.188493,292112,189259
1630.41,0.188290,284245,184248
1634.36,0.186113,274079,178551
1637.32,0.186290,266916,173814
1640.27,0.184535,259612,169742
1643.22,0.183813,251804,164911
1646.16,0.182407,244348,160547
1649.1,0.182979,236703,155319
1652.04,0.182326,228171,149946
1655.95,0.177604,215408,143106
1658.88,0.173318,204937,137500
1661.8,0.168601,193395,131173
1664.72,0.160882,179728,124089
1667.63,0.150336,163642,115760
1670.54,0.135819,146312,107019
1673.44,0.119199,128451,97620
1677.31,0.100016,105080,83465
1680.21,0.089751,88906,72307
1683.1,0.084229,75033,61805
1685.99,0.087016,63520,51987
1688.87,0.091079,53714,43552
1691.75,0.101013,45653,36179
1694.62,0.101478,39137,30982
1697.49,0.100927,33776,26772
1701.31,0.120283,28175,21359