Folder: textile_sorting_NIRSCAN_/samples/wool/wool-000811 (part 176)

File: Column 1_050628_20150331_123708.csv
Method:,Column 1,,
Host Date-Time:,31/3/15 @ 12:37:8,,
Header Version:,1,,
System Temp (C):,34.14,,
Detector Temp (C):,35.05,,
Humidity (%):,1.56,,
Lamp PD:,3818,,
Shift Vector Coefficients:,-10.5391,0.0761263,-0.000134223,,
Pixel to Wavelength Coefficients:,1775.68,-0.916766,-0.000235065,,
Serial Number:,5510004,,
Scan Config Name:,Column 1,,
Scan Config Type:,Slew,,
Section 1,,
Start wavelength (nm):,900,,
End wavelength (nm):,1700,,
Pattern Pixel Width (nm):,   7.03,,,,
Exposure (ms):,  0.635,,,,
Digital Resolution:,228,,
Num Repeats:,6,,
PGA Gain:,64,,
Total Measurement Time in sec:,  2.664,,
Wavelength (nm),Absorbance (AU),Reference Signal (unitless),Sample Signal (unitless)
901.51,0.069608,108485,92419
905.376,0.075602,121306,101925
909.237,0.077888,131909,110252
913.095,0.077659,143299,119835
916.948,0.079770,156982,130641
922.079,0.081096,179937,149288
925.923,0.081560,200504,166174
929.762,0.081973,222660,184361
933.597,0.082618,244426,202083
937.427,0.081483,263972,218814
941.254,0.080611,281845,234099
945.076,0.078265,297271,248249
950.165,0.077744,315605,263876
953.978,0.076940,328029,274772
957.786,0.077082,340470,285100
961.59,0.077334,352317,294849
965.389,0.077070,363056,304021
969.185,0.077245,373162,312358
972.976,0.077627,382632,320003
976.763,0.078108,391202,326808
981.806,0.079126,400190,333534
985.583,0.079078,406088,338487
989.355,0.079581,410162,341487
993.124,0.080127,412868,343308
996.888,0.080204,414263,344407
1000.65,0.081314,415476,344534
1004.4,0.082541,415479,343564
1009.41,0.083998,414358,341490
1013.15,0.084501,412923,339913
1016.89,0.084486,411526,338775
1020.63,0.084120,409066,337034
1024.36,0.084328,406777,334987
1028.09,0.083876,404427,333399
1031.82,0.084114,401911,331143
1036.78,0.083486,398410,328734
1040.49,0.083508,396204,326897
1044.2,0.083647,394236,325169
1047.91,0.082982,392042,323855
1051.61,0.082815,389823,322146
1055.31,0.081826,388234,321564
1059,0.082727,387599,320373
1063.92,0.081576,386688,320468
1067.61,0.080262,386598,321364
1071.29,0.079818,387377,322341
1074.96,0.079541,388536,323512
1078.63,0.078818,389855,325151
1082.3,0.078657,391215,326406
1085.96,0.077829,393215,328701
1090.84,0.076541,396270,332239
1094.49,0.075349,398760,335245
1098.14,0.075384,400987,337090
1101.79,0.074643,403477,339763
1105.43,0.073813,406116,342639
1109.06,0.074062,407701,343779
1112.7,0.073174,409859,346306
1117.53,0.073104,412494,348589
1121.15,0.073742,414909,350115
1124.77,0.074022,416559,351281
1128.38,0.074831,418532,352288
1131.99,0.075608,419956,352855
1135.6,0.077737,421946,352793
1139.2,0.077547,423881,354566
1143.99,0.080099,426786,354904
1147.58,0.081127,428617,355584
1151.17,0.082305,431169,356732
1154.75,0.082006,433579,358973
1158.33,0.084229,436264,359352
1161.91,0.085646,439132,360536
1165.48,0.087992,442389,361254
1169.04,0.090179,446101,362455
1173.79,0.093625,451929,364288
1177.34,0.095561,456026,365956
1180.9,0.097741,461306,368339
1184.44,0.099215,467657,372145
1187.99,0.100672,473969,375905
1191.52,0.100521,479856,380706
1195.06,0.100432,487372,386748
1199.76,0.099904,497347,395144
1203.29,0.099243,504311,401287
1206.81,0.098876,511507,407357
1210.33,0.098016,519078,414206
1213.84,0.097310,527163,421342
1217.35,0.096437,534208,427832
1220.85,0.095929,540472,433355
1225.51,0.095235,549929,441643
1229.01,0.094912,556888,447565
1232.5,0.094487,562180,452260
1235.98,0.093917,567975,457522
1239.46,0.092310,574815,464749
1242.94,0.091366,582782,472215
1246.41,0.091170,591476,479476
1251.03,0.090482,604016,490418
1254.5,0.091336,612289,496159
1257.96,0.091539,619125,501463
1261.41,0.092085,624551,505223
1264.86,0.092736,629900,508786
1268.31,0.092983,634345,512086
1271.75,0.093880,638574,514436
1276.33,0.094343,642499,517046
1279.76,0.093634,645905,520637
1283.19,0.093321,648307,522950
1286.61,0.093168,650446,524860
1290.03,0.093055,652132,526357
1293.44,0.091961,653907,529121
1296.85,0.091838,655963,530935
1301.39,0.091701,657349,532225
1304.8,0.091621,657558,532492
1308.19,0.091316,658515,533642
1311.58,0.091888,658804,533173
1314.97,0.091971,659011,533239
1318.36,0.092326,658272,532206
1321.73,0.092408,658022,531903
1326.23,0.093442,657870,530516
1329.6,0.094068,656482,528634
1332.97,0.094971,654926,526285
1336.33,0.095569,653727,524599
1339.69,0.097467,652497,521329
1343.04,0.098983,649913,517454
1346.39,0.100998,647671,513283
1349.73,0.102212,645338,510006
1354.18,0.105384,641175,503028
1357.52,0.107256,638376,498678
1360.85,0.109009,635805,494669
1364.17,0.110768,633413,490816
1367.49,0.113400,631026,486012
1370.81,0.115688,628050,481179
1374.12,0.117585,625034,476781
1378.54,0.120321,620272,470177
1381.84,0.123197,616892,464528
1385.14,0.126218,613613,458856
1388.43,0.129039,611526,454335
1391.72,0.133748,610663,448801
1395.01,0.136827,610634,445609
1398.29,0.141141,611700,441975
1402.66,0.147276,614051,437450
1405.93,0.151642,616268,434638
1409.2,0.156167,617795,431199
1412.46,0.160509,618872,427653
1415.72,0.164215,619795,424652
1418.98,0.167532,620495,421897
1422.23,0.170544,621087,419381
1426.56,0.174625,621375,415651
1429.8,0.176961,621616,413582
1433.04,0.179304,622129,411696
1436.27,0.181340,621526,409373
1439.5,0.183814,621113,406777
1442.72,0.185859,620921,404741
1445.94,0.188278,620270,402071
1450.23,0.192378,618860,397388
1453.44,0.194617,617697,394601
1456.64,0.197690,616264,390910
1459.85,0.200386,614413,387324
1463.04,0.203789,612307,382984
1466.24,0.207139,610032,378629
1469.43,0.210642,607345,373933
1473.67,0.217753,603789,365706
1476.85,0.223775,601175,359109
1480.02,0.229737,597737,352187
1483.19,0.236316,594479,345001
1486.36,0.242727,591232,338089
1489.52,0.247464,587853,332510
1492.68,0.251213,583875,327421
1496.89,0.253001,578062,322830
1500.03,0.254197,574159,319768
1503.18,0.253441,570285,318164
1506.32,0.253192,565444,315644
1509.45,0.251766,560571,313953
1512.58,0.249829,555821,312684
1515.71,0.247360,550344,311368
1519.87,0.244543,543983,309772
1522.99,0.241772,538764,308764
1526.1,0.239378,533692,307548
1529.21,0.236748,527902,306059
1532.32,0.233551,521886,304807
1535.42,0.230709,515888,303282
1538.51,0.227833,509987,301805
1541.6,0.225069,503936,300128
1545.72,0.220952,494694,297430
1548.8,0.218293,488378,295436
1551.88,0.215826,481832,293136
1554.95,0.214164,474989,290081
1558.02,0.212746,467818,286636
1561.08,0.211324,460730,283219
1564.15,0.210231,454170,279890
1568.22,0.209732,444181,274049
1571.27,0.209680,436947,269618
1574.32,0.207815,429598,266224
1577.36,0.207083,422039,261981
1580.4,0.205880,414375,257937
1583.43,0.204733,406354,253613
1586.46,0.202840,398475,249782
1590.49,0.201216,388982,244745
1593.51,0.199385,380708,240551
1596.53,0.196901,372727,236859
1599.54,0.195768,365060,232593
1602.55,0.194001,357543,228732
1605.55,0.191633,349495,224806
1608.55,0.188727,341154,220914
1612.54,0.187915,330877,214660
1615.53,0.186344,322904,210247
1618.51,0.185338,315116,205652
1621.49,0.183194,307217,201489
1624.47,0.182399,299481,196775
1627.44,0.181970,292112,192123
1630.41,0.181710,284245,187061
1634.36,0.179732,274079,181194
1637.32,0.179500,266916,176553
1640.27,0.178539,259612,172102
1643.22,0.178094,251804,167097
1646.16,0.176557,244348,162724
1649.1,0.176898,236703,157509
1652.04,0.173416,228171,153054
1655.95,0.173012,215408,144627
1658.88,0.167856,204937,139240
1661.8,0.161827,193395,133235
1664.72,0.153350,179728,126260
1667.63,0.141814,163642,118054
1670.54,0.125854,146312,109503
1673.44,0.110967,128451,99488
1677.31,0.090479,105080,85318
1680.21,0.078720,88906,74167
1683.1,0.074068,75033,63268
1685.99,0.072039,63520,53811
1688.87,0.076219,53714,45068
1691.75,0.082610,45653,37745
1694.62,0.090393,39137,31783
1697.49,0.085940,33776,27712
1701.31,0.095410,28175,22618

File: Column 1_050629_20150331_123714.csv
Method:,Column 1,,
Host Date-Time:,31/3/15 @ 12:37:14,,
Header Version:,1,,
System Temp (C):,34.14,,
Detector Temp (C):,35.06,,
Humidity (%):,1.56,,
Lamp PD:,3818,,
Shift Vector Coefficients:,-10.5391,0.0761263,-0.000134223,,
Pixel to Wavelength Coefficients:,1775.68,-0.916766,-0.000235065,,
Serial Number:,5510004,,
Scan Config Name:,Column 1,,
Scan Config Type:,Slew,,
Section 1,,
Start wavelength (nm):,900,,
End wavelength (nm):,1700,,
Pattern Pixel Width (nm):,   7.03,,,,
Exposure (ms):,  0.635,,,,
Digital Resolution:,228,,
Num Repeats:,6,,
PGA Gain:,64,,
Total Measurement Time in sec:,  2.724,,
Wavelength (nm),Absorbance (AU),Reference Signal (unitless),Sample Signal (unitless)
901.51,0.067200,108485,92933
905.376,0.073180,121306,102495
909.237,0.075135,131909,110953
913.095,0.076306,143299,120209
916.948,0.077387,156982,131360
922.079,0.079768,179937,149745
925.923,0.080683,200504,166510
929.762,0.082284,222660,184229
933.597,0.080801,244426,202930
937.427,0.081503,263972,218804
941.254,0.079211,281845,234855
945.076,0.078568,297271,248076
950.165,0.077371,315605,264103
953.978,0.076286,328029,275186
957.786,0.076511,340470,285475
961.59,0.077474,352317,294754
965.389,0.076607,363056,304345
969.185,0.077388,373162,312255
972.976,0.076911,382632,320531
976.763,0.077803,391202,327038
981.806,0.078264,400190,334197
985.583,0.078714,406088,338771
989.355,0.078637,410162,342230
993.124,0.079858,412868,343521
996.888,0.080358,414263,344285
1000.65,0.081436,415476,344437
1004.4,0.081718,415479,344216
1009.41,0.083205,414358,342114
1013.15,0.084042,412923,340273
1016.89,0.084358,411526,338875
1020.63,0.083710,409066,337352
1024.36,0.083694,406777,335477
1028.09,0.083618,404427,333597
1031.82,0.083984,401911,331242
1036.78,0.083730,398410,328549
1040.49,0.083423,396204,326961
1044.2,0.083531,394236,325256
1047.91,0.082467,392042,324239
1051.61,0.082563,389823,322333
1055.31,0.082311,388234,321205
1059,0.081861,387599,321012
1063.92,0.080715,386688,321104
1067.61,0.079783,386598,321719
1071.29,0.079589,387377,322511
1074.96,0.079057,388536,323873
1078.63,0.079227,389855,324845
1082.3,0.077951,391215,326937
1085.96,0.077049,393215,329292
1090.84,0.076095,396270,332580
1094.49,0.075735,398760,334947
1098.14,0.074541,400987,337745
1101.79,0.074083,403477,340201
1105.43,0.073655,406116,342764
1109.06,0.073488,407701,344234
1112.7,0.072753,409859,346642
1117.53,0.072470,412494,349098
1121.15,0.073235,414909,350524
1124.77,0.073184,416559,351959
1128.38,0.073922,418532,353026
1131.99,0.074934,419956,353403
1135.6,0.076315,421946,353950
1139.2,0.077570,423881,354547
1143.99,0.080212,426786,354812
1147.58,0.080213,428617,356333
1151.17,0.081622,431169,357294
1154.75,0.082115,433579,358883
1158.33,0.083303,436264,360119
1161.91,0.085148,439132,360950
1165.48,0.087313,442389,361819
1169.04,0.089565,446101,362968
1173.79,0.092811,451929,364972
1177.34,0.095192,456026,366267
1180.9,0.097318,461306,368698
1184.44,0.099141,467657,372209
1187.99,0.100403,473969,376138
1191.52,0.100500,479856,380725
1195.06,0.100468,487372,386716
1199.76,0.099292,497347,395701
1203.29,0.098399,504311,402068
1206.81,0.098520,511507,407691
1210.33,0.097543,519078,414658
1213.84,0.097230,527163,421420
1217.35,0.096674,534208,427599
1220.85,0.095785,540472,433499
1225.51,0.094654,549929,442235
1229.01,0.094854,556888,447625
1232.5,0.093653,562180,453130
1235.98,0.093567,567975,457891
1239.46,0.092175,574815,464893
1242.94,0.091919,582782,471614
1246.41,0.090807,591476,479877
1251.03,0.090957,604016,489882
1254.5,0.090561,612289,497045
1257.96,0.091249,619125,501798
1261.41,0.091900,624551,505438
1264.86,0.092097,629900,509536
1268.31,0.092616,634345,512518
1271.75,0.094618,638574,513563
1276.33,0.093368,642499,518209
1279.76,0.093178,645905,521184
1283.19,0.093020,648307,523312
1286.61,0.092718,650446,525404
1290.03,0.092552,652132,526967
1293.44,0.092103,653907,528948
1296.85,0.092205,655963,530486
1301.39,0.091202,657349,532836
1304.8,0.091009,657558,533243
1308.19,0.091230,658515,533747
1311.58,0.091514,658804,533633
1314.97,0.091881,659011,533349
1318.36,0.092114,658272,532465
1321.73,0.092381,658022,531936
1326.23,0.093199,657870,530812
1329.6,0.093972,656482,528750
1332.97,0.094856,654926,526425
1336.33,0.095610,653727,524549
1339.69,0.096911,652497,521996
1343.04,0.098439,649913,518103
1346.39,0.100664,647671,513677
1349.73,0.102009,645338,510244
1354.18,0.105115,641175,503340
1357.52,0.107023,638376,498946
1360.85,0.109238,635805,494408
1364.17,0.111151,633413,490384
1367.49,0.113196,631026,486241
1370.81,0.115416,628050,481480
1374.12,0.117130,625034,477280
1378.54,0.119795,620272,470747
1381.84,0.122849,616892,464901
1385.14,0.125586,613613,459524
1388.43,0.128861,611526,454521
1391.72,0.132751,610663,449832
1395.01,0.136778,610634,445659
1398.29,0.141305,611700,441808
1402.66,0.146620,614051,438111
1405.93,0.151289,616268,434991
1409.2,0.155922,617795,431442
1412.46,0.160099,618872,428057
1415.72,0.163828,619795,425030
1418.98,0.166739,620495,422668
1422.23,0.170288,621087,419628
1426.56,0.174077,621375,416176
1429.8,0.176695,621616,413835
1433.04,0.178987,622129,411996
1436.27,0.180805,621526,409878
1439.5,0.182667,621113,407853
1442.72,0.185792,620921,404804
1445.94,0.187522,620270,402772
1450.23,0.191743,618860,397969
1453.44,0.193816,617697,395330
1456.64,0.197400,616264,391171
1459.85,0.200355,614413,387352
1463.04,0.202996,612307,383684
1466.24,0.206935,610032,378807
1469.43,0.210567,607345,373997
1473.67,0.216894,603789,366430
1476.85,0.223377,601175,359438
1480.02,0.229145,597737,352667
1483.19,0.236451,594479,344894
1486.36,0.241927,591232,338712
1489.52,0.247366,587853,332585
1492.68,0.251432,583875,327256
1496.89,0.252962,578062,322859
1500.03,0.252945,574159,320691
1503.18,0.252790,570285,318641
1506.32,0.252481,565444,316161
1509.45,0.250648,560571,314762
1512.58,0.249210,555821,313130
1515.71,0.247105,550344,311551
1519.87,0.244275,543983,309963
1522.99,0.241668,538764,308838
1526.1,0.239073,533692,307764
1529.21,0.236031,527902,306565
1532.32,0.233159,521886,305082
1535.42,0.230151,515888,303672
1538.51,0.227407,509987,302101
1541.6,0.223995,503936,300871
1545.72,0.219740,494694,298261
1548.8,0.217776,488378,295788
1551.88,0.215325,481832,293475
1554.95,0.213191,474989,290732
1558.02,0.212065,467818,287086
1561.08,0.210962,460730,283455
1564.15,0.209470,454170,280381
1568.22,0.209179,444181,274398
1571.27,0.208706,436947,270223
1574.32,0.207944,429598,266145
1577.36,0.206678,422039,262225
1580.4,0.205409,414375,258217
1583.43,0.204103,406354,253981
1586.46,0.202239,398475,250128
1590.49,0.200062,388982,245396
1593.51,0.198584,380708,240995
1596.53,0.197128,372727,236735
1599.54,0.195824,365060,232563
1602.55,0.192977,357543,229272
1605.55,0.190878,349495,225197
1608.55,0.188421,341154,221070
1612.54,0.186941,330877,215142
1615.53,0.185079,322904,210860
1618.51,0.184791,315116,205911
1621.49,0.182724,307217,201707
1624.47,0.182987,299481,196509
1627.44,0.181502,292112,192330
1630.41,0.180916,284245,187403
1634.36,0.179090,274079,181462
1637.32,0.178566,266916,176933
1640.27,0.177775,259612,172405
1643.22,0.176454,251804,167729
1646.16,0.177022,244348,162550
1649.1,0.175113,236703,158158
1652.04,0.174049,228171,152831
1655.95,0.170948,215408,145316
1658.88,0.167956,204937,139208
1661.8,0.161413,193395,133362
1664.72,0.153653,179728,126172
1667.63,0.141064,163642,118258
1670.54,0.125370,146312,109625
1673.44,0.109859,128451,99742
1677.31,0.088240,105080,85759
1680.21,0.077084,88906,74447
1683.1,0.068726,75033,64051
1685.99,0.069513,63520,54125
1688.87,0.068133,53714,45915
1691.75,0.076055,45653,38319
1694.62,0.075827,39137,32867
1697.49,0.085017,33776,27771
1701.31,0.080797,28175,23392

File: Column 1_050629_20150331_123717.csv
Method:,Column 1,,
Host Date-Time:,31/3/15 @ 12:37:17,,
Header Version:,1,,
System Temp (C):,34.14,,
Detector Temp (C):,35.06,,
Humidity (%):,1.56,,
Lamp PD:,3817,,
Shift Vector Coefficients:,-10.5391,0.0761263,-0.000134223,,
Pixel to Wavelength Coefficients:,1775.68,-0.916766,-0.000235065,,
Serial Number:,5510004,,
Scan Config Name:,Column 1,,
Scan Config Type:,Slew,,
Section 1,,
Start wavelength (nm):,900,,
End wavelength (nm):,1700,,
Pattern Pixel Width (nm):,   7.03,,,,
Exposure (ms):,  0.635,,,,
Digital Resolution:,228,,
Num Repeats:,6,,
PGA Gain:,64,,
Total Measurement Time in sec:,  2.672,,
Wavelength (nm),Absorbance (AU),Reference Signal (unitless),Sample Signal (unitless)
901.51,0.067181,108485,92937
905.376,0.075227,121306,102013
909.237,0.077219,131909,110422
913.095,0.077243,143299,119950
916.948,0.076984,156982,131482
922.079,0.079527,179937,149828
925.923,0.079948,200504,166792
929.762,0.081058,222660,184750
933.597,0.082038,244426,202353
937.427,0.080201,263972,219461
941.254,0.078966,281845,234987
945.076,0.078922,297271,247874
950.165,0.078100,315605,263660
953.978,0.076548,328029,275020
957.786,0.076779,340470,285299
961.59,0.077185,352317,294950
965.389,0.077110,363056,303993
969.185,0.077312,373162,312310
972.976,0.077199,382632,320319
976.763,0.078110,391202,326807
981.806,0.078866,400190,333734
985.583,0.078940,406088,338595
989.355,0.078691,410162,342188
993.124,0.079397,412868,343886
996.888,0.080008,414263,344563
1000.65,0.080955,415476,344819
1004.4,0.081636,415479,344281
1009.41,0.083097,414358,342199
1013.15,0.083516,412923,340685
1016.89,0.084522,411526,338747
1020.63,0.083778,409066,337299
1024.36,0.084583,406777,334791
1028.09,0.083634,404427,333585
1031.82,0.083703,401911,331457
1036.78,0.083575,398410,328666
1040.49,0.083194,396204,327133
1044.2,0.083515,394236,325268
1047.91,0.082961,392042,323871
1051.61,0.082933,389823,322058
1055.31,0.081807,388234,321578
1059,0.082599,387599,320467
1063.92,0.081068,386688,320843
1067.61,0.079913,386598,321623
1071.29,0.079545,387377,322544
1074.96,0.079301,388536,323691
1078.63,0.078373,389855,325484
1082.3,0.077517,391215,327264
1085.96,0.077179,393215,329193
1090.84,0.076057,396270,332609
1094.49,0.075177,398760,335378
1098.14,0.074880,400987,337482
1101.79,0.074002,403477,340265
1105.43,0.074318,406116,342241
1109.06,0.073166,407701,344489
1112.7,0.072864,409859,346554
1117.53,0.072494,412494,349079
1121.15,0.073173,414909,350574
1124.77,0.073210,416559,351938
1128.38,0.074461,418532,352588
1131.99,0.075369,419956,353049
1135.6,0.076132,421946,354099
1139.2,0.077551,423881,354563
1143.99,0.079806,426786,355144
1147.58,0.080445,428617,356143
1151.17,0.080819,431169,357955
1154.75,0.082345,433579,358693
1158.33,0.083938,436264,359593
1161.91,0.084950,439132,361115
1165.48,0.087785,442389,361426
1169.04,0.089417,446101,363092
1173.79,0.093134,451929,364700
1177.34,0.094974,456026,366451
1180.9,0.097100,461306,368883
1184.44,0.099606,467657,371810
1187.99,0.100200,473969,376314
1191.52,0.100098,479856,381077
1195.06,0.099582,487372,387506
1199.76,0.099211,497347,395775
1203.29,0.098548,504311,401930
1206.81,0.098211,511507,407982
1210.33,0.097668,519078,414538
1213.84,0.096854,527163,421785
1217.35,0.096358,534208,427910
1220.85,0.095728,540472,433556
1225.51,0.095046,549929,441836
1229.01,0.094217,556888,448282
1232.5,0.093870,562180,452903
1235.98,0.093328,567975,458143
1239.46,0.092379,574815,464675
1242.94,0.091348,582782,472235
1246.41,0.091034,591476,479627
1251.03,0.090802,604016,490057
1254.5,0.090751,612289,496827
1257.96,0.091328,619125,501707
1261.41,0.092036,624551,505280
1264.86,0.092580,629900,508969
1268.31,0.092783,634345,512321
1271.75,0.093548,638574,514829
1276.33,0.093580,642499,517955
1279.76,0.093624,645905,520648
1283.19,0.093042,648307,523286
1286.61,0.092774,650446,525336
1290.03,0.092452,652132,527088
1293.44,0.092057,653907,529004
1296.85,0.091347,655963,531535
1301.39,0.091171,657349,532875
1304.8,0.091210,657558,532996
1308.19,0.091410,658515,533526
1311.58,0.091363,658804,533818
1314.97,0.091801,659011,533447
1318.36,0.092218,658272,532338
1321.73,0.092185,658022,532176
1326.23,0.093277,657870,530717
1329.6,0.094054,656482,528651
1332.97,0.094657,654926,526666
1336.33,0.095782,653727,524342
1339.69,0.097248,652497,521592
1343.04,0.098520,649913,518006
1346.39,0.100403,647671,513986
1349.73,0.101951,645338,510313
1354.18,0.104948,641175,503534
1357.52,0.107088,638376,498871
1360.85,0.109052,635805,494620
1364.17,0.110665,633413,490933
1367.49,0.112984,631026,486478
1370.81,0.115185,628050,481736
1374.12,0.117400,625034,476984
1378.54,0.119736,620272,470810
1381.84,0.122567,616892,465203
1385.14,0.125470,613613,459647
1388.43,0.129109,611526,454262
1391.72,0.132875,610663,449704
1395.01,0.136959,610634,445474
1398.29,0.140922,611700,442198
1402.66,0.146499,614051,438233
1405.93,0.151611,616268,434669
1409.2,0.156251,617795,431115
1412.46,0.160160,618872,427997
1415.72,0.163593,619795,425261
1418.98,0.167127,620495,422290
1422.23,0.170249,621087,419666
1426.56,0.173400,621375,416825
1429.8,0.176023,621616,414476
1433.04,0.179093,622129,411896
1436.27,0.180971,621526,409721
1439.5,0.183130,621113,407418
1442.72,0.185041,620921,405504
1445.94,0.188182,620270,402160
1450.23,0.192035,618860,397702
1453.44,0.194270,617697,394917
1456.64,0.197653,616264,390943
1459.85,0.199944,614413,387718
1463.04,0.203373,612307,383351
1466.24,0.206634,610032,379069
1469.43,0.210670,607345,373909
1473.67,0.217363,603789,366035
1476.85,0.223281,601175,359517
1480.02,0.229695,597737,352221
1483.19,0.235969,594479,345277
1486.36,0.242591,591232,338195
1489.52,0.247169,587853,332736
1492.68,0.250963,583875,327610
1496.89,0.252338,578062,323323
1500.03,0.253582,574159,320221
1503.18,0.253382,570285,318207
1506.32,0.252845,565444,315896
1509.45,0.251042,560571,314477
1512.58,0.249407,555821,312988
1515.71,0.247268,550344,311434
1519.87,0.243974,543983,310178
1522.99,0.241309,538764,309093
1526.1,0.238990,533692,307823
1529.21,0.236752,527902,306056
1532.32,0.232971,521886,305214
1535.42,0.230229,515888,303617
1538.51,0.227531,509987,302015
1541.6,0.224532,503936,300499
1545.72,0.220621,494694,297657
1548.8,0.217759,488378,295799
1551.88,0.214569,481832,293986
1554.95,0.213868,474989,290279
1558.02,0.211604,467818,287391
1561.08,0.210916,460730,283485
1564.15,0.210540,454170,279691
1568.22,0.209136,444181,274425
1571.27,0.208115,436947,270591
1574.32,0.208259,429598,265952
1577.36,0.206667,422039,262232
1580.4,0.205505,414375,258160
1583.43,0.204382,406354,253818
1586.46,0.202110,398475,250202
1590.49,0.201329,388982,244681
1593.51,0.199277,380708,240611
1596.53,0.196811,372727,236908
1599.54,0.194453,365060,233298
1602.55,0.192536,357543,229505
1605.55,0.191065,349495,225100
1608.55,0.188710,341154,220923
1612.54,0.187717,330877,214758
1615.53,0.184879,322904,210957
1618.51,0.185086,315116,205771
1621.49,0.183397,307217,201395
1624.47,0.183203,299481,196411
1627.44,0.181060,292112,192526
1630.41,0.179500,284245,188015
1634.36,0.178729,274079,181613
1637.32,0.178772,266916,176849
1640.27,0.178097,259612,172277
1643.22,0.176952,251804,167537
1646.16,0.174924,244348,163337
1649.1,0.174312,236703,158450
1652.04,0.173331,228171,153084
1655.95,0.170703,215408,145398
1658.88,0.167059,204937,139496
1661.8,0.161267,193395,133407
1664.72,0.153443,179728,126233
1667.63,0.139803,163642,118602
1670.54,0.126497,146312,109341
1673.44,0.109563,128451,99810
1677.31,0.088043,105080,85798
1680.21,0.077206,88906,74426
1683.1,0.069425,75033,63948
1685.99,0.068599,63520,54239
1688.87,0.073683,53714,45332
1691.75,0.079080,45653,38053
1694.62,0.086719,39137,32053
1697.49,0.079176,33776,28147
1701.31,0.092997,28175,22744