Folder: textile_sorting_NIRSCAN_/samples/wool/wool-000811 (part 138)

File: Column 1_050608_20150331_122732.csv
Method:,Column 1,,
Host Date-Time:,31/3/15 @ 12:27:32,,
Header Version:,1,,
System Temp (C):,34.06,,
Detector Temp (C):,34.85,,
Humidity (%):,1.66,,
Lamp PD:,3818,,
Shift Vector Coefficients:,-10.5391,0.0761263,-0.000134223,,
Pixel to Wavelength Coefficients:,1775.68,-0.916766,-0.000235065,,
Serial Number:,5510004,,
Scan Config Name:,Column 1,,
Scan Config Type:,Slew,,
Section 1,,
Start wavelength (nm):,900,,
End wavelength (nm):,1700,,
Pattern Pixel Width (nm):,   7.03,,,,
Exposure (ms):,  0.635,,,,
Digital Resolution:,228,,
Num Repeats:,6,,
PGA Gain:,64,,
Total Measurement Time in sec:,  2.673,,
Wavelength (nm),Absorbance (AU),Reference Signal (unitless),Sample Signal (unitless)
901.51,0.067967,108485,92769
905.376,0.073091,121306,102516
909.237,0.076033,131909,110724
913.095,0.076798,143299,120073
916.948,0.077109,156982,131444
922.079,0.079284,179937,149912
925.923,0.080771,200504,166476
929.762,0.080957,222660,184793
933.597,0.081870,244426,202431
937.427,0.079305,263972,219914
941.254,0.079799,281845,234537
945.076,0.079239,297271,247693
950.165,0.077732,315605,263883
953.978,0.076738,328029,274900
957.786,0.077152,340470,285054
961.59,0.077459,352317,294764
965.389,0.076706,363056,304276
969.185,0.077424,373162,312229
972.976,0.077338,382632,320216
976.763,0.078183,391202,326752
981.806,0.078236,400190,334218
985.583,0.078992,406088,338554
989.355,0.079286,410162,341719
993.124,0.080062,412868,343360
996.888,0.079948,414263,344610
1000.65,0.080923,415476,344844
1004.4,0.082167,415479,343860
1009.41,0.083271,414358,342062
1013.15,0.083231,412923,340909
1016.89,0.084192,411526,339004
1020.63,0.084543,409066,336706
1024.36,0.084332,406777,334984
1028.09,0.083898,404427,333382
1031.82,0.083666,401911,331485
1036.78,0.083589,398410,328656
1040.49,0.083706,396204,326748
1044.2,0.083547,394236,325244
1047.91,0.083258,392042,323649
1051.61,0.082720,389823,322216
1055.31,0.082046,388234,321401
1059,0.081573,387599,321225
1063.92,0.081109,386688,320813
1067.61,0.080445,386598,321229
1071.29,0.080476,387377,321853
1074.96,0.079232,388536,323742
1078.63,0.079125,389855,324921
1082.3,0.077631,391215,327178
1085.96,0.077366,393215,329052
1090.84,0.076467,396270,332295
1094.49,0.076321,398760,334496
1098.14,0.074831,400987,337520
1101.79,0.075130,403477,339382
1105.43,0.074840,406116,341830
1109.06,0.073246,407701,344426
1112.7,0.073274,409859,346227
1117.53,0.072978,412494,348690
1121.15,0.073243,414909,350518
1124.77,0.073567,416559,351649
1128.38,0.074943,418532,352197
1131.99,0.076096,419956,352458
1135.6,0.076781,421946,353570
1139.2,0.078357,423881,353905
1143.99,0.080203,426786,354819
1147.58,0.081270,428617,355467
1151.17,0.082117,431169,356887
1154.75,0.083149,433579,358030
1158.33,0.083986,436264,359553
1161.91,0.086369,439132,359937
1165.48,0.087903,442389,361328
1169.04,0.090401,446101,362270
1173.79,0.093802,451929,364140
1177.34,0.095929,456026,365646
1180.9,0.098035,461306,368090
1184.44,0.100069,467657,371414
1187.99,0.100539,473969,376020
1191.52,0.100897,479856,380377
1195.06,0.100832,487372,386392
1199.76,0.100305,497347,394779
1203.29,0.099391,504311,401151
1206.81,0.098890,511507,407344
1210.33,0.097936,519078,414283
1213.84,0.097809,527163,420858
1217.35,0.097169,534208,427112
1220.85,0.096719,540472,432568
1225.51,0.095567,549929,441306
1229.01,0.095299,556888,447166
1232.5,0.094810,562180,451924
1235.98,0.093892,567975,457549
1239.46,0.093165,574815,463835
1242.94,0.091787,582782,471758
1246.41,0.091257,591476,479380
1251.03,0.091236,604016,489567
1254.5,0.091387,612289,496100
1257.96,0.091879,619125,501071
1261.41,0.092375,624551,504885
1264.86,0.093185,629900,508261
1268.31,0.093442,634345,511545
1271.75,0.093968,638574,514332
1276.33,0.094418,642499,516957
1279.76,0.094087,645905,520094
1283.19,0.093506,648307,522727
1286.61,0.093533,650446,524419
1290.03,0.092995,652132,526430
1293.44,0.092787,653907,528116
1296.85,0.091881,655963,530883
1301.39,0.092177,657349,531642
1304.8,0.091805,657558,532267
1308.19,0.091882,658515,532946
1311.58,0.092089,658804,532926
1314.97,0.092877,659011,532128
1318.36,0.092851,658272,531563
1321.73,0.093229,658022,530899
1326.23,0.094257,657870,529521
1329.6,0.095013,656482,527485
1332.97,0.095477,654926,525672
1336.33,0.096962,653727,522919
1339.69,0.098370,652497,520246
1343.04,0.099718,649913,516580
1346.39,0.101389,647671,512820
1349.73,0.103509,645338,508485
1354.18,0.106237,641175,502041
1357.52,0.108289,638376,497494
1360.85,0.109941,635805,493609
1364.17,0.112423,633413,488949
1367.49,0.114871,631026,484369
1370.81,0.116996,628050,479731
1374.12,0.118703,625034,475555
1378.54,0.121468,620272,468937
1381.84,0.124472,616892,463167
1385.14,0.127685,613613,457309
1388.43,0.131212,611526,452067
1391.72,0.135136,610663,447369
1395.01,0.139463,610634,442913
1398.29,0.144022,611700,439053
1402.66,0.150187,614051,434528
1405.93,0.154963,616268,431327
1409.2,0.159957,617795,427452
1412.46,0.164109,618872,424123
1415.72,0.168682,619795,420306
1418.98,0.171593,620495,417970
1422.23,0.174769,621087,415321
1426.56,0.178088,621375,412350
1429.8,0.181054,621616,409702
1433.04,0.183930,622129,407334
1436.27,0.185495,621526,405475
1439.5,0.187415,621113,403418
1442.72,0.190360,620921,400568
1445.94,0.192959,620270,397761
1450.23,0.196320,618860,393797
1453.44,0.198719,617697,390892
1456.64,0.201864,616264,387171
1459.85,0.204226,614413,383914
1463.04,0.207541,612307,379689
1466.24,0.210373,610032,375820
1469.43,0.214455,607345,370664
1473.67,0.220597,603789,363319
1476.85,0.226396,601175,356948
1480.02,0.231873,597737,350459
1483.19,0.238588,594479,343201
1486.36,0.244871,591232,336424
1489.52,0.249121,587853,331244
1492.68,0.252624,583875,326359
1496.89,0.254487,578062,321727
1500.03,0.255483,574159,318823
1503.18,0.255299,570285,316806
1506.32,0.254830,565444,314456
1509.45,0.253333,560571,312822
1512.58,0.250650,555821,312094
1515.71,0.248829,550344,310317
1519.87,0.246315,543983,308511
1522.99,0.244013,538764,307175
1526.1,0.241301,533692,306189
1529.21,0.238541,527902,304798
1532.32,0.235175,521886,303669
1535.42,0.232534,515888,302010
1538.51,0.229790,509987,300448
1541.6,0.227206,503936,298655
1545.72,0.222425,494694,296423
1548.8,0.219746,488378,294449
1551.88,0.217681,481832,291887
1554.95,0.215846,474989,288960
1558.02,0.214037,467818,285785
1561.08,0.212756,460730,282287
1564.15,0.212534,454170,278410
1568.22,0.211669,444181,272829
1571.27,0.210880,436947,268874
1574.32,0.210116,429598,264817
1577.36,0.208057,422039,261394
1580.4,0.207952,414375,256709
1583.43,0.206585,406354,252534
1586.46,0.205106,398475,248482
1590.49,0.202223,388982,244178
1593.51,0.200996,380708,239660
1596.53,0.198619,372727,235924
1599.54,0.196837,365060,232021
1602.55,0.194904,357543,228257
1605.55,0.193212,349495,223990
1608.55,0.191459,341154,219529
1612.54,0.189592,330877,213833
1615.53,0.187104,322904,209879
1618.51,0.186723,315116,204997
1621.49,0.185177,307217,200571
1624.47,0.184324,299481,195905
1627.44,0.183347,292112,191515
1630.41,0.181422,284245,187185
1634.36,0.180639,274079,180816
1637.32,0.180408,266916,176184
1640.27,0.179911,259612,171559
1643.22,0.178393,251804,166982
1646.16,0.177843,244348,162243
1649.1,0.177425,236703,157318
1652.04,0.175549,228171,152304
1655.95,0.170954,215408,145314
1658.88,0.167891,204937,139229
1661.8,0.162218,193395,133115
1664.72,0.156748,179728,125276
1667.63,0.143325,163642,117644
1670.54,0.128707,146312,108786
1673.44,0.114596,128451,98660
1677.31,0.089722,105080,85467
1680.21,0.082242,88906,73568
1683.1,0.073636,75033,63331
1685.99,0.073973,63520,53572
1688.87,0.073070,53714,45396
1691.75,0.081874,45653,37809
1694.62,0.083318,39137,32305
1697.49,0.084845,33776,27782
1701.31,0.103981,28175,22176

File: Column 1_050608_20150331_122735.csv
Method:,Column 1,,
Host Date-Time:,31/3/15 @ 12:27:35,,
Header Version:,1,,
System Temp (C):,34.04,,
Detector Temp (C):,34.85,,
Humidity (%):,1.66,,
Lamp PD:,3818,,
Shift Vector Coefficients:,-10.5391,0.0761263,-0.000134223,,
Pixel to Wavelength Coefficients:,1775.68,-0.916766,-0.000235065,,
Serial Number:,5510004,,
Scan Config Name:,Column 1,,
Scan Config Type:,Slew,,
Section 1,,
Start wavelength (nm):,900,,
End wavelength (nm):,1700,,
Pattern Pixel Width (nm):,   7.03,,,,
Exposure (ms):,  0.635,,,,
Digital Resolution:,228,,
Num Repeats:,6,,
PGA Gain:,64,,
Total Measurement Time in sec:,  2.708,,
Wavelength (nm),Absorbance (AU),Reference Signal (unitless),Sample Signal (unitless)
901.51,0.067953,108485,92772
905.376,0.074329,121306,102224
909.237,0.076323,131909,110650
913.095,0.075155,143299,120528
916.948,0.078910,156982,130900
922.079,0.080398,179937,149528
925.923,0.080633,200504,166529
929.762,0.082008,222660,184346
933.597,0.082248,244426,202255
937.427,0.080206,263972,219458
941.254,0.079880,281845,234493
945.076,0.078645,297271,248032
950.165,0.078133,315605,263640
953.978,0.077275,328029,274560
957.786,0.077368,340470,284912
961.59,0.077506,352317,294732
965.389,0.077183,363056,303942
969.185,0.077092,373162,312468
972.976,0.078002,382632,319727
976.763,0.077650,391202,327153
981.806,0.078364,400190,334120
985.583,0.078758,406088,338737
989.355,0.079781,410162,341330
993.124,0.080648,412868,342897
996.888,0.080256,414263,344366
1000.65,0.081295,415476,344549
1004.4,0.082229,415479,343811
1009.41,0.083232,414358,342093
1013.15,0.083579,412923,340636
1016.89,0.084735,411526,338581
1020.63,0.084118,409066,337035
1024.36,0.084248,406777,335049
1028.09,0.084384,404427,333009
1031.82,0.084382,401911,330939
1036.78,0.083948,398410,328384
1040.49,0.083420,396204,326963
1044.2,0.083367,394236,325379
1047.91,0.082792,392042,323997
1051.61,0.083152,389823,321896
1055.31,0.082804,388234,320841
1059,0.082532,387599,320517
1063.92,0.081901,386688,320228
1067.61,0.080815,386598,320955
1071.29,0.080464,387377,321862
1074.96,0.079564,388536,323495
1078.63,0.079604,389855,324563
1082.3,0.077981,391215,326915
1085.96,0.077538,393215,328921
1090.84,0.076633,396270,332168
1094.49,0.075824,398760,334879
1098.14,0.074952,400987,337426
1101.79,0.075273,403477,339270
1105.43,0.074408,406116,342170
1109.06,0.074114,407701,343738
1112.7,0.073661,409859,345918
1117.53,0.073398,412494,348353
1121.15,0.073586,414909,350241
1124.77,0.073832,416559,351435
1128.38,0.075026,418532,352130
1131.99,0.076382,419956,352226
1135.6,0.077485,421946,352998
1139.2,0.078016,423881,354183
1143.99,0.080664,426786,354443
1147.58,0.081510,428617,355271
1151.17,0.082140,431169,356868
1154.75,0.082994,433579,358158
1158.33,0.084457,436264,359164
1161.91,0.086173,439132,360099
1165.48,0.088710,442389,360657
1169.04,0.090836,446101,361907
1173.79,0.094239,451929,363774
1177.34,0.096200,456026,365418
1180.9,0.098447,461306,367741
1184.44,0.100188,467657,371312
1187.99,0.101067,473969,375563
1191.52,0.101255,479856,380063
1195.06,0.100979,487372,386262
1199.76,0.100281,497347,394801
1203.29,0.099253,504311,401278
1206.81,0.098962,511507,407277
1210.33,0.098652,519078,413600
1213.84,0.098180,527163,420499
1217.35,0.097327,534208,426956
1220.85,0.096628,540472,432658
1225.51,0.095635,549929,441237
1229.01,0.095709,556888,446744
1232.5,0.094772,562180,451964
1235.98,0.094615,567975,456788
1239.46,0.092987,574815,464025
1242.94,0.092044,582782,471479
1246.41,0.092102,591476,478448
1251.03,0.091598,604016,489159
1254.5,0.091528,612289,495939
1257.96,0.092002,619125,500929
1261.41,0.092961,624551,504205
1264.86,0.092870,629900,508629
1268.31,0.093617,634345,511339
1271.75,0.094281,638574,513961
1276.33,0.094648,642499,516683
1279.76,0.094510,645905,519588
1283.19,0.093739,648307,522446
1286.61,0.093580,650446,524362
1290.03,0.092984,652132,526443
1293.44,0.092680,653907,528246
1296.85,0.092714,655963,529865
1301.39,0.091862,657349,532028
1304.8,0.092076,657558,531934
1308.19,0.092010,658515,532790
1311.58,0.092504,658804,532417
1314.97,0.093167,659011,531772
1318.36,0.093292,658272,531023
1321.73,0.093674,658022,530355
1326.23,0.094086,657870,529730
1329.6,0.095330,656482,527100
1332.97,0.095909,654926,525150
1336.33,0.097074,653727,522784
1339.69,0.098044,652497,520636
1343.04,0.099612,649913,516706
1346.39,0.101798,647671,512338
1349.73,0.103563,645338,508422
1354.18,0.106678,641175,501532
1357.52,0.108797,638376,496912
1360.85,0.110804,635805,492629
1364.17,0.112639,633413,488706
1367.49,0.114866,631026,484375
1370.81,0.117253,628050,479448
1374.12,0.119224,625034,474985
1378.54,0.121513,620272,468888
1381.84,0.124812,616892,462804
1385.14,0.127736,613613,457255
1388.43,0.131537,611526,451729
1391.72,0.135655,610663,446834
1395.01,0.139690,610634,442681
1398.29,0.143786,611700,439291
1402.66,0.150047,614051,434668
1405.93,0.155258,616268,431034
1409.2,0.160035,617795,427375
1412.46,0.164168,618872,424065
1415.72,0.168413,619795,420567
1418.98,0.171636,620495,417929
1422.23,0.174924,621087,415172
1426.56,0.178263,621375,412184
1429.8,0.181333,621616,409439
1433.04,0.183399,622129,407832
1436.27,0.185684,621526,405299
1439.5,0.187924,621113,402946
1442.72,0.190382,620921,400548
1445.94,0.192694,620270,398003
1450.23,0.195947,618860,394135
1453.44,0.199404,617697,390276
1456.64,0.201835,616264,387197
1459.85,0.205016,614413,383217
1463.04,0.207980,612307,379306
1466.24,0.210847,610032,375410
1469.43,0.214722,607345,370436
1473.67,0.221148,603789,362858
1476.85,0.226831,601175,356591
1480.02,0.232570,597737,349897
1483.19,0.239359,594479,342592
1486.36,0.245103,591232,336244
1489.52,0.250008,587853,330568
1492.68,0.252699,583875,326303
1496.89,0.254802,578062,321494
1500.03,0.255901,574159,318516
1503.18,0.255633,570285,316562
1506.32,0.255489,565444,313979
1509.45,0.253614,560571,312620
1512.58,0.251471,555821,311504
1515.71,0.249448,550344,309875
1519.87,0.246785,543983,308177
1522.99,0.243641,538764,307438
1526.1,0.241664,533692,305933
1529.21,0.238836,527902,304591
1532.32,0.236377,521886,302830
1535.42,0.232783,515888,301837
1538.51,0.229833,509987,300418
1541.6,0.227163,503936,298684
1545.72,0.223665,494694,295578
1548.8,0.220775,488378,293752
1551.88,0.218481,481832,291350
1554.95,0.215822,474989,288976
1558.02,0.214361,467818,285572
1561.08,0.212571,460730,282407
1564.15,0.212440,454170,278470
1568.22,0.212201,444181,272495
1571.27,0.211782,436947,268316
1574.32,0.210056,429598,264854
1577.36,0.208893,422039,260891
1580.4,0.207998,414375,256682
1583.43,0.206165,406354,252778
1586.46,0.205017,398475,248533
1590.49,0.202784,388982,243863
1593.51,0.200855,380708,239738
1596.53,0.198877,372727,235784
1599.54,0.197427,365060,231706
1602.55,0.195534,357543,227926
1605.55,0.192379,349495,224420
1608.55,0.191364,341154,219577
1612.54,0.188770,330877,214238
1615.53,0.187916,322904,209487
1618.51,0.185357,315116,205643
1621.49,0.186224,307217,200088
1624.47,0.186246,299481,195040
1627.44,0.183857,292112,191290
1630.41,0.182493,284245,186724
1634.36,0.181861,274079,180308
1637.32,0.179743,266916,176454
1640.27,0.180841,259612,171192
1643.22,0.179179,251804,166680
1646.16,0.177835,244348,162246
1649.1,0.177823,236703,157174
1652.04,0.176531,228171,151960
1655.95,0.173280,215408,144538
1658.88,0.169441,204937,138733
1661.8,0.163440,193395,132741
1664.72,0.157279,179728,125123
1667.63,0.144930,163642,117210
1670.54,0.127794,146312,109015
1673.44,0.111727,128451,99314
1677.31,0.094751,105080,84483
1680.21,0.078504,88906,74204
1683.1,0.075423,75033,63071
1685.99,0.078528,63520,53013
1688.87,0.078994,53714,44781
1691.75,0.080166,45653,37958
1694.62,0.089069,39137,31880
1697.49,0.086552,33776,27673
1701.31,0.108984,28175,21922

File: Column 1_050608_20150331_122737.csv
Method:,Column 1,,
Host Date-Time:,31/3/15 @ 12:27:37,,
Header Version:,1,,
System Temp (C):,34.04,,
Detector Temp (C):,34.88,,
Humidity (%):,1.66,,
Lamp PD:,3818,,
Shift Vector Coefficients:,-10.5391,0.0761263,-0.000134223,,
Pixel to Wavelength Coefficients:,1775.68,-0.916766,-0.000235065,,
Serial Number:,5510004,,
Scan Config Name:,Column 1,,
Scan Config Type:,Slew,,
Section 1,,
Start wavelength (nm):,900,,
End wavelength (nm):,1700,,
Pattern Pixel Width (nm):,   7.03,,,,
Exposure (ms):,  0.635,,,,
Digital Resolution:,228,,
Num Repeats:,6,,
PGA Gain:,64,,
Total Measurement Time in sec:,  2.719,,
Wavelength (nm),Absorbance (AU),Reference Signal (unitless),Sample Signal (unitless)
901.51,0.067555,108485,92857
905.376,0.072815,121306,102581
909.237,0.076657,131909,110565
913.095,0.074727,143299,120647
916.948,0.077506,156982,131324
922.079,0.080070,179937,149641
925.923,0.081207,200504,166309
929.762,0.081768,222660,184448
933.597,0.081236,244426,202727
937.427,0.080406,263972,219357
941.254,0.079779,281845,234548
945.076,0.078375,297271,248186
950.165,0.077800,315605,263842
953.978,0.077232,328029,274587
957.786,0.077376,340470,284907
961.59,0.077713,352317,294592
965.389,0.076979,363056,304085
969.185,0.077325,373162,312300
972.976,0.077960,382632,319758
976.763,0.078203,391202,326737
981.806,0.077700,400190,334631
985.583,0.078774,406088,338724
989.355,0.079577,410162,341490
993.124,0.080064,412868,343358
996.888,0.080334,414263,344304
1000.65,0.081397,415476,344468
1004.4,0.082257,415479,343789
1009.41,0.084145,414358,341374
1013.15,0.084039,412923,340275
1016.89,0.084122,411526,339059
1020.63,0.084176,409066,336990
1024.36,0.084622,406777,334761
1028.09,0.084515,404427,332909
1031.82,0.083350,401911,331726
1036.78,0.083540,398410,328693
1040.49,0.083685,396204,326764
1044.2,0.083674,394236,325149
1047.91,0.082667,392042,324090
1051.61,0.082840,389823,322127
1055.31,0.082479,388234,321081
1059,0.081959,387599,320940
1063.92,0.081777,386688,320320
1067.61,0.080229,386598,321389
1071.29,0.080545,387377,321802
1074.96,0.079494,388536,323547
1078.63,0.079674,389855,324511
1082.3,0.078224,391215,326732
1085.96,0.077536,393215,328923
1090.84,0.076667,396270,332142
1094.49,0.075935,398760,334793
1098.14,0.075543,400987,336967
1101.79,0.074898,403477,339563
1105.43,0.074704,406116,341937
1109.06,0.073747,407701,344029
1112.7,0.073250,409859,346246
1117.53,0.072867,412494,348779
1121.15,0.073627,414909,350208
1124.77,0.073961,416559,351330
1128.38,0.074646,418532,352438
1131.99,0.075328,419956,353082
1135.6,0.077235,421946,353201
1139.2,0.078592,423881,353714
1143.99,0.080397,426786,354661
1147.58,0.080927,428617,355748
1151.17,0.082005,431169,356979
1154.75,0.082715,433579,358388
1158.33,0.084515,436264,359116
1161.91,0.086328,439132,359971
1165.48,0.088333,442389,360970
1169.04,0.090473,446101,362210
1173.79,0.093884,451929,364071
1177.34,0.095561,456026,365956
1180.9,0.098140,461306,368001
1184.44,0.099950,467657,371516
1187.99,0.100735,473969,375850
1191.52,0.101037,479856,380254
1195.06,0.100743,487372,386472
1199.76,0.100337,497347,394750
1203.29,0.099183,504311,401343
1206.81,0.098871,511507,407362
1210.33,0.098312,519078,413924
1213.84,0.098123,527163,420554
1217.35,0.097224,534208,427058
1220.85,0.096356,540472,432930
1225.51,0.095793,549929,441076
1229.01,0.095057,556888,447415
1232.5,0.094680,562180,452059
1235.98,0.094177,567975,457248
1239.46,0.093284,574815,463707
1242.94,0.092317,582782,471182
1246.41,0.091569,591476,479036
1251.03,0.091317,604016,489476
1254.5,0.091523,612289,495945
1257.96,0.092202,619125,500698
1261.41,0.092262,624551,505017
1264.86,0.092730,629900,508794
1268.31,0.093540,634345,511429
1271.75,0.094182,638574,514078
1276.33,0.094332,642499,517060
1279.76,0.094019,645905,520175
1283.19,0.093833,648307,522333
1286.61,0.093332,650446,524662
1290.03,0.093171,652132,526216
1293.44,0.092752,653907,528158
1296.85,0.092387,655963,530264
1301.39,0.091949,657349,531921
1304.8,0.091936,657558,532106
1308.19,0.092214,658515,532539
1311.58,0.092159,658804,532841
1314.97,0.092905,659011,532093
1318.36,0.093206,658272,531128
1321.73,0.093708,658022,530313
1326.23,0.094092,657870,529722
1329.6,0.094614,656482,527969
1332.97,0.095872,654926,525195
1336.33,0.096697,653727,523238
1339.69,0.098401,652497,520208
1343.04,0.099581,649913,516742
1346.39,0.101593,647671,512580
1349.73,0.103803,645338,508141
1354.18,0.106778,641175,501417
1357.52,0.108655,638376,497075
1360.85,0.110344,635805,493151
1364.17,0.112288,633413,489101
1367.49,0.114785,631026,484465
1370.81,0.116721,628050,480035
1374.12,0.118681,625034,475579
1378.54,0.121395,620272,469015
1381.84,0.124158,616892,463501
1385.14,0.127673,613613,457321
1388.43,0.131481,611526,451787
1391.72,0.135487,610663,447007
1395.01,0.139683,610634,442688
1398.29,0.143845,611700,439232
1402.66,0.150049,614051,434666
1405.93,0.155253,616268,431039
1409.2,0.159609,617795,427795
1412.46,0.164282,618872,423954
1415.72,0.167683,619795,421274
1418.98,0.171173,620495,418375
1422.23,0.174743,621087,415345
1426.56,0.178308,621375,412141
1429.8,0.181188,621616,409576
1433.04,0.183692,622129,407557
1436.27,0.185448,621526,405519
1439.5,0.188005,621113,402871
1442.72,0.190057,620921,400848
1445.94,0.192900,620270,397815
1450.23,0.195958,618860,394125
1453.44,0.198912,617697,390718
1456.64,0.201557,616264,387445
1459.85,0.204216,614413,383923
1463.04,0.207267,612307,379929
1466.24,0.210940,610032,375329
1469.43,0.214706,607345,370450
1473.67,0.220865,603789,363095
1476.85,0.226580,601175,356797
1480.02,0.232535,597737,349925
1483.19,0.239025,594479,342856
1486.36,0.244797,591232,336481
1489.52,0.249291,587853,331114
1492.68,0.252425,583875,326509
1496.89,0.254602,578062,321642
1500.03,0.255122,574159,319088
1503.18,0.255540,570285,316630
1506.32,0.254238,565444,314885
1509.45,0.253244,560571,312886
1512.58,0.252260,555821,310939
1515.71,0.249525,550344,309820
1519.87,0.245817,543983,308865
1522.99,0.243621,538764,307452
1526.1,0.241139,533692,306303
1529.21,0.238725,527902,304669
1532.32,0.235562,521886,303399
1535.42,0.232776,515888,301842
1538.51,0.229746,509987,300478
1541.6,0.226977,503936,298812
1545.72,0.222306,494694,296504
1548.8,0.219734,488378,294457
1551.88,0.217257,481832,292172
1554.95,0.215986,474989,288867
1558.02,0.214614,467818,285406
1561.08,0.212528,460730,282435
1564.15,0.212779,454170,278253
1568.22,0.212050,444181,272590
1571.27,0.211156,436947,268703
1574.32,0.209967,429598,264908
1577.36,0.208426,422039,261172
1580.4,0.208086,414375,256630
1583.43,0.205745,406354,253023
1586.46,0.204924,398475,248586
1590.49,0.202492,388982,244027
1593.51,0.200937,380708,239693
1596.53,0.198726,372727,235866
1599.54,0.196790,365060,232046
1602.55,0.195369,357543,228013
1605.55,0.192335,349495,224443
1608.55,0.190783,341154,219871
1612.54,0.190082,330877,213592
1615.53,0.187086,322904,209888
1618.51,0.186084,315116,205299
1621.49,0.185344,307217,200494
1624.47,0.184330,299481,195902
1627.44,0.183222,292112,191570
1630.41,0.182797,284245,186593
1634.36,0.181329,274079,180529
1637.32,0.180961,266916,175960
1640.27,0.180400,259612,171366
1643.22,0.178856,251804,166804
1646.16,0.178309,244348,162069
1649.1,0.177067,236703,157448
1652.04,0.176700,228171,151901
1655.95,0.172958,215408,144645
1658.88,0.169513,204937,138710
1661.8,0.163077,193395,132852
1664.72,0.155737,179728,125568
1667.63,0.143174,163642,117685
1670.54,0.128951,146312,108725
1673.44,0.113607,128451,98885
1677.31,0.091759,105080,85067
1680.21,0.081305,88906,73727
1683.1,0.076622,75033,62897
1685.99,0.076460,63520,53266
1688.87,0.076393,53714,45050
1691.75,0.085010,45653,37537
1694.62,0.089942,39137,31816
1697.49,0.090208,33776,27441
1701.31,0.100237,28175,22368