Folder: textile_sorting_NIRSCAN_/samples/wool/wool-000811 (part 114)

File: Column 1_050595_20150331_122104.csv
Method:,Column 1,,
Host Date-Time:,31/3/15 @ 12:21:4,,
Header Version:,1,,
System Temp (C):,33.94,,
Detector Temp (C):,34.69,,
Humidity (%):,1.76,,
Lamp PD:,3818,,
Shift Vector Coefficients:,-10.5391,0.0761263,-0.000134223,,
Pixel to Wavelength Coefficients:,1775.68,-0.916766,-0.000235065,,
Serial Number:,5510004,,
Scan Config Name:,Column 1,,
Scan Config Type:,Slew,,
Section 1,,
Start wavelength (nm):,900,,
End wavelength (nm):,1700,,
Pattern Pixel Width (nm):,   7.03,,,,
Exposure (ms):,  0.635,,,,
Digital Resolution:,228,,
Num Repeats:,6,,
PGA Gain:,64,,
Total Measurement Time in sec:,  2.673,,
Wavelength (nm),Absorbance (AU),Reference Signal (unitless),Sample Signal (unitless)
901.51,0.067794,108485,92806
905.376,0.073269,121306,102474
909.237,0.076095,131909,110708
913.095,0.077438,143299,119896
916.948,0.079495,156982,130724
922.079,0.079527,179937,149828
925.923,0.081740,200504,166105
929.762,0.082291,222660,184226
933.597,0.082072,244426,202337
937.427,0.081757,263972,218676
941.254,0.080551,281845,234131
945.076,0.079995,297271,247262
950.165,0.078678,315605,263309
953.978,0.078185,328029,273985
957.786,0.078400,340470,284236
961.59,0.078310,352317,294187
965.389,0.078614,363056,302942
969.185,0.078314,373162,311590
972.976,0.079078,382632,318936
976.763,0.079753,391202,325573
981.806,0.080016,400190,332851
985.583,0.080009,406088,337762
989.355,0.080567,410162,340713
993.124,0.080925,412868,342678
996.888,0.081892,414263,343071
1000.65,0.082728,415476,343414
1004.4,0.083531,415479,342782
1009.41,0.084222,414358,341314
1013.15,0.085311,412923,339280
1016.89,0.085370,411526,338086
1020.63,0.085241,409066,336165
1024.36,0.085364,406777,334189
1028.09,0.085648,404427,332041
1031.82,0.085348,401911,330204
1036.78,0.084704,398410,327813
1040.49,0.084904,396204,325848
1044.2,0.084457,394236,324563
1047.91,0.083981,392042,323111
1051.61,0.083886,389823,321352
1055.31,0.083531,388234,320304
1059,0.082983,387599,320184
1063.92,0.082690,386688,319647
1067.61,0.081270,386598,320619
1071.29,0.081043,387377,321433
1074.96,0.081089,388536,322361
1078.63,0.080506,389855,323890
1082.3,0.079083,391215,326086
1085.96,0.078555,393215,328152
1090.84,0.077664,396270,331381
1094.49,0.076766,398760,334153
1098.14,0.076604,400987,336145
1101.79,0.076438,403477,338361
1105.43,0.075640,406116,341201
1109.06,0.075155,407701,342915
1112.7,0.075421,409859,344519
1117.53,0.074875,412494,347170
1121.15,0.075361,414909,348812
1124.77,0.074969,416559,350516
1128.38,0.076137,418532,351230
1131.99,0.077303,419956,351480
1135.6,0.078437,421946,352225
1139.2,0.079501,423881,352974
1143.99,0.081749,426786,353558
1147.58,0.082579,428617,354397
1151.17,0.084012,431169,355333
1154.75,0.085026,433579,356486
1158.33,0.086288,436264,357653
1161.91,0.087854,439132,358708
1165.48,0.089585,442389,359931
1169.04,0.092269,446101,360715
1173.79,0.095664,451929,362582
1177.34,0.098252,456026,363695
1180.9,0.099634,461306,366737
1184.44,0.100933,467657,370676
1187.99,0.102084,473969,374685
1191.52,0.102303,479856,379147
1195.06,0.102436,487372,384968
1199.76,0.101392,497347,393793
1203.29,0.100862,504311,399794
1206.81,0.100506,511507,405831
1210.33,0.099663,519078,412638
1213.84,0.099610,527163,419117
1217.35,0.098710,534208,425599
1220.85,0.097997,540472,431297
1225.51,0.097133,549929,439717
1229.01,0.097057,556888,445360
1232.5,0.096191,562180,450489
1235.98,0.095468,567975,455891
1239.46,0.094614,574815,462290
1242.94,0.093914,582782,469453
1246.41,0.093372,591476,477051
1251.03,0.093099,604016,487472
1254.5,0.093191,612289,494044
1257.96,0.093660,619125,499021
1261.41,0.094327,624551,502621
1264.86,0.094702,629900,506489
1268.31,0.095406,634345,509236
1271.75,0.095836,638574,512124
1276.33,0.096333,642499,514682
1279.76,0.095930,645905,517891
1283.19,0.095625,648307,520183
1286.61,0.094682,650446,523033
1290.03,0.094751,652132,524306
1293.44,0.094276,653907,526308
1296.85,0.094129,655963,528142
1301.39,0.093682,657349,529802
1304.8,0.093752,657558,529886
1308.19,0.094142,658515,530181
1311.58,0.094294,658804,530227
1314.97,0.094215,659011,530491
1318.36,0.094996,658272,528944
1321.73,0.095120,658022,528592
1326.23,0.096253,657870,527093
1329.6,0.097259,656482,524764
1332.97,0.098191,654926,522398
1336.33,0.099025,653727,520441
1339.69,0.100656,652497,517515
1343.04,0.102165,649913,513677
1346.39,0.103780,647671,510005
1349.73,0.105829,645338,505776
1354.18,0.108703,641175,499199
1357.52,0.110858,638376,494560
1360.85,0.113053,635805,490084
1364.17,0.114719,633413,486371
1367.49,0.117367,631026,481593
1370.81,0.119001,628050,477522
1374.12,0.121648,625034,472341
1378.54,0.124151,620272,466049
1381.84,0.127391,616892,460064
1385.14,0.130755,613613,454087
1388.43,0.134611,611526,448543
1391.72,0.138593,610663,443822
1395.01,0.143365,610634,438951
1398.29,0.148027,611700,435022
1402.66,0.154764,614051,429972
1405.93,0.159938,616268,426414
1409.2,0.165018,617795,422500
1412.46,0.169319,618872,419065
1415.72,0.173598,619795,415576
1418.98,0.177602,620495,412227
1422.23,0.180942,621087,409459
1426.56,0.184448,621375,406355
1429.8,0.187070,621616,404066
1433.04,0.189693,622129,401964
1436.27,0.191725,621526,399700
1439.5,0.194144,621113,397216
1442.72,0.196719,620921,394746
1445.94,0.198291,620270,392907
1450.23,0.202360,618860,388358
1453.44,0.204913,617697,385356
1456.64,0.207333,616264,382326
1459.85,0.210319,614413,378566
1463.04,0.212557,612307,375329
1466.24,0.216255,610032,370764
1469.43,0.220107,607345,365871
1473.67,0.225970,603789,358852
1476.85,0.231525,601175,352757
1480.02,0.236427,597737,346803
1483.19,0.242862,594479,339840
1486.36,0.248157,591232,333888
1489.52,0.253162,587853,328176
1492.68,0.256074,583875,323777
1496.89,0.257740,578062,319326
1500.03,0.259242,574159,316075
1503.18,0.258110,570285,314762
1506.32,0.256701,565444,313104
1509.45,0.256424,560571,310604
1512.58,0.254847,555821,309092
1515.71,0.252731,550344,307541
1519.87,0.249528,543983,306237
1522.99,0.246611,538764,305343
1526.1,0.244381,533692,304025
1529.21,0.241671,527902,302609
1532.32,0.238933,521886,301053
1535.42,0.236108,515888,299535
1538.51,0.233187,509987,298107
1541.6,0.230282,503936,296547
1545.72,0.226187,494694,293866
1548.8,0.223399,488378,291983
1551.88,0.221559,481832,289292
1554.95,0.219758,474989,286369
1558.02,0.216970,467818,283862
1561.08,0.216589,460730,279806
1564.15,0.215852,454170,276291
1568.22,0.215232,444181,270600
1571.27,0.214495,436947,266645
1574.32,0.213234,429598,262923
1577.36,0.212184,422039,258922
1580.4,0.210950,414375,254943
1583.43,0.209698,406354,250730
1586.46,0.207815,398475,246937
1590.49,0.205397,388982,242400
1593.51,0.203681,380708,238183
1596.53,0.202155,372727,234011
1599.54,0.200189,365060,230237
1602.55,0.197308,357543,226997
1605.55,0.196673,349495,222212
1608.55,0.194169,341154,218163
1612.54,0.192913,330877,212204
1615.53,0.190126,322904,208424
1618.51,0.188689,315116,204071
1621.49,0.188267,307217,199149
1624.47,0.187501,299481,194477
1627.44,0.185997,292112,190350
1630.41,0.185834,284245,185293
1634.36,0.184424,274079,179247
1637.32,0.183257,266916,175032
1640.27,0.182868,259612,170395
1643.22,0.182023,251804,165592
1646.16,0.180722,244348,161171
1649.1,0.181104,236703,155991
1652.04,0.177917,228171,151476
1655.95,0.175536,215408,143789
1658.88,0.172696,204937,137697
1661.8,0.165996,193395,131962
1664.72,0.159736,179728,124417
1667.63,0.146106,163642,116893
1670.54,0.130668,146312,108296
1673.44,0.115248,128451,98512
1677.31,0.094699,105080,84493
1680.21,0.084153,88906,73245
1683.1,0.080416,75033,62350
1685.99,0.078364,63520,53033
1688.87,0.083772,53714,44291
1691.75,0.086342,45653,37422
1694.62,0.091501,39137,31702
1697.49,0.097582,33776,26979
1701.31,0.105963,28175,22075

File: Column 1_050595_20150331_122107.csv
Method:,Column 1,,
Host Date-Time:,31/3/15 @ 12:21:7,,
Header Version:,1,,
System Temp (C):,33.9,,
Detector Temp (C):,34.72,,
Humidity (%):,1.76,,
Lamp PD:,3818,,
Shift Vector Coefficients:,-10.5391,0.0761263,-0.000134223,,
Pixel to Wavelength Coefficients:,1775.68,-0.916766,-0.000235065,,
Serial Number:,5510004,,
Scan Config Name:,Column 1,,
Scan Config Type:,Slew,,
Section 1,,
Start wavelength (nm):,900,,
End wavelength (nm):,1700,,
Pattern Pixel Width (nm):,   7.03,,,,
Exposure (ms):,  0.635,,,,
Digital Resolution:,228,,
Num Repeats:,6,,
PGA Gain:,64,,
Total Measurement Time in sec:,  2.725,,
Wavelength (nm),Absorbance (AU),Reference Signal (unitless),Sample Signal (unitless)
901.51,0.070827,108485,92160
905.376,0.075691,121306,101904
909.237,0.076531,131909,110597
913.095,0.077707,143299,119822
916.948,0.079860,156982,130614
922.079,0.081119,179937,149280
925.923,0.081798,200504,166083
929.762,0.083436,222660,183741
933.597,0.082386,244426,202191
937.427,0.081689,263972,218710
941.254,0.080861,281845,233964
945.076,0.080183,297271,247155
950.165,0.079970,315605,262527
953.978,0.078829,328029,273579
957.786,0.079074,340470,283795
961.59,0.078948,352317,293755
965.389,0.078897,363056,302745
969.185,0.078845,373162,311209
972.976,0.079358,382632,318730
976.763,0.079366,391202,325863
981.806,0.080035,400190,332837
985.583,0.080473,406088,337402
989.355,0.081293,410162,340144
993.124,0.081784,412868,342001
996.888,0.082031,414263,342961
1000.65,0.082736,415476,343408
1004.4,0.083811,415479,342561
1009.41,0.084372,414358,341196
1013.15,0.085034,412923,339496
1016.89,0.085396,411526,338066
1020.63,0.085079,409066,336290
1024.36,0.085869,406777,333801
1028.09,0.085454,404427,332190
1031.82,0.085824,401911,329842
1036.78,0.084676,398410,327834
1040.49,0.085126,396204,325681
1044.2,0.085053,394236,324118
1047.91,0.084908,392042,322422
1051.61,0.084137,389823,321167
1055.31,0.084218,388234,319798
1059,0.084357,387599,319173
1063.92,0.082785,386688,319577
1067.61,0.082271,386598,319881
1071.29,0.081437,387377,321142
1074.96,0.081364,388536,322157
1078.63,0.080472,389855,323915
1082.3,0.079784,391215,325560
1085.96,0.079654,393215,327323
1090.84,0.078323,396270,330878
1094.49,0.077661,398760,333465
1098.14,0.077705,400987,335294
1101.79,0.076770,403477,338103
1105.43,0.076317,406116,340669
1109.06,0.075732,407701,342460
1112.7,0.075145,409859,344738
1117.53,0.074966,412494,347098
1121.15,0.075517,414909,348687
1124.77,0.075678,416559,349944
1128.38,0.076756,418532,350730
1131.99,0.077388,419956,351411
1135.6,0.079345,421946,351489
1139.2,0.080204,423881,352403
1143.99,0.082292,426786,353117
1147.58,0.083434,428617,353700
1151.17,0.084045,431169,355306
1154.75,0.085082,433579,356440
1158.33,0.087005,436264,357063
1161.91,0.088135,439132,358476
1165.48,0.090273,442389,359361
1169.04,0.092510,446101,360515
1173.79,0.095660,451929,362585
1177.34,0.098372,456026,363595
1180.9,0.099906,461306,366508
1184.44,0.101944,467657,369814
1187.99,0.102828,473969,374043
1191.52,0.102981,479856,378556
1195.06,0.102800,487372,384645
1199.76,0.102047,497347,393199
1203.29,0.100785,504311,399865
1206.81,0.100727,511507,405625
1210.33,0.100312,519078,412022
1213.84,0.099587,527163,419139
1217.35,0.098974,534208,425340
1220.85,0.098398,540472,430899
1225.51,0.097747,549929,439096
1229.01,0.097167,556888,445247
1232.5,0.096350,562180,450324
1235.98,0.096133,567975,455194
1239.46,0.094853,574815,462035
1242.94,0.094093,582782,469260
1246.41,0.093416,591476,477003
1251.03,0.093496,604016,487026
1254.5,0.093494,612289,493699
1257.96,0.093910,619125,498733
1261.41,0.094676,624551,502217
1264.86,0.095089,629900,506037
1268.31,0.095308,634345,509352
1271.75,0.096044,638574,511879
1276.33,0.096002,642499,515075
1279.76,0.095966,645905,517849
1283.19,0.095476,648307,520361
1286.61,0.095541,650446,522000
1290.03,0.095049,652132,523946
1293.44,0.094161,653907,526447
1296.85,0.094213,655963,528039
1301.39,0.093699,657349,529782
1304.8,0.094148,657558,529402
1308.19,0.094107,658515,530223
1311.58,0.094428,658804,530064
1314.97,0.094955,659011,529588
1318.36,0.095322,658272,528547
1321.73,0.095598,658022,528010
1326.23,0.096612,657870,526657
1329.6,0.097077,656482,524984
1332.97,0.098168,654926,522425
1336.33,0.099032,653727,520432
1339.69,0.100843,652497,517292
1343.04,0.102637,649913,513119
1346.39,0.104207,647671,509504
1349.73,0.106213,645338,505329
1354.18,0.109090,641175,498754
1357.52,0.111378,638376,493968
1360.85,0.113218,635805,489898
1364.17,0.115018,633413,486037
1367.49,0.117283,631026,481686
1370.81,0.119749,628050,476700
1374.12,0.121670,625034,472317
1378.54,0.125066,620272,465068
1381.84,0.127529,616892,459918
1385.14,0.130786,613613,454055
1388.43,0.134580,611526,448575
1391.72,0.139302,610663,443098
1395.01,0.143875,610634,438436
1398.29,0.148520,611700,434529
1402.66,0.154647,614051,430088
1405.93,0.160444,616268,425918
1409.2,0.164919,617795,422596
1412.46,0.169776,618872,418625
1415.72,0.173925,619795,415263
1418.98,0.177351,620495,412465
1422.23,0.181849,621087,408605
1426.56,0.184869,621375,405961
1429.8,0.187751,621616,403433
1433.04,0.189743,622129,401918
1436.27,0.192793,621526,398718
1439.5,0.194084,621113,397271
1442.72,0.196452,620921,394988
1445.94,0.198611,620270,392618
1450.23,0.202900,618860,387876
1453.44,0.205342,617697,384976
1456.64,0.208207,616264,381557
1459.85,0.210662,614413,378267
1463.04,0.213270,612307,374713
1466.24,0.216499,610032,370556
1469.43,0.220033,607345,365934
1473.67,0.226235,603789,358633
1476.85,0.231392,601175,352865
1480.02,0.236907,597737,346420
1483.19,0.243054,594479,339690
1486.36,0.248210,591232,333847
1489.52,0.253117,587853,328210
1492.68,0.256173,583875,323703
1496.89,0.258770,578062,318570
1500.03,0.258484,574159,316627
1503.18,0.258890,570285,314197
1506.32,0.258591,565444,311744
1509.45,0.257181,560571,310063
1512.58,0.255888,555821,308352
1515.71,0.253294,550344,307143
1519.87,0.249728,543983,306096
1522.99,0.247952,538764,304401
1526.1,0.245456,533692,303274
1529.21,0.242107,527902,302306
1532.32,0.239373,521886,300748
1535.42,0.236762,515888,299084
1538.51,0.233506,509987,297888
1541.6,0.231195,503936,295924
1545.72,0.226413,494694,293713
1548.8,0.223753,488378,291745
1551.88,0.221730,481832,289178
1554.95,0.220820,474989,285669
1558.02,0.219160,467818,282434
1561.08,0.216526,460730,279847
1564.15,0.216487,454170,275887
1568.22,0.215439,444181,270471
1571.27,0.215345,436947,266124
1574.32,0.214037,429598,262437
1577.36,0.213171,422039,258334
1580.4,0.215024,414375,252563
1583.43,0.209671,406354,250746
1586.46,0.208834,398475,246358
1590.49,0.206168,388982,241970
1593.51,0.204353,380708,237815
1596.53,0.202175,372727,234000
1599.54,0.201283,365060,229658
1602.55,0.198429,357543,226412
1605.55,0.196832,349495,222131
1608.55,0.195539,341154,217476
1612.54,0.193064,330877,212130
1615.53,0.190687,322904,208155
1618.51,0.189224,315116,203820
1621.49,0.189291,307217,198680
1624.47,0.186074,299481,195117
1627.44,0.187002,292112,189910
1630.41,0.186418,284245,185044
1634.36,0.183998,274079,179423
1637.32,0.183960,266916,174749
1640.27,0.184050,259612,169932
1643.22,0.182412,251804,165444
1646.16,0.181358,244348,160935
1649.1,0.179964,236703,156401
1652.04,0.180136,228171,150704
1655.95,0.176840,215408,143358
1658.88,0.173811,204937,137344
1661.8,0.167127,193395,131619
1664.72,0.160148,179728,124299
1667.63,0.147931,163642,116403
1670.54,0.133149,146312,107679
1673.44,0.118146,128451,97857
1677.31,0.098058,105080,83842
1680.21,0.086120,88906,72914
1683.1,0.082259,75033,62086
1685.99,0.082619,63520,52516
1688.87,0.084754,53714,44191
1691.75,0.089475,45653,37153
1694.62,0.098085,39137,31225
1697.49,0.094455,33776,27174
1701.31,0.109995,28175,21871

File: Column 1_050595_20150331_122113.csv
Method:,Column 1,,
Host Date-Time:,31/3/15 @ 12:21:13,,
Header Version:,1,,
System Temp (C):,33.91,,
Detector Temp (C):,34.69,,
Humidity (%):,1.76,,
Lamp PD:,3818,,
Shift Vector Coefficients:,-10.5391,0.0761263,-0.000134223,,
Pixel to Wavelength Coefficients:,1775.68,-0.916766,-0.000235065,,
Serial Number:,5510004,,
Scan Config Name:,Column 1,,
Scan Config Type:,Slew,,
Section 1,,
Start wavelength (nm):,900,,
End wavelength (nm):,1700,,
Pattern Pixel Width (nm):,   7.03,,,,
Exposure (ms):,  0.635,,,,
Digital Resolution:,228,,
Num Repeats:,6,,
PGA Gain:,64,,
Total Measurement Time in sec:,  2.740,,
Wavelength (nm),Absorbance (AU),Reference Signal (unitless),Sample Signal (unitless)
901.51,0.070116,108485,92311
905.376,0.074529,121306,102177
909.237,0.078369,131909,110130
913.095,0.077692,143299,119826
916.948,0.079980,156982,130578
922.079,0.080410,179937,149524
925.923,0.082722,200504,165730
929.762,0.082437,222660,184164
933.597,0.083220,244426,201803
937.427,0.081771,263972,218669
941.254,0.081904,281845,233403
945.076,0.080422,297271,247019
950.165,0.078648,315605,263327
953.978,0.079118,328029,273397
957.786,0.077920,340470,284550
961.59,0.078639,352317,293964
965.389,0.078528,363056,303002
969.185,0.078544,373162,311425
972.976,0.079154,382632,318880
976.763,0.079996,391202,325391
981.806,0.080413,400190,332547
985.583,0.080612,406088,337294
989.355,0.080762,410162,340560
993.124,0.081480,412868,342240
996.888,0.081798,414263,343145
1000.65,0.082361,415476,343704
1004.4,0.083428,415479,342863
1009.41,0.084725,414358,340919
1013.15,0.085593,412923,339060
1016.89,0.085565,411526,337934
1020.63,0.085942,409066,335623
1024.36,0.085707,406777,333925
1028.09,0.085977,404427,331790
1031.82,0.085553,401911,330048
1036.78,0.085139,398410,327485
1040.49,0.084521,396204,326135
1044.2,0.084678,394236,324398
1047.91,0.084827,392042,322482
1051.61,0.084586,389823,320835
1055.31,0.084248,388234,319776
1059,0.083406,387599,319872
1063.92,0.082908,386688,319487
1067.61,0.082656,386598,319598
1071.29,0.081499,387377,321096
1074.96,0.082030,388536,321663
1078.63,0.080746,389855,323711
1082.3,0.079312,391215,325914
1085.96,0.079565,393215,327390
1090.84,0.077631,396270,331406
1094.49,0.077691,398760,333442
1098.14,0.077377,400987,335547
1101.79,0.076445,403477,338356
1105.43,0.075917,406116,340983
1109.06,0.075277,407701,342819
1112.7,0.074696,409859,345095
1117.53,0.075049,412494,347031
1121.15,0.075415,414909,348769
1124.77,0.075512,416559,350078
1128.38,0.076512,418532,350927
1131.99,0.077243,419956,351529
1135.6,0.079097,421946,351690
1139.2,0.080563,423881,352112
1143.99,0.082246,426786,353154
1147.58,0.083243,428617,353856
1151.17,0.084462,431169,354965
1154.75,0.085178,433579,356361
1158.33,0.086385,436264,357573
1161.91,0.088204,439132,358419
1165.48,0.089437,442389,360054
1169.04,0.092368,446101,360633
1173.79,0.096026,451929,362280
1177.34,0.097552,456026,364282
1180.9,0.099692,461306,366688
1184.44,0.102070,467657,369707
1187.99,0.103076,473969,373830
1191.52,0.102919,479856,378610
1195.06,0.102202,487372,385175
1199.76,0.101833,497347,393393
1203.29,0.101289,504311,399401
1206.81,0.100766,511507,405588
1210.33,0.099664,519078,412637
1213.84,0.099369,527163,419349
1217.35,0.099281,534208,425040
1220.85,0.098145,540472,431150
1225.51,0.097549,549929,439296
1229.01,0.097158,556888,445256
1232.5,0.096608,562180,450057
1235.98,0.095745,567975,455601
1239.46,0.094855,574815,462033
1242.94,0.094254,582782,469086
1246.41,0.093511,591476,476899
1251.03,0.093485,604016,487039
1254.5,0.093196,612289,494038
1257.96,0.093639,619125,499045
1261.41,0.094146,624551,502831
1264.86,0.094916,629900,506239
1268.31,0.095146,634345,509541
1271.75,0.095567,638574,512442
1276.33,0.096531,642499,514448
1279.76,0.096058,645905,517739
1283.19,0.095483,648307,520352
1286.61,0.095221,650446,522385
1290.03,0.095088,652132,523899
1293.44,0.094330,653907,526242
1296.85,0.094089,655963,528190
1301.39,0.094229,657349,529136
1304.8,0.093871,657558,529740
1308.19,0.094104,658515,530227
1311.58,0.094116,658804,530445
1314.97,0.094588,659011,530035
1318.36,0.095216,658272,528676
1321.73,0.095510,658022,528117
1326.23,0.096542,657870,526742
1329.6,0.096888,656482,525212
1332.97,0.097712,654926,522974
1336.33,0.098860,653727,520639
1339.69,0.100751,652497,517401
1343.04,0.102146,649913,513700
1346.39,0.104377,647671,509304
1349.73,0.106149,645338,505404
1354.18,0.108802,641175,499085
1357.52,0.110813,638376,494611
1360.85,0.113255,635805,489857
1364.17,0.114944,633413,486119
1367.49,0.117077,631026,481915
1370.81,0.119384,628050,477101
1374.12,0.121398,625034,472613
1378.54,0.124398,620272,465784
1381.84,0.127223,616892,460242
1385.14,0.130774,613613,454068
1388.43,0.134697,611526,448454
1391.72,0.139239,610663,443162
1395.01,0.143285,610634,439032
1398.29,0.148035,611700,435014
1402.66,0.154763,614051,429973
1405.93,0.160094,616268,426261
1409.2,0.165451,617795,422079
1412.46,0.169703,618872,418695
1415.72,0.173850,619795,415335
1418.98,0.176923,620495,412872
1422.23,0.180712,621087,409676
1426.56,0.184489,621375,406317
1429.8,0.187472,621616,403692
1433.04,0.189999,622129,401681
1436.27,0.192055,621526,399397
1439.5,0.194059,621113,397294
1442.72,0.196180,620921,395236
1445.94,0.199027,620270,392242
1450.23,0.202679,618860,388073
1453.44,0.204893,617697,385374
1456.64,0.207675,616264,382025
1459.85,0.210054,614413,378797
1463.04,0.213468,612307,374543
1466.24,0.216239,610032,370778
1469.43,0.220116,607345,365864
1473.67,0.225857,603789,358945
1476.85,0.231364,601175,352888
1480.02,0.236813,597737,346495
1483.19,0.242951,594479,339770
1486.36,0.248804,591232,333391
1489.52,0.253556,587853,327878
1492.68,0.256957,583875,323119
1496.89,0.258143,578062,319030
1500.03,0.258763,574159,316424
1503.18,0.258889,570285,314198
1506.32,0.258449,565444,311846
1509.45,0.257042,560571,310162
1512.58,0.255442,555821,308669
1515.71,0.252628,550344,307614
1519.87,0.249426,543983,306309
1522.99,0.247823,538764,304492
1526.1,0.244559,533692,303901
1529.21,0.241959,527902,302409
1532.32,0.239451,521886,300694
1535.42,0.236738,515888,299101
1538.51,0.233210,509987,298091
1541.6,0.230870,503936,296146
1545.72,0.226328,494694,293771
1548.8,0.223590,488378,291854
1551.88,0.221162,481832,289557
1554.95,0.219523,474989,286524
1558.02,0.218803,467818,282666
1561.08,0.216405,460730,279925
1564.15,0.216415,454170,275933
1568.22,0.215532,444181,270413
1571.27,0.214780,436947,266470
1574.32,0.213647,429598,262673
1577.36,0.213253,422039,258285
1580.4,0.211382,414375,254690
1583.43,0.210203,406354,250439
1586.46,0.208327,398475,246646
1590.49,0.205963,388982,242084
1593.51,0.203747,380708,238147
1596.53,0.201956,372727,234118
1599.54,0.199967,365060,230355
1602.55,0.197967,357543,226653
1605.55,0.196008,349495,222553
1608.55,0.194446,341154,218024
1612.54,0.191683,330877,212806
1615.53,0.190361,322904,208311
1618.51,0.190241,315116,203343
1621.49,0.188385,307217,199095
1624.47,0.186312,299481,195010
1627.44,0.186428,292112,190161
1630.41,0.186528,284245,184997
1634.36,0.184395,274079,179259
1637.32,0.184154,266916,174671
1640.27,0.183322,259612,170217
1643.22,0.181764,251804,165691
1646.16,0.181434,244348,160907
1649.1,0.179712,236703,156492
1652.04,0.179977,228171,150759
1655.95,0.177164,215408,143251
1658.88,0.172207,204937,137852
1661.8,0.165766,193395,132032
1664.72,0.159063,179728,124610
1667.63,0.146686,163642,116737
1670.54,0.133661,146312,107552
1673.44,0.116215,128451,98293
1677.31,0.097318,105080,83985
1680.21,0.082691,88906,73492
1683.1,0.080841,75033,62289
1685.99,0.081314,63520,52674
1688.87,0.085255,53714,44140
1691.75,0.088261,45653,37257
1694.62,0.098600,39137,31188
1697.49,0.101886,33776,26713
1701.31,0.108568,28175,21943