Folder: textile_sorting_NIRSCAN_/samples/wool/wool-000811 (part 158)

File: Column 1_050618_20150331_123217.csv
Method:,Column 1,,
Host Date-Time:,31/3/15 @ 12:32:17,,
Header Version:,1,,
System Temp (C):,34.11,,
Detector Temp (C):,35.01,,
Humidity (%):,1.66,,
Lamp PD:,3818,,
Shift Vector Coefficients:,-10.5391,0.0761263,-0.000134223,,
Pixel to Wavelength Coefficients:,1775.68,-0.916766,-0.000235065,,
Serial Number:,5510004,,
Scan Config Name:,Column 1,,
Scan Config Type:,Slew,,
Section 1,,
Start wavelength (nm):,900,,
End wavelength (nm):,1700,,
Pattern Pixel Width (nm):,   7.03,,,,
Exposure (ms):,  0.635,,,,
Digital Resolution:,228,,
Num Repeats:,6,,
PGA Gain:,64,,
Total Measurement Time in sec:,  2.667,,
Wavelength (nm),Absorbance (AU),Reference Signal (unitless),Sample Signal (unitless)
901.51,0.069172,108485,92512
905.376,0.075550,121306,101937
909.237,0.076394,131909,110632
913.095,0.077743,143299,119812
916.948,0.079495,156982,130724
922.079,0.079131,179937,149965
925.923,0.082672,200504,165749
929.762,0.082796,222660,184012
933.597,0.081504,244426,202602
937.427,0.080458,263972,219331
941.254,0.079797,281845,234538
945.076,0.079537,297271,247523
950.165,0.078334,315605,263518
953.978,0.076995,328029,274737
957.786,0.077056,340470,285117
961.59,0.077431,352317,294783
965.389,0.077329,363056,303840
969.185,0.077630,373162,312081
972.976,0.078355,382632,319467
976.763,0.078708,391202,326357
981.806,0.078723,400190,333844
985.583,0.079372,406088,338258
989.355,0.079579,410162,341489
993.124,0.080225,412868,343231
996.888,0.080657,414263,344048
1000.65,0.081480,415476,344402
1004.4,0.082894,415479,343285
1009.41,0.084343,414358,341219
1013.15,0.084428,412923,339970
1016.89,0.084958,411526,338407
1020.63,0.085028,409066,336330
1024.36,0.084629,406777,334755
1028.09,0.084658,404427,332799
1031.82,0.084168,401911,331102
1036.78,0.083606,398410,328643
1040.49,0.083508,396204,326897
1044.2,0.083628,394236,325183
1047.91,0.084075,392042,323041
1051.61,0.083148,389823,321899
1055.31,0.082507,388234,321060
1059,0.082541,387599,320510
1063.92,0.081764,386688,320329
1067.61,0.080625,386598,321096
1071.29,0.080327,387377,321964
1074.96,0.079215,388536,323755
1078.63,0.079346,389855,324756
1082.3,0.078371,391215,326621
1085.96,0.077363,393215,329054
1090.84,0.076713,396270,332107
1094.49,0.075930,398760,334797
1098.14,0.075446,400987,337042
1101.79,0.074685,403477,339730
1105.43,0.074987,406116,341714
1109.06,0.074007,407701,343823
1112.7,0.073410,409859,346118
1117.53,0.073212,412494,348502
1121.15,0.073402,414909,350389
1124.77,0.074351,416559,351015
1128.38,0.074742,418532,352360
1131.99,0.075430,419956,352999
1135.6,0.076930,421946,353449
1139.2,0.077895,423881,354282
1143.99,0.080811,426786,354323
1147.58,0.081040,428617,355655
1151.17,0.082010,431169,356975
1154.75,0.082494,433579,358570
1158.33,0.084333,436264,359266
1161.91,0.086073,439132,360182
1165.48,0.088709,442389,360658
1169.04,0.090126,446101,362499
1173.79,0.093964,451929,364004
1177.34,0.095830,456026,365729
1180.9,0.097976,461306,368140
1184.44,0.099117,467657,372229
1187.99,0.101075,473969,375556
1191.52,0.100870,479856,380400
1195.06,0.100580,487372,386617
1199.76,0.100708,497347,394413
1203.29,0.099276,504311,401257
1206.81,0.098787,511507,407441
1210.33,0.098347,519078,413891
1213.84,0.097485,527163,421172
1217.35,0.097139,534208,427141
1220.85,0.096689,540472,432598
1225.51,0.095658,549929,441213
1229.01,0.095603,556888,446853
1232.5,0.094249,562180,452508
1235.98,0.093376,567975,458093
1239.46,0.092970,574815,464043
1242.94,0.092085,582782,471434
1246.41,0.091663,591476,478932
1251.03,0.091632,604016,489121
1254.5,0.091844,612289,495579
1257.96,0.091959,619125,500979
1261.41,0.092271,624551,505006
1264.86,0.092982,629900,508499
1268.31,0.093403,634345,511591
1271.75,0.094426,638574,513789
1276.33,0.094207,642499,517208
1279.76,0.094289,645905,519852
1283.19,0.093804,648307,522368
1286.61,0.093252,650446,524758
1290.03,0.092832,652132,526628
1293.44,0.092552,653907,528401
1296.85,0.092291,655963,530382
1301.39,0.092184,657349,531633
1304.8,0.091543,657558,532588
1308.19,0.092277,658515,532462
1311.58,0.092073,658804,532946
1314.97,0.092915,659011,532081
1318.36,0.092772,658272,531659
1321.73,0.093323,658022,530784
1326.23,0.093772,657870,530113
1329.6,0.094563,656482,528032
1332.97,0.095572,654926,525558
1336.33,0.096530,653727,523439
1339.69,0.097519,652497,521266
1343.04,0.099049,649913,517376
1346.39,0.101189,647671,513057
1349.73,0.103074,645338,508995
1354.18,0.106014,641175,502299
1357.52,0.107897,638376,497943
1360.85,0.110062,635805,493471
1364.17,0.111851,633413,489594
1367.49,0.114039,631026,485298
1370.81,0.116845,628050,479898
1374.12,0.118403,625034,475884
1378.54,0.121129,620272,469303
1381.84,0.123865,616892,463814
1385.14,0.127188,613613,457832
1388.43,0.130463,611526,452847
1391.72,0.134460,610663,448066
1395.01,0.138125,610634,444279
1398.29,0.142454,611700,440641
1402.66,0.148368,614051,436351
1405.93,0.153532,616268,432751
1409.2,0.157511,617795,429866
1412.46,0.162179,618872,426012
1415.72,0.166051,619795,422860
1418.98,0.169063,620495,420412
1422.23,0.172537,621087,417461
1426.56,0.176405,621375,413951
1429.8,0.179029,621616,411617
1433.04,0.180979,622129,410111
1436.27,0.183269,621526,407559
1439.5,0.185819,621113,404904
1442.72,0.188137,620921,402624
1445.94,0.190557,620270,399967
1450.23,0.194212,618860,395713
1453.44,0.197054,617697,392393
1456.64,0.199563,616264,389228
1459.85,0.202497,614413,385446
1463.04,0.205354,612307,381606
1466.24,0.208993,610032,377016
1469.43,0.212387,607345,372433
1473.67,0.219399,603789,364323
1476.85,0.224615,601175,358415
1480.02,0.231291,597737,350929
1483.19,0.238130,594479,343563
1486.36,0.243704,591232,337329
1489.52,0.248632,587853,331617
1492.68,0.252909,583875,326145
1496.89,0.253585,578062,322396
1500.03,0.255266,574159,318982
1503.18,0.255222,570285,316862
1506.32,0.254458,565444,314725
1509.45,0.252316,560571,313556
1512.58,0.251151,555821,311734
1515.71,0.248370,550344,310645
1519.87,0.245367,543983,309185
1522.99,0.242924,538764,307946
1526.1,0.240237,533692,306940
1529.21,0.237583,527902,305471
1532.32,0.234692,521886,304007
1535.42,0.231863,515888,302477
1538.51,0.228319,509987,301467
1541.6,0.226142,503936,299387
1545.72,0.221497,494694,297057
1548.8,0.219089,488378,294895
1551.88,0.216507,481832,292677
1554.95,0.214975,474989,289540
1558.02,0.213968,467818,285831
1561.08,0.211531,460730,283084
1564.15,0.211874,454170,278833
1568.22,0.210916,444181,273303
1571.27,0.210462,436947,269133
1574.32,0.208947,429598,265531
1577.36,0.208250,422039,261278
1580.4,0.206527,414375,257553
1583.43,0.205600,406354,253107
1586.46,0.203174,398475,249590
1590.49,0.201928,388982,244344
1593.51,0.199808,380708,240317
1596.53,0.198218,372727,236142
1599.54,0.196566,365060,232166
1602.55,0.194760,357543,228333
1605.55,0.192447,349495,224385
1608.55,0.190380,341154,220075
1612.54,0.189131,330877,214060
1615.53,0.186951,322904,209953
1618.51,0.186645,315116,205034
1621.49,0.185134,307217,200591
1624.47,0.184087,299481,196012
1627.44,0.183805,292112,191313
1630.41,0.181858,284245,186997
1634.36,0.180677,274079,180800
1637.32,0.180120,266916,176301
1640.27,0.179934,259612,171550
1643.22,0.179422,251804,166587
1646.16,0.178555,244348,161977
1649.1,0.177091,236703,157439
1652.04,0.175649,228171,152269
1655.95,0.173433,215408,144487
1658.88,0.169150,204937,138826
1661.8,0.162793,193395,132939
1664.72,0.154970,179728,125790
1667.63,0.143850,163642,117502
1670.54,0.128216,146312,108909
1673.44,0.112712,128451,99089
1677.31,0.091361,105080,85145
1680.21,0.079881,88906,73969
1683.1,0.074563,75033,63196
1685.99,0.077219,63520,53173
1688.87,0.073961,53714,45303
1691.75,0.083047,45653,37707
1694.62,0.078292,39137,32681
1697.49,0.092175,33776,27317
1701.31,0.094738,28175,22653

File: Column 1_050618_20150331_123220.csv
Method:,Column 1,,
Host Date-Time:,31/3/15 @ 12:32:20,,
Header Version:,1,,
System Temp (C):,34.14,,
Detector Temp (C):,35.01,,
Humidity (%):,1.66,,
Lamp PD:,3818,,
Shift Vector Coefficients:,-10.5391,0.0761263,-0.000134223,,
Pixel to Wavelength Coefficients:,1775.68,-0.916766,-0.000235065,,
Serial Number:,5510004,,
Scan Config Name:,Column 1,,
Scan Config Type:,Slew,,
Section 1,,
Start wavelength (nm):,900,,
End wavelength (nm):,1700,,
Pattern Pixel Width (nm):,   7.03,,,,
Exposure (ms):,  0.635,,,,
Digital Resolution:,228,,
Num Repeats:,6,,
PGA Gain:,64,,
Total Measurement Time in sec:,  2.727,,
Wavelength (nm),Absorbance (AU),Reference Signal (unitless),Sample Signal (unitless)
901.51,0.069834,108485,92371
905.376,0.073247,121306,102479
909.237,0.075946,131909,110746
913.095,0.077515,143299,119875
916.948,0.078837,156982,130922
922.079,0.080351,179937,149544
925.923,0.082101,200504,165967
929.762,0.082433,222660,184166
933.597,0.082897,244426,201953
937.427,0.079728,263972,219700
941.254,0.079699,281845,234591
945.076,0.078920,297271,247875
950.165,0.077492,315605,264029
953.978,0.077805,328029,274225
957.786,0.077341,340470,284930
961.59,0.077143,352317,294979
965.389,0.077549,363056,303686
969.185,0.076936,373162,312580
972.976,0.078064,382632,319681
976.763,0.077543,391202,327234
981.806,0.078796,400190,333788
985.583,0.079542,406088,338126
989.355,0.079979,410162,341174
993.124,0.079742,412868,343613
996.888,0.080727,414263,343993
1000.65,0.081057,415476,344738
1004.4,0.082663,415479,343468
1009.41,0.083444,414358,341926
1013.15,0.084315,412923,340059
1016.89,0.084336,411526,338892
1020.63,0.083946,409066,337169
1024.36,0.084360,406777,334963
1028.09,0.084165,404427,333177
1031.82,0.083776,401911,331401
1036.78,0.083698,398410,328573
1040.49,0.083639,396204,326798
1044.2,0.083475,394236,325298
1047.91,0.083393,392042,323549
1051.61,0.082338,389823,322500
1055.31,0.082576,388234,321009
1059,0.082112,387599,320827
1063.92,0.081034,386688,320868
1067.61,0.080412,386598,321253
1071.29,0.079603,387377,322501
1074.96,0.079336,388536,323665
1078.63,0.079050,389855,324977
1082.3,0.077951,391215,326937
1085.96,0.077366,393215,329052
1090.84,0.076739,396270,332087
1094.49,0.075560,398760,335082
1098.14,0.075321,400987,337139
1101.79,0.074424,403477,339934
1105.43,0.074614,406116,342008
1109.06,0.073815,407701,343975
1112.7,0.073708,409859,345881
1117.53,0.072820,412494,348817
1121.15,0.073585,414909,350242
1124.77,0.073856,416559,351415
1128.38,0.074571,418532,352499
1131.99,0.075240,419956,353154
1135.6,0.076704,421946,353633
1139.2,0.078172,423881,354056
1143.99,0.080484,426786,354590
1147.58,0.080782,428617,355867
1151.17,0.082215,431169,356806
1154.75,0.082829,433579,358294
1158.33,0.083918,436264,359610
1161.91,0.085936,439132,360296
1165.48,0.087704,442389,361493
1169.04,0.090086,446101,362533
1173.79,0.093727,451929,364203
1177.34,0.096465,456026,365195
1180.9,0.097757,461306,368326
1184.44,0.099682,467657,371745
1187.99,0.100724,473969,375860
1191.52,0.100302,479856,380898
1195.06,0.100410,487372,386768
1199.76,0.099813,497347,395227
1203.29,0.099847,504311,400730
1206.81,0.098872,511507,407361
1210.33,0.098180,519078,414050
1213.84,0.097790,527163,420877
1217.35,0.097539,534208,426748
1220.85,0.096331,540472,432954
1225.51,0.095560,549929,441313
1229.01,0.095279,556888,447187
1232.5,0.094880,562180,451851
1235.98,0.093911,567975,457529
1239.46,0.092948,574815,464066
1242.94,0.091752,582782,471796
1246.41,0.091549,591476,479058
1251.03,0.091461,604016,489314
1254.5,0.091480,612289,495994
1257.96,0.092018,619125,500911
1261.41,0.092463,624551,504783
1264.86,0.092745,629900,508776
1268.31,0.093743,634345,511190
1271.75,0.094238,638574,514012
1276.33,0.094112,642499,517321
1279.76,0.093951,645905,520257
1283.19,0.093582,648307,522635
1286.61,0.093110,650446,524930
1290.03,0.092726,652132,526756
1293.44,0.092528,653907,528431
1296.85,0.092540,655963,530078
1301.39,0.091872,657349,532015
1304.8,0.092253,657558,531718
1308.19,0.091576,658515,533322
1311.58,0.091860,658804,533207
1314.97,0.092700,659011,532344
1318.36,0.093021,658272,531355
1321.73,0.093591,658022,530456
1326.23,0.093571,657870,530358
1329.6,0.094893,656482,527630
1332.97,0.095440,654926,525717
1336.33,0.096217,653727,523817
1339.69,0.097612,652497,521154
1343.04,0.098944,649913,517501
1346.39,0.101163,647671,513087
1349.73,0.103221,645338,508823
1354.18,0.105949,641175,502375
1357.52,0.107975,638376,497853
1360.85,0.109799,635805,493770
1364.17,0.111745,633413,489713
1367.49,0.113738,631026,485634
1370.81,0.116469,628050,480314
1374.12,0.118330,625034,475963
1378.54,0.120836,620272,469620
1381.84,0.124002,616892,463668
1385.14,0.126863,613613,458175
1388.43,0.130137,611526,453187
1391.72,0.134333,610663,448197
1395.01,0.138108,610634,444297
1398.29,0.142424,611700,440671
1402.66,0.148484,614051,436235
1405.93,0.153208,616268,433074
1409.2,0.157939,617795,429443
1412.46,0.161945,618872,426242
1415.72,0.165606,619795,423294
1418.98,0.169264,620495,420218
1422.23,0.172322,621087,417667
1426.56,0.176512,621375,413849
1429.8,0.178683,621616,411945
1433.04,0.180958,622129,410131
1436.27,0.183349,621526,407484
1439.5,0.184713,621113,405936
1442.72,0.187362,620921,403343
1445.94,0.190126,620270,400364
1450.23,0.193268,618860,396574
1453.44,0.196348,617697,393032
1456.64,0.200085,616264,388760
1459.85,0.202493,614413,385449
1463.04,0.205203,612307,381739
1466.24,0.208264,610032,377649
1469.43,0.212597,607345,372253
1473.67,0.219301,603789,364405
1476.85,0.224841,601175,358228
1480.02,0.230910,597737,351237
1483.19,0.237930,594479,343721
1486.36,0.243417,591232,337552
1489.52,0.247938,587853,332147
1492.68,0.252346,583875,326568
1496.89,0.254449,578062,321755
1500.03,0.254601,574159,319471
1503.18,0.253853,570285,317862
1506.32,0.254116,565444,314973
1509.45,0.252334,560571,313543
1512.58,0.250449,555821,312238
1515.71,0.248462,550344,310579
1519.87,0.244981,543983,309460
1522.99,0.242866,538764,307987
1526.1,0.240176,533692,306983
1529.21,0.237720,527902,305375
1532.32,0.234915,521886,303851
1535.42,0.231964,515888,302407
1538.51,0.229379,509987,300732
1541.6,0.225201,503936,300037
1545.72,0.221430,494694,297103
1548.8,0.219025,488378,294938
1551.88,0.216130,481832,292931
1554.95,0.214644,474989,289761
1558.02,0.212352,467818,286896
1561.08,0.211932,460730,282823
1564.15,0.210849,454170,279492
1568.22,0.210515,444181,273555
1571.27,0.210246,436947,269267
1574.32,0.208690,429598,265688
1577.36,0.207771,422039,261566
1580.4,0.206841,414375,257367
1583.43,0.205113,406354,253391
1586.46,0.203830,398475,249213
1590.49,0.202205,388982,244188
1593.51,0.199712,380708,240370
1596.53,0.197446,372727,236562
1599.54,0.195844,365060,232552
1602.55,0.194465,357543,228488
1605.55,0.192428,349495,224395
1608.55,0.191020,341154,219751
1612.54,0.188622,330877,214311
1615.53,0.186939,322904,209959
1618.51,0.185257,315116,205690
1621.49,0.184675,307217,200803
1624.47,0.183292,299481,196371
1627.44,0.182703,292112,191799
1630.41,0.181526,284245,187140
1634.36,0.180236,274079,180984
1637.32,0.180751,266916,176045
1640.27,0.179810,259612,171599
1643.22,0.177769,251804,167222
1646.16,0.178783,244348,161892
1649.1,0.177229,236703,157389
1652.04,0.175809,228171,152213
1655.95,0.172526,215408,144789
1658.88,0.167610,204937,139319
1661.8,0.162744,193395,132954
1664.72,0.154214,179728,126009
1667.63,0.143140,163642,117694
1670.54,0.127834,146312,109005
1673.44,0.111911,128451,99272
1677.31,0.091585,105080,85101
1680.21,0.077049,88906,74453
1683.1,0.071495,75033,63644
1685.99,0.073608,63520,53617
1688.87,0.077928,53714,44891
1691.75,0.080796,45653,37903
1694.62,0.086489,39137,32070
1697.49,0.092589,33776,27291
1701.31,0.095544,28175,22611

File: Column 1_050619_20150331_123234.csv
Method:,Column 1,,
Host Date-Time:,31/3/15 @ 12:32:34,,
Header Version:,1,,
System Temp (C):,34.12,,
Detector Temp (C):,35.01,,
Humidity (%):,1.66,,
Lamp PD:,3818,,
Shift Vector Coefficients:,-10.5391,0.0761263,-0.000134223,,
Pixel to Wavelength Coefficients:,1775.68,-0.916766,-0.000235065,,
Serial Number:,5510004,,
Scan Config Name:,Column 1,,
Scan Config Type:,Slew,,
Section 1,,
Start wavelength (nm):,900,,
End wavelength (nm):,1700,,
Pattern Pixel Width (nm):,   7.03,,,,
Exposure (ms):,  0.635,,,,
Digital Resolution:,228,,
Num Repeats:,6,,
PGA Gain:,64,,
Total Measurement Time in sec:,  2.716,,
Wavelength (nm),Absorbance (AU),Reference Signal (unitless),Sample Signal (unitless)
901.51,0.068126,108485,92735
905.376,0.074750,121306,102125
909.237,0.078097,131909,110199
913.095,0.077765,143299,119806
916.948,0.078366,156982,131064
922.079,0.079403,179937,149871
925.923,0.081665,200504,166134
929.762,0.082308,222660,184219
933.597,0.081761,244426,202482
937.427,0.079769,263972,219679
941.254,0.080533,281845,234141
945.076,0.079435,297271,247581
950.165,0.077650,315605,263933
953.978,0.077069,328029,274690
957.786,0.077464,340470,284849
961.59,0.077313,352317,294863
965.389,0.077472,363056,303740
969.185,0.077147,373162,312428
972.976,0.077611,382632,320015
976.763,0.078699,391202,326364
981.806,0.079022,400190,333614
985.583,0.079124,406088,338451
989.355,0.079435,410162,341602
993.124,0.080148,412868,343292
996.888,0.080694,414263,344019
1000.65,0.080952,415476,344821
1004.4,0.082718,415479,343424
1009.41,0.083633,414358,341777
1013.15,0.084558,412923,339869
1016.89,0.084585,411526,338698
1020.63,0.084895,409066,336433
1024.36,0.084777,406777,334641
1028.09,0.083897,404427,333383
1031.82,0.083794,401911,331387
1036.78,0.083453,398410,328759
1040.49,0.083309,396204,327047
1044.2,0.082961,394236,325683
1047.91,0.082954,392042,323876
1051.61,0.082931,389823,322060
1055.31,0.082529,388234,321044
1059,0.081580,387599,321220
1063.92,0.081459,386688,320554
1067.61,0.080745,386598,321007
1071.29,0.080217,387377,322045
1074.96,0.079674,388536,323413
1078.63,0.078725,389855,325221
1082.3,0.078482,391215,326538
1085.96,0.077351,393215,329063
1090.84,0.076453,396270,332306
1094.49,0.075817,398760,334884
1098.14,0.075574,400987,336943
1101.79,0.075147,403477,339369
1105.43,0.074359,406116,342209
1109.06,0.073888,407701,343917
1112.7,0.073733,409859,345861
1117.53,0.073159,412494,348545
1121.15,0.073326,414909,350451
1124.77,0.073198,416559,351948
1128.38,0.075193,418532,351994
1131.99,0.075940,419956,352585
1135.6,0.077009,421946,353385
1139.2,0.078394,423881,353875
1143.99,0.080545,426786,354540
1147.58,0.081164,428617,355554
1151.17,0.082549,431169,356532
1154.75,0.082389,433579,358657
1158.33,0.084204,436264,359373
1161.91,0.085724,439132,360472
1165.48,0.087988,442389,361257
1169.04,0.089649,446101,362898
1173.79,0.093596,451929,364313
1177.34,0.095644,456026,365886
1180.9,0.097759,461306,368324
1184.44,0.099554,467657,371855
1187.99,0.101425,473969,375254
1191.52,0.100745,479856,380510
1195.06,0.100373,487372,386801
1199.76,0.100304,497347,394780
1203.29,0.098576,504311,401904
1206.81,0.098583,511507,407632
1210.33,0.098423,519078,413818
1213.84,0.097718,527163,420947
1217.35,0.097051,534208,427228
1220.85,0.096605,540472,432681
1225.51,0.094956,549929,441927
1229.01,0.095410,556888,447052
1232.5,0.094223,562180,452535
1235.98,0.093963,567975,457474
1239.46,0.093092,574815,463912
1242.94,0.091736,582782,471813
1246.41,0.091446,591476,479172
1251.03,0.091023,604016,489808
1254.5,0.091470,612289,496006
1257.96,0.092223,619125,500674
1261.41,0.092215,624551,505071
1264.86,0.093010,629900,508466
1268.31,0.093244,634345,511778
1271.75,0.093925,638574,514382
1276.33,0.094161,642499,517263
1279.76,0.094045,645905,520144
1283.19,0.093380,648307,522878
1286.61,0.093038,650446,525017
1290.03,0.092595,652132,526915
1293.44,0.091999,653907,529075
1296.85,0.091851,655963,530919
1301.39,0.091641,657349,532298
1304.8,0.091894,657558,532157
1308.19,0.091943,658515,532872
1311.58,0.092205,658804,532784
1314.97,0.092497,659011,532593
1318.36,0.092692,658272,531757
1321.73,0.092909,658022,531290
1326.23,0.093825,657870,530048
1329.6,0.094517,656482,528088
1332.97,0.095582,654926,525545
1336.33,0.096428,653727,523562
1339.69,0.097716,652497,521030
1343.04,0.099339,649913,517031
1346.39,0.101022,647671,513254
1349.73,0.102883,645338,509218
1354.18,0.105492,641175,502903
1357.52,0.107540,638376,498352
1360.85,0.109557,635805,494046
1364.17,0.111943,633413,489490
1367.49,0.113871,631026,485485
1370.81,0.116012,628050,480820
1374.12,0.117926,625034,476406
1378.54,0.121106,620272,469328
1381.84,0.123238,616892,464484
1385.14,0.126557,613613,458498
1388.43,0.130561,611526,452745
1391.72,0.134132,610663,448404
1395.01,0.137498,610634,444921
1398.29,0.142691,611700,440400
1402.66,0.148044,614051,436677
1405.93,0.152962,616268,433319
1409.2,0.157716,617795,429663
1412.46,0.161676,618872,426506
1415.72,0.165699,619795,423203
1418.98,0.168561,620495,420898
1422.23,0.172047,621087,417932
1426.56,0.175689,621375,414634
1429.8,0.178886,621616,411752
1433.04,0.180908,622129,410178
1436.27,0.183153,621526,407668
1439.5,0.185031,621113,405639
1442.72,0.187038,620921,403644
1445.94,0.190203,620270,400293
1450.23,0.193244,618860,396596
1453.44,0.196238,617697,393131
1456.64,0.199113,616264,389631
1459.85,0.202049,614413,385844
1463.04,0.204989,612307,381927
1466.24,0.208607,610032,377351
1469.43,0.212451,607345,372378
1473.67,0.218923,603789,364722
1476.85,0.225117,601175,358001
1480.02,0.230561,597737,351519
1483.19,0.237990,594479,343674
1486.36,0.243995,591232,337103
1489.52,0.247878,587853,332193
1492.68,0.251337,583875,327328
1496.89,0.254104,578062,322011
1500.03,0.254748,574159,319363
1503.18,0.254138,570285,317654
1506.32,0.252887,565444,315866
1509.45,0.252171,560571,313660
1512.58,0.250935,555821,311889
1515.71,0.247794,550344,311057
1519.87,0.245173,543983,309323
1522.99,0.242663,538764,308131
1526.1,0.240193,533692,306971
1529.21,0.237212,527902,305732
1532.32,0.234452,521886,304175
1535.42,0.231519,515888,302717
1538.51,0.229261,509987,300814
1541.6,0.225829,503936,299603
1545.72,0.221210,494694,297253
1548.8,0.218522,488378,295280
1551.88,0.216121,481832,292937
1554.95,0.214229,474989,290038
1558.02,0.213127,467818,286385
1561.08,0.212219,460730,282636
1564.15,0.211424,454170,279122
1568.22,0.210593,444181,273506
1571.27,0.210155,436947,269323
1574.32,0.209384,429598,265264
1577.36,0.208715,422039,260998
1580.4,0.206510,414375,257563
1583.43,0.204882,406354,253526
1586.46,0.203640,398475,249322
1590.49,0.201752,388982,244443
1593.51,0.199999,380708,240211
1596.53,0.197039,372727,236784
1599.54,0.196534,365060,232183
1602.55,0.193472,357543,229011
1605.55,0.193055,349495,224071
1608.55,0.189065,341154,220742
1612.54,0.188492,330877,214375
1615.53,0.186337,322904,210250
1618.51,0.184880,315116,205869
1621.49,0.184457,307217,200904
1624.47,0.183047,299481,196482
1627.44,0.182950,292112,191690
1630.41,0.181672,284245,187077
1634.36,0.179902,274079,181123
1637.32,0.180100,266916,176309
1640.27,0.178234,259612,172223
1643.22,0.177969,251804,167145
1646.16,0.177538,244348,162357
1649.1,0.176138,236703,157785
1652.04,0.175546,228171,152305
1655.95,0.171334,215408,145187
1658.88,0.168299,204937,139098
1661.8,0.161938,193395,133201
1664.72,0.155194,179728,125725
1667.63,0.142624,163642,117834
1670.54,0.125398,146312,109618
1673.44,0.110762,128451,99535
1677.31,0.090133,105080,85386
1680.21,0.079031,88906,74114
1683.1,0.071181,75033,63690
1685.99,0.072451,63520,53760
1688.87,0.076161,53714,45074
1691.75,0.075670,45653,38353
1694.62,0.085285,39137,32159
1697.49,0.091921,33776,27333
1701.31,0.094470,28175,22667