Folder: textile_sorting_NIRSCAN_/samples/wool/wool-000811 (part 172)

File: Column 1_050626_20150331_123551.csv
Method:,Column 1,,
Host Date-Time:,31/3/15 @ 12:35:51,,
Header Version:,1,,
System Temp (C):,34.14,,
Detector Temp (C):,35.05,,
Humidity (%):,1.56,,
Lamp PD:,3817,,
Shift Vector Coefficients:,-10.5391,0.0761263,-0.000134223,,
Pixel to Wavelength Coefficients:,1775.68,-0.916766,-0.000235065,,
Serial Number:,5510004,,
Scan Config Name:,Column 1,,
Scan Config Type:,Slew,,
Section 1,,
Start wavelength (nm):,900,,
End wavelength (nm):,1700,,
Pattern Pixel Width (nm):,   7.03,,,,
Exposure (ms):,  0.635,,,,
Digital Resolution:,228,,
Num Repeats:,6,,
PGA Gain:,64,,
Total Measurement Time in sec:,  2.667,,
Wavelength (nm),Absorbance (AU),Reference Signal (unitless),Sample Signal (unitless)
901.51,0.068792,108485,92593
905.376,0.074385,121306,102211
909.237,0.077569,131909,110333
913.095,0.078218,143299,119681
916.948,0.078549,156982,131009
922.079,0.080462,179937,149506
925.923,0.081241,200504,166296
929.762,0.082551,222660,184116
933.597,0.082257,244426,202251
937.427,0.080969,263972,219073
941.254,0.080626,281845,234091
945.076,0.079248,297271,247688
950.165,0.078233,315605,263579
953.978,0.077783,328029,274239
957.786,0.077926,340470,284546
961.59,0.077819,352317,294520
965.389,0.077792,363056,303516
969.185,0.077485,373162,312185
972.976,0.077942,382632,319771
976.763,0.078120,391202,326799
981.806,0.078327,400190,334148
985.583,0.079203,406088,338390
989.355,0.079814,410162,341304
993.124,0.080397,412868,343095
996.888,0.080602,414263,344092
1000.65,0.081329,415476,344522
1004.4,0.082613,415479,343507
1009.41,0.083886,414358,341578
1013.15,0.083936,412923,340356
1016.89,0.084931,411526,338428
1020.63,0.084594,409066,336666
1024.36,0.084697,406777,334703
1028.09,0.084091,404427,333234
1031.82,0.083873,401911,331327
1036.78,0.084292,398410,328124
1040.49,0.083657,396204,326785
1044.2,0.083548,394236,325243
1047.91,0.083246,392042,323658
1051.61,0.082821,389823,322141
1055.31,0.082318,388234,321200
1059,0.082299,387599,320689
1063.92,0.081537,386688,320497
1067.61,0.080388,386598,321271
1071.29,0.080881,387377,321553
1074.96,0.080038,388536,323142
1078.63,0.079020,389855,325000
1082.3,0.078180,391215,326765
1085.96,0.077370,393215,329049
1090.84,0.076247,396270,332464
1094.49,0.076112,398760,334657
1098.14,0.075205,400987,337229
1101.79,0.075287,403477,339259
1105.43,0.074214,406116,342323
1109.06,0.073129,407701,344519
1112.7,0.073338,409859,346176
1117.53,0.072816,412494,348820
1121.15,0.073503,414909,350308
1124.77,0.073562,416559,351653
1128.38,0.074743,418532,352359
1131.99,0.075914,419956,352606
1135.6,0.077167,421946,353256
1139.2,0.077785,423881,354372
1143.99,0.079976,426786,355005
1147.58,0.080945,428617,355733
1151.17,0.081839,431169,357115
1154.75,0.082807,433579,358312
1158.33,0.083877,436264,359644
1161.91,0.085619,439132,360559
1165.48,0.087638,442389,361548
1169.04,0.090071,446101,362545
1173.79,0.093438,451929,364445
1177.34,0.095983,456026,365600
1180.9,0.097901,461306,368204
1184.44,0.099546,467657,371862
1187.99,0.100756,473969,375832
1191.52,0.100603,479856,380634
1195.06,0.100555,487372,386639
1199.76,0.100079,497347,394985
1203.29,0.099093,504311,401426
1206.81,0.098519,511507,407692
1210.33,0.098004,519078,414218
1213.84,0.097479,527163,421178
1217.35,0.097209,534208,427072
1220.85,0.096010,540472,433275
1225.51,0.095633,549929,441239
1229.01,0.095353,556888,447111
1232.5,0.094480,562180,452268
1235.98,0.094133,567975,457295
1239.46,0.092781,574815,464245
1242.94,0.091720,582782,471831
1246.41,0.091452,591476,479165
1251.03,0.091312,604016,489482
1254.5,0.091477,612289,495998
1257.96,0.091394,619125,501631
1261.41,0.093412,624551,503681
1264.86,0.092655,629900,508881
1268.31,0.093088,634345,511962
1271.75,0.094024,638574,514265
1276.33,0.094174,642499,517247
1279.76,0.094069,645905,520115
1283.19,0.093327,648307,522942
1286.61,0.092695,650446,525432
1290.03,0.092700,652132,526788
1293.44,0.092101,653907,528951
1296.85,0.091798,655963,530984
1301.39,0.091608,657349,532339
1304.8,0.091619,657558,532494
1308.19,0.091690,658515,533182
1311.58,0.091702,658804,533402
1314.97,0.092394,659011,532720
1318.36,0.092388,658272,532129
1321.73,0.092702,658022,531543
1326.23,0.093401,657870,530566
1329.6,0.094225,656482,528442
1332.97,0.094997,654926,526254
1336.33,0.095757,653727,524372
1339.69,0.097557,652497,521220
1343.04,0.098767,649913,517712
1346.39,0.101153,647671,513099
1349.73,0.102729,645338,509399
1354.18,0.105749,641175,502606
1357.52,0.107551,638376,498340
1360.85,0.109908,635805,493646
1364.17,0.111690,633413,489775
1367.49,0.113271,631026,486157
1370.81,0.115824,628050,481028
1374.12,0.117785,625034,476561
1378.54,0.120409,620272,470082
1381.84,0.123490,616892,464215
1385.14,0.126190,613613,458886
1388.43,0.129894,611526,453441
1391.72,0.133403,610663,449157
1395.01,0.137281,610634,445143
1398.29,0.141426,611700,441685
1402.66,0.147310,614051,437416
1405.93,0.152038,616268,434242
1409.2,0.156966,617795,430406
1412.46,0.160145,618872,428012
1415.72,0.164613,619795,424263
1418.98,0.167795,620495,421641
1422.23,0.171063,621087,418880
1426.56,0.174695,621375,415584
1429.8,0.177475,621616,413092
1433.04,0.179684,622129,411336
1436.27,0.182128,621526,408631
1439.5,0.184168,621113,406446
1442.72,0.186458,620921,404183
1445.94,0.188969,620270,401432
1450.23,0.192917,618860,396895
1453.44,0.195119,617697,394145
1456.64,0.198418,616264,390255
1459.85,0.200714,614413,387032
1463.04,0.204629,612307,382244
1466.24,0.207825,610032,378031
1469.43,0.211978,607345,372784
1473.67,0.217735,603789,365721
1476.85,0.223910,601175,358997
1480.02,0.230011,597737,351965
1483.19,0.237510,594479,344054
1486.36,0.242952,591232,337914
1489.52,0.247806,587853,332248
1492.68,0.251642,583875,327098
1496.89,0.252788,578062,322988
1500.03,0.254304,574159,319689
1503.18,0.254467,570285,317413
1506.32,0.253151,565444,315674
1509.45,0.252286,560571,313577
1512.58,0.250356,555821,312305
1515.71,0.247685,550344,311135
1519.87,0.245020,543983,309432
1522.99,0.242357,538764,308348
1526.1,0.239947,533692,307145
1529.21,0.237318,527902,305658
1532.32,0.234652,521886,304035
1535.42,0.231420,515888,302786
1538.51,0.228537,509987,301316
1541.6,0.225644,503936,299731
1545.72,0.221178,494694,297275
1548.8,0.219173,488378,294838
1551.88,0.215841,481832,293126
1554.95,0.214557,474989,289819
1558.02,0.212545,467818,286769
1561.08,0.211018,460730,283419
1564.15,0.210963,454170,279419
1568.22,0.210304,444181,273688
1571.27,0.209277,436947,269868
1574.32,0.208022,429598,266097
1577.36,0.207204,422039,261908
1580.4,0.207021,414375,257260
1583.43,0.204242,406354,253900
1586.46,0.202591,398475,249925
1590.49,0.201157,388982,244778
1593.51,0.199798,380708,240322
1596.53,0.197224,372727,236683
1599.54,0.195663,365060,232649
1602.55,0.193777,357543,228850
1605.55,0.191900,349495,224668
1608.55,0.189900,341154,220318
1612.54,0.187210,330877,215009
1615.53,0.186102,322904,210364
1618.51,0.186031,315116,205324
1621.49,0.185190,307217,200565
1624.47,0.183464,299481,196293
1627.44,0.182047,292112,192089
1630.41,0.182332,284245,186793
1634.36,0.180116,274079,181034
1637.32,0.179141,266916,176699
1640.27,0.179524,259612,171712
1643.22,0.178320,251804,167010
1646.16,0.177348,244348,162428
1649.1,0.176113,236703,157794
1652.04,0.173711,228171,152950
1655.95,0.171418,215408,145159
1658.88,0.166275,204937,139748
1661.8,0.161710,193395,133271
1664.72,0.156342,179728,125393
1667.63,0.142503,163642,117867
1670.54,0.127320,146312,109134
1673.44,0.110801,128451,99526
1677.31,0.090255,105080,85362
1680.21,0.078135,88906,74267
1683.1,0.072869,75033,63443
1685.99,0.074102,63520,53556
1688.87,0.077194,53714,44967
1691.75,0.078271,45653,38124
1694.62,0.080664,39137,32503
1697.49,0.084563,33776,27800
1701.31,0.099112,28175,22426

File: Column 1_050626_20150331_123605.csv
Method:,Column 1,,
Host Date-Time:,31/3/15 @ 12:36:5,,
Header Version:,1,,
System Temp (C):,34.16,,
Detector Temp (C):,35.05,,
Humidity (%):,1.56,,
Lamp PD:,3818,,
Shift Vector Coefficients:,-10.5391,0.0761263,-0.000134223,,
Pixel to Wavelength Coefficients:,1775.68,-0.916766,-0.000235065,,
Serial Number:,5510004,,
Scan Config Name:,Column 1,,
Scan Config Type:,Slew,,
Section 1,,
Start wavelength (nm):,900,,
End wavelength (nm):,1700,,
Pattern Pixel Width (nm):,   7.03,,,,
Exposure (ms):,  0.635,,,,
Digital Resolution:,228,,
Num Repeats:,6,,
PGA Gain:,64,,
Total Measurement Time in sec:,  2.671,,
Wavelength (nm),Absorbance (AU),Reference Signal (unitless),Sample Signal (unitless)
901.51,0.069660,108485,92408
905.376,0.076557,121306,101701
909.237,0.078653,131909,110058
913.095,0.078621,143299,119570
916.948,0.079428,156982,130744
922.079,0.080877,179937,149363
925.923,0.081296,200504,166275
929.762,0.082926,222660,183957
933.597,0.082521,244426,202128
937.427,0.081042,263972,219036
941.254,0.080429,281845,234197
945.076,0.079125,297271,247758
950.165,0.078101,315605,263659
953.978,0.076764,328029,274883
957.786,0.077504,340470,284823
961.59,0.077440,352317,294777
965.389,0.077868,363056,303463
969.185,0.077691,373162,312037
972.976,0.077633,382632,319999
976.763,0.078239,391202,326710
981.806,0.078375,400190,334111
985.583,0.079181,406088,338407
989.355,0.079539,410162,341520
993.124,0.080579,412868,342951
996.888,0.080504,414263,344169
1000.65,0.081232,415476,344599
1004.4,0.082720,415479,343423
1009.41,0.083895,414358,341571
1013.15,0.083974,412923,340326
1016.89,0.084604,411526,338683
1020.63,0.084921,409066,336413
1024.36,0.084667,406777,334726
1028.09,0.083888,404427,333390
1031.82,0.084522,401911,330832
1036.78,0.083731,398410,328548
1040.49,0.083556,396204,326861
1044.2,0.083408,394236,325348
1047.91,0.083250,392042,323655
1051.61,0.083383,389823,321725
1055.31,0.082413,388234,321130
1059,0.082751,387599,320355
1063.92,0.081254,386688,320706
1067.61,0.080910,386598,320885
1071.29,0.079794,387377,322359
1074.96,0.079799,388536,323320
1078.63,0.079302,389855,324789
1082.3,0.078225,391215,326731
1085.96,0.077537,393215,328922
1090.84,0.076133,396270,332551
1094.49,0.075667,398760,335000
1098.14,0.075342,400987,337123
1101.79,0.074797,403477,339642
1105.43,0.074417,406116,342163
1109.06,0.073528,407701,344202
1112.7,0.073502,409859,346045
1117.53,0.073285,412494,348444
1121.15,0.073385,414909,350403
1124.77,0.073656,416559,351577
1128.38,0.074629,418532,352452
1131.99,0.075648,419956,352822
1135.6,0.077383,421946,353081
1139.2,0.078236,423881,354004
1143.99,0.080754,426786,354369
1147.58,0.081332,428617,355416
1151.17,0.082359,431169,356688
1154.75,0.082745,433579,358363
1158.33,0.084032,436264,359515
1161.91,0.085683,439132,360506
1165.48,0.087642,442389,361545
1169.04,0.090072,446101,362544
1173.79,0.093736,451929,364195
1177.34,0.095452,456026,366048
1180.9,0.097914,461306,368193
1184.44,0.099894,467657,371564
1187.99,0.100962,473969,375654
1191.52,0.100377,479856,380832
1195.06,0.100406,487372,386772
1199.76,0.100150,497347,394920
1203.29,0.099111,504311,401409
1206.81,0.098812,511507,407417
1210.33,0.097921,519078,414297
1213.84,0.097082,527163,421563
1217.35,0.097319,534208,426964
1220.85,0.096178,540472,433107
1225.51,0.095161,549929,441719
1229.01,0.095244,556888,447223
1232.5,0.094181,562180,452579
1235.98,0.093656,567975,457797
1239.46,0.092609,574815,464429
1242.94,0.091982,582782,471546
1246.41,0.090660,591476,480040
1251.03,0.090861,604016,489990
1254.5,0.091004,612289,496538
1257.96,0.091843,619125,501113
1261.41,0.092281,624551,504995
1264.86,0.092941,629900,508547
1268.31,0.093250,634345,511771
1271.75,0.093941,638574,514364
1276.33,0.094065,642499,517377
1279.76,0.093906,645905,520310
1283.19,0.093170,648307,523131
1286.61,0.093195,650446,524827
1290.03,0.092865,652132,526587
1293.44,0.092243,653907,528777
1296.85,0.091628,655963,531192
1301.39,0.091627,657349,532315
1304.8,0.091732,657558,532356
1308.19,0.091622,658515,533266
1311.58,0.091689,658804,533417
1314.97,0.092593,659011,532475
1318.36,0.092645,658272,531815
1321.73,0.092846,658022,531367
1326.23,0.093508,657870,530435
1329.6,0.094648,656482,527928
1332.97,0.095108,654926,526119
1336.33,0.096069,653727,523995
1339.69,0.097449,652497,521350
1343.04,0.098889,649913,517566
1346.39,0.101004,647671,513275
1349.73,0.102814,645338,509299
1354.18,0.105365,641175,503051
1357.52,0.107602,638376,498281
1360.85,0.109607,635805,493989
1364.17,0.111565,633413,489916
1367.49,0.113655,631026,485727
1370.81,0.115678,628050,481190
1374.12,0.117408,625034,476975
1378.54,0.120369,620272,470125
1381.84,0.122993,616892,464746
1385.14,0.126181,613613,458895
1388.43,0.129963,611526,453369
1391.72,0.133386,610663,449175
1395.01,0.137359,610634,445064
1398.29,0.141640,611700,441467
1402.66,0.147863,614051,436859
1405.93,0.152492,616268,433788
1409.2,0.156801,617795,430570
1412.46,0.160612,618872,427552
1415.72,0.164630,619795,424246
1418.98,0.167828,620495,421609
1422.23,0.171111,621087,418834
1426.56,0.175010,621375,415283
1429.8,0.177162,621616,413390
1433.04,0.180228,622129,410821
1436.27,0.182085,621526,408671
1439.5,0.183831,621113,406761
1442.72,0.186426,620921,404213
1445.94,0.188685,620270,401694
1450.23,0.191889,618860,397835
1453.44,0.194980,617697,394272
1456.64,0.198226,616264,390428
1459.85,0.200657,614413,387082
1463.04,0.203761,612307,383008
1466.24,0.207354,610032,378441
1469.43,0.211770,607345,372963
1473.67,0.218310,603789,365237
1476.85,0.223662,601175,359202
1480.02,0.229882,597737,352069
1483.19,0.236732,594479,344671
1486.36,0.243376,591232,337584
1489.52,0.248190,587853,331955
1492.68,0.251184,583875,327443
1496.89,0.253482,578062,322472
1500.03,0.253882,574159,320000
1503.18,0.254350,570285,317499
1506.32,0.253718,565444,315262
1509.45,0.252052,560571,313746
1512.58,0.250544,555821,312170
1515.71,0.248071,550344,310859
1519.87,0.244933,543983,309494
1522.99,0.242390,538764,308325
1526.1,0.239998,533692,307109
1529.21,0.237430,527902,305579
1532.32,0.233427,521886,304894
1535.42,0.231163,515888,302965
1538.51,0.230620,509987,299874
1541.6,0.225945,503936,299523
1545.72,0.221596,494694,296989
1548.8,0.218162,488378,295525
1551.88,0.216494,481832,292686
1554.95,0.213845,474989,290294
1558.02,0.212610,467818,286726
1561.08,0.210936,460730,283472
1564.15,0.211712,454170,278937
1568.22,0.209803,444181,274004
1571.27,0.209698,436947,269607
1574.32,0.208576,429598,265758
1577.36,0.207575,422039,261684
1580.4,0.206208,414375,257742
1583.43,0.204868,406354,253534
1586.46,0.203047,398475,249663
1590.49,0.201331,388982,244680
1593.51,0.199717,380708,240367
1596.53,0.197791,372727,236374
1599.54,0.196190,365060,232367
1602.55,0.194347,357543,228550
1605.55,0.191540,349495,224854
1608.55,0.190159,341154,220187
1612.54,0.188122,330877,214558
1615.53,0.186383,322904,210228
1618.51,0.185490,315116,205580
1621.49,0.183681,307217,201263
1624.47,0.183122,299481,196448
1627.44,0.181877,292112,192164
1630.41,0.181227,284245,187269
1634.36,0.181165,274079,180597
1637.32,0.179354,266916,176612
1640.27,0.179451,259612,171741
1643.22,0.178123,251804,167086
1646.16,0.178036,244348,162171
1649.1,0.176237,236703,157749
1652.04,0.174851,228171,152549
1655.95,0.171894,215408,145000
1658.88,0.168634,204937,138991
1661.8,0.163093,193395,132847
1664.72,0.154497,179728,125927
1667.63,0.141527,163642,118132
1670.54,0.125830,146312,109509
1673.44,0.110352,128451,99629
1677.31,0.090734,105080,85268
1680.21,0.078914,88906,74134
1683.1,0.073081,75033,63412
1685.99,0.073681,63520,53608
1688.87,0.075420,53714,45151
1691.75,0.085010,45653,37537
1694.62,0.085096,39137,32173
1697.49,0.086332,33776,27687
1701.31,0.096544,28175,22559

File: Column 1_050626_20150331_123608.csv
Method:,Column 1,,
Host Date-Time:,31/3/15 @ 12:36:8,,
Header Version:,1,,
System Temp (C):,34.16,,
Detector Temp (C):,35.05,,
Humidity (%):,1.56,,
Lamp PD:,3817,,
Shift Vector Coefficients:,-10.5391,0.0761263,-0.000134223,,
Pixel to Wavelength Coefficients:,1775.68,-0.916766,-0.000235065,,
Serial Number:,5510004,,
Scan Config Name:,Column 1,,
Scan Config Type:,Slew,,
Section 1,,
Start wavelength (nm):,900,,
End wavelength (nm):,1700,,
Pattern Pixel Width (nm):,   7.03,,,,
Exposure (ms):,  0.635,,,,
Digital Resolution:,228,,
Num Repeats:,6,,
PGA Gain:,64,,
Total Measurement Time in sec:,  2.673,,
Wavelength (nm),Absorbance (AU),Reference Signal (unitless),Sample Signal (unitless)
901.51,0.069284,108485,92488
905.376,0.076361,121306,101747
909.237,0.077746,131909,110288
913.095,0.077330,143299,119926
916.948,0.078287,156982,131088
922.079,0.080976,179937,149329
925.923,0.080844,200504,166448
929.762,0.083179,222660,183850
933.597,0.082392,244426,202188
937.427,0.081215,263972,218949
941.254,0.081407,281845,233670
945.076,0.079049,297271,247801
950.165,0.078502,315605,263416
953.978,0.077335,328029,274522
957.786,0.077579,340470,284774
961.59,0.078003,352317,294395
965.389,0.078114,363056,303291
969.185,0.077629,373162,312082
972.976,0.078569,382632,319310
976.763,0.078211,391202,326731
981.806,0.078682,400190,333875
985.583,0.079603,406088,338078
989.355,0.080030,410162,341134
993.124,0.079958,412868,343442
996.888,0.080826,414263,343914
1000.65,0.081693,415476,344233
1004.4,0.082361,415479,343707
1009.41,0.083263,414358,342068
1013.15,0.084471,412923,339937
1016.89,0.084686,411526,338619
1020.63,0.084349,409066,336856
1024.36,0.084624,406777,334759
1028.09,0.084130,404427,333204
1031.82,0.084234,401911,331052
1036.78,0.084129,398410,328247
1040.49,0.084025,396204,326508
1044.2,0.083811,394236,325046
1047.91,0.083323,392042,323601
1051.61,0.083334,389823,321761
1055.31,0.083163,388234,320576
1059,0.082346,387599,320654
1063.92,0.081180,386688,320760
1067.61,0.081075,386598,320763
1071.29,0.080753,387377,321648
1074.96,0.079976,388536,323188
1078.63,0.078811,389855,325156
1082.3,0.078082,391215,326839
1085.96,0.076883,393215,329418
1090.84,0.076619,396270,332179
1094.49,0.075841,398760,334866
1098.14,0.075089,400987,337319
1101.79,0.074661,403477,339749
1105.43,0.074121,406116,342396
1109.06,0.073657,407701,344100
1112.7,0.074161,409859,345520
1117.53,0.072747,412494,348876
1121.15,0.073607,414909,350224
1124.77,0.073694,416559,351546
1128.38,0.074333,418532,352692
1131.99,0.075749,419956,352740
1135.6,0.077049,421946,353352
1139.2,0.078381,423881,353886
1143.99,0.080361,426786,354690
1147.58,0.081174,428617,355546
1151.17,0.081967,431169,357010
1154.75,0.082825,433579,358297
1158.33,0.084370,436264,359236
1161.91,0.085718,439132,360477
1165.48,0.087844,442389,361377
1169.04,0.090101,446101,362520
1173.79,0.093290,451929,364569
1177.34,0.095429,456026,366067
1180.9,0.097600,461306,368459
1184.44,0.099805,467657,371640
1187.99,0.100648,473969,375926
1191.52,0.100547,479856,380683
1195.06,0.100232,487372,386927
1199.76,0.100010,497347,395048
1203.29,0.098962,504311,401547
1206.81,0.098687,511507,407535
1210.33,0.098053,519078,414171
1213.84,0.096813,527163,421825
1217.35,0.096738,534208,427536
1220.85,0.096465,540472,432821
1225.51,0.095415,549929,441460
1229.01,0.094984,556888,447491
1232.5,0.094211,562180,452548
1235.98,0.093842,567975,457601
1239.46,0.093158,574815,463842
1242.94,0.091740,582782,471809
1246.41,0.090975,591476,479692
1251.03,0.091055,604016,489771
1254.5,0.091341,612289,496153
1257.96,0.091859,619125,501094
1261.41,0.092361,624551,504902
1264.86,0.092530,629900,509028
1268.31,0.093156,634345,511882
1271.75,0.093564,638574,514810
1276.33,0.093908,642499,517564
1279.76,0.093937,645905,520274
1283.19,0.093395,648307,522860
1286.61,0.092703,650446,525422
1290.03,0.092671,652132,526823
1293.44,0.092265,653907,528751
1296.85,0.092031,655963,530699
1301.39,0.091502,657349,532469
1304.8,0.091536,657558,532596
1308.19,0.091764,658515,533092
1311.58,0.091974,658804,533068
1314.97,0.092158,659011,533009
1318.36,0.092319,658272,532214
1321.73,0.092618,658022,531646
1326.23,0.093791,657870,530089
1329.6,0.094064,656482,528638
1332.97,0.095208,654926,525998
1336.33,0.096296,653727,523721
1339.69,0.097535,652497,521247
1343.04,0.098915,649913,517535
1346.39,0.101262,647671,512970
1349.73,0.102859,645338,509247
1354.18,0.105556,641175,502829
1357.52,0.107188,638376,498757
1360.85,0.109630,635805,493963
1364.17,0.111314,633413,490200
1367.49,0.113741,631026,485631
1370.81,0.115913,628050,480929
1374.12,0.118041,625034,476280
1378.54,0.120749,620272,469714
1381.84,0.123161,616892,464567
1385.14,0.126391,613613,458673
1388.43,0.129745,611526,453597
1391.72,0.133740,610663,448809
1395.01,0.137354,610634,445069
1398.29,0.141912,611700,441191
1402.66,0.147024,614051,437704
1405.93,0.151985,616268,434295
1409.2,0.156586,617795,430783
1412.46,0.160770,618872,427396
1415.72,0.164763,619795,424116
1418.98,0.167788,620495,421648
1422.23,0.171169,621087,418778
1426.56,0.174957,621375,415333
1429.8,0.177213,621616,413342
1433.04,0.180316,622129,410738
1436.27,0.181759,621526,408978
1439.5,0.184109,621113,406501
1442.72,0.185994,620921,404615
1445.94,0.188337,620270,402016
1450.23,0.192555,618860,397226
1453.44,0.194712,617697,394515
1456.64,0.198165,616264,390483
1459.85,0.200850,614413,386910
1463.04,0.203804,612307,382970
1466.24,0.207610,610032,378218
1469.43,0.211444,607345,373243
1473.67,0.217605,603789,365831
1476.85,0.224335,601175,358646
1480.02,0.229895,597737,352059
1483.19,0.236676,594479,344715
1486.36,0.242878,591232,337971
1489.52,0.247835,587853,332226
1492.68,0.251392,583875,327286
1496.89,0.253567,578062,322409
1500.03,0.254013,574159,319904
1503.18,0.254575,570285,317334
1506.32,0.253136,565444,315685
1509.45,0.251855,560571,313889
1512.58,0.250743,555821,312027
1515.71,0.247652,550344,311159
1519.87,0.245022,543983,309431
1522.99,0.241728,538764,308795
1526.1,0.240079,533692,307052
1529.21,0.237359,527902,305629
1532.32,0.234001,521886,304491
1535.42,0.230775,515888,303236
1538.51,0.228783,509987,301145
1541.6,0.225490,503936,299837
1545.72,0.220958,494694,297426
1548.8,0.218322,488378,295416
1551.88,0.216602,481832,292613
1554.95,0.213590,474989,290465
1558.02,0.212714,467818,286657
1561.08,0.211519,460730,283092
1564.15,0.210914,454170,279450
1568.22,0.210016,444181,273870
1571.27,0.209266,436947,269875
1574.32,0.209019,429598,265487
1577.36,0.207683,422039,261619
1580.4,0.206927,414375,257316
1583.43,0.205643,406354,253082
1586.46,0.203649,398475,249317
1590.49,0.201555,388982,244554
1593.51,0.199244,380708,240629
1596.53,0.197528,372727,236517
1599.54,0.195618,365060,232673
1602.55,0.193271,357543,229117
1605.55,0.191820,349495,224709
1608.55,0.190332,341154,220099
1612.54,0.187735,330877,214749
1615.53,0.185906,322904,210459
1618.51,0.185471,315116,205589
1621.49,0.184550,307217,200861
1624.47,0.183347,299481,196346
1627.44,0.182217,292112,192014
1630.41,0.181768,284245,187036
1634.36,0.180908,274079,180704
1637.32,0.179746,266916,176453
1640.27,0.180316,259612,171399
1643.22,0.177863,251804,167186
1646.16,0.177155,244348,162500
1649.1,0.177580,236703,157262
1652.04,0.174578,228171,152645
1655.95,0.171876,215408,145006
1658.88,0.167545,204937,139340
1661.8,0.162930,193395,132897
1664.72,0.154728,179728,125860
1667.63,0.141774,163642,118065
1670.54,0.128256,146312,108899
1673.44,0.111491,128451,99368
1677.31,0.090088,105080,85395
1680.21,0.079125,88906,74098
1683.1,0.073698,75033,63322
1685.99,0.071338,63520,53898
1688.87,0.076740,53714,45014
1691.75,0.081163,45653,37871
1694.62,0.088838,39137,31897
1697.49,0.092143,33776,27319
1701.31,0.097488,28175,22510