Folder: textile_sorting_NIRSCAN_/samples/wool/wool-000811 (part 41)

File: Column 1_050553_20150331_120119.csv
Method:,Column 1,,
Host Date-Time:,31/3/15 @ 12:1:19,,
Header Version:,1,,
System Temp (C):,33.41,,
Detector Temp (C):,32.42,,
Humidity (%):,2.64,,
Lamp PD:,3820,,
Shift Vector Coefficients:,-10.5391,0.0761263,-0.000134223,,
Pixel to Wavelength Coefficients:,1775.68,-0.916766,-0.000235065,,
Serial Number:,5510004,,
Scan Config Name:,Column 1,,
Scan Config Type:,Slew,,
Section 1,,
Start wavelength (nm):,900,,
End wavelength (nm):,1700,,
Pattern Pixel Width (nm):,   7.03,,,,
Exposure (ms):,  0.635,,,,
Digital Resolution:,228,,
Num Repeats:,6,,
PGA Gain:,64,,
Total Measurement Time in sec:,  2.726,,
Wavelength (nm),Absorbance (AU),Reference Signal (unitless),Sample Signal (unitless)
901.51,0.034966,108485,100093
905.376,0.041145,121306,110341
909.237,0.041792,131909,119807
913.095,0.042902,143299,129820
916.948,0.044244,156982,141777
922.079,0.044740,179937,162323
925.923,0.044394,200504,181021
929.762,0.045502,222660,200512
933.597,0.045867,244426,219928
937.427,0.046271,263972,237294
941.254,0.046787,281845,253060
945.076,0.046019,297271,267383
950.165,0.045095,315605,284478
953.978,0.044860,328029,295837
957.786,0.045583,340470,306546
961.59,0.046210,352317,316755
965.389,0.046169,363056,326441
969.185,0.046658,373162,335150
972.976,0.047328,382632,343126
976.763,0.047864,391202,350378
981.806,0.048456,400190,357940
985.583,0.048804,406088,362924
989.355,0.049644,410162,365857
993.124,0.049998,412868,367971
996.888,0.050538,414263,368755
1000.65,0.051470,415476,369042
1004.4,0.052715,415479,367988
1009.41,0.054165,414358,365772
1013.15,0.054667,412923,364084
1016.89,0.055014,411526,362563
1020.63,0.054632,409066,360713
1024.36,0.055351,406777,358101
1028.09,0.054529,404427,356707
1031.82,0.054282,401911,354689
1036.78,0.053946,398410,351872
1040.49,0.053337,396204,350414
1044.2,0.052948,394236,348986
1047.91,0.052833,392042,347136
1051.61,0.052103,389823,345752
1055.31,0.052035,388234,344396
1059,0.051325,387599,344396
1063.92,0.050211,386688,344469
1067.61,0.049697,386598,344796
1071.29,0.048901,387377,346125
1074.96,0.048449,388536,347522
1078.63,0.048344,389855,348786
1082.3,0.047314,391215,350834
1085.96,0.046413,393215,353360
1090.84,0.045440,396270,356904
1094.49,0.045667,398760,358959
1098.14,0.045337,400987,361238
1101.79,0.044606,403477,364093
1105.43,0.045012,406116,366132
1109.06,0.044893,407701,367662
1112.7,0.044603,409859,369855
1117.53,0.044534,412494,372292
1121.15,0.044985,414909,374083
1124.77,0.045715,416559,374940
1128.38,0.047000,418532,375603
1131.99,0.048676,419956,375429
1135.6,0.050175,421946,375908
1139.2,0.052169,423881,375902
1143.99,0.054656,426786,376317
1147.58,0.055454,428617,377238
1151.17,0.056733,431169,378368
1154.75,0.058727,433579,378740
1158.33,0.059931,436264,380030
1161.91,0.062258,439132,380485
1165.48,0.064253,442389,381550
1169.04,0.067193,446101,382156
1173.79,0.070986,451929,383782
1177.34,0.073620,456026,384919
1180.9,0.075633,461306,387575
1184.44,0.077626,467657,391112
1187.99,0.077877,473969,396162
1191.52,0.078571,479856,400442
1195.06,0.077864,487372,407377
1199.76,0.077028,497347,416516
1203.29,0.075898,504311,423448
1206.81,0.074960,511507,430419
1210.33,0.074575,519078,437177
1213.84,0.073394,527163,445196
1217.35,0.072530,534208,452044
1220.85,0.072080,540472,457818
1225.51,0.070879,549929,467119
1229.01,0.070910,556888,472996
1232.5,0.070051,562180,478437
1235.98,0.069277,567975,484231
1239.46,0.068229,574815,491246
1242.94,0.067105,582782,499346
1246.41,0.066422,591476,507592
1251.03,0.066043,604016,518806
1254.5,0.066432,612289,525441
1257.96,0.067295,619125,530253
1261.41,0.067422,624551,534744
1264.86,0.068063,629900,538529
1268.31,0.068779,634345,541435
1271.75,0.069521,638574,544114
1276.33,0.069819,642499,547083
1279.76,0.069721,645905,550107
1283.19,0.069241,648307,552764
1286.61,0.069195,650446,554646
1290.03,0.068492,652132,556985
1293.44,0.068061,653907,559055
1296.85,0.068176,655963,560665
1301.39,0.068026,657349,562043
1304.8,0.067969,657558,562296
1308.19,0.068135,658515,562899
1311.58,0.068142,658804,563137
1314.97,0.068935,659011,562287
1318.36,0.069157,658272,561369
1321.73,0.070107,658022,559930
1326.23,0.070922,657870,558751
1329.6,0.071858,656482,556371
1332.97,0.073108,654926,553457
1336.33,0.074324,653727,550899
1339.69,0.075632,652497,548209
1343.04,0.078135,649913,542901
1346.39,0.080159,647671,538512
1349.73,0.082320,645338,533909
1354.18,0.085840,641175,526183
1357.52,0.088063,638376,521211
1360.85,0.090207,635805,516556
1364.17,0.092223,633413,512229
1367.49,0.094931,631026,507126
1370.81,0.097236,628050,502063
1374.12,0.099640,625034,496894
1378.54,0.103357,620272,488906
1381.84,0.107285,616892,481864
1385.14,0.111358,613613,474828
1388.43,0.115843,611526,468352
1391.72,0.121190,610663,461968
1395.01,0.126649,610634,456176
1398.29,0.132282,611700,451083
1402.66,0.140344,614051,444488
1405.93,0.146890,616268,439420
1409.2,0.153056,617795,434299
1412.46,0.158686,618872,429452
1415.72,0.163754,619795,425103
1418.98,0.168249,620495,421201
1422.23,0.172103,621087,417878
1426.56,0.176657,621375,413711
1429.8,0.179277,621616,411382
1433.04,0.182799,622129,408396
1436.27,0.184550,621526,406358
1439.5,0.187019,621113,403786
1442.72,0.189928,620921,400967
1445.94,0.192114,620270,398535
1450.23,0.195549,618860,394497
1453.44,0.199109,617697,390541
1456.64,0.201556,616264,387446
1459.85,0.203884,614413,384217
1463.04,0.207135,612307,380044
1466.24,0.209620,610032,376472
1469.43,0.213495,607345,371484
1473.67,0.218326,603789,365224
1476.85,0.223932,601175,358979
1480.02,0.228801,597737,352947
1483.19,0.235564,594479,345599
1486.36,0.240973,591232,339457
1489.52,0.246176,587853,333498
1492.68,0.248919,583875,329155
1496.89,0.250997,578062,324323
1500.03,0.251816,574159,321526
1503.18,0.252152,570285,319110
1506.32,0.251297,565444,317024
1509.45,0.249474,560571,315614
1512.58,0.248234,555821,313835
1515.71,0.246378,550344,312073
1519.87,0.243615,543983,310435
1522.99,0.240558,538764,309628
1526.1,0.238227,533692,308364
1529.21,0.234496,527902,307650
1532.32,0.231318,521886,306378
1535.42,0.228710,515888,304681
1538.51,0.225501,509987,303430
1541.6,0.222406,503936,301974
1545.72,0.218202,494694,299319
1548.8,0.214506,488378,298023
1551.88,0.212845,481832,295155
1554.95,0.210108,474989,292803
1558.02,0.207350,467818,290220
1561.08,0.206428,460730,286430
1564.15,0.206480,454170,282318
1568.22,0.204463,444181,277394
1571.27,0.204653,436947,272757
1574.32,0.203654,429598,268787
1577.36,0.201337,422039,265470
1580.4,0.199603,414375,261692
1583.43,0.198417,406354,257328
1586.46,0.197590,398475,252820
1590.49,0.194231,388982,248713
1593.51,0.192365,380708,244471
1596.53,0.189655,372727,240844
1599.54,0.188730,365060,236393
1602.55,0.185533,357543,233236
1605.55,0.182848,349495,229400
1608.55,0.180432,341154,225174
1612.54,0.178858,330877,219184
1615.53,0.175505,322904,215560
1618.51,0.175439,315116,210393
1621.49,0.174078,307217,205763
1624.47,0.172090,299481,201502
1627.44,0.171024,292112,197027
1630.41,0.170978,284245,191741
1634.36,0.168566,274079,185913
1637.32,0.166876,266916,181760
1640.27,0.167528,259612,176521
1643.22,0.166601,251804,171578
1646.16,0.165069,244348,167086
1649.1,0.165056,236703,161863
1652.04,0.164074,228171,156382
1655.95,0.161635,215408,148466
1658.88,0.159240,204937,142030
1661.8,0.154628,193395,135462
1664.72,0.150463,179728,127102
1667.63,0.141638,163642,118102
1670.54,0.133464,146312,107601
1673.44,0.123868,128451,96576
1677.31,0.111408,105080,81304
1680.21,0.105505,88906,69731
1683.1,0.105764,75033,58815
1685.99,0.107201,63520,49626
1688.87,0.113444,53714,41366
1691.75,0.120732,45653,34573
1694.62,0.127547,39137,29177
1697.49,0.125574,33776,25295
1701.31,0.138916,28175,20462

File: Column 1_050553_20150331_120131.csv
Method:,Column 1,,
Host Date-Time:,31/3/15 @ 12:1:31,,
Header Version:,1,,
System Temp (C):,33.41,,
Detector Temp (C):,32.4,,
Humidity (%):,2.54,,
Lamp PD:,3820,,
Shift Vector Coefficients:,-10.5391,0.0761263,-0.000134223,,
Pixel to Wavelength Coefficients:,1775.68,-0.916766,-0.000235065,,
Serial Number:,5510004,,
Scan Config Name:,Column 1,,
Scan Config Type:,Slew,,
Section 1,,
Start wavelength (nm):,900,,
End wavelength (nm):,1700,,
Pattern Pixel Width (nm):,   7.03,,,,
Exposure (ms):,  0.635,,,,
Digital Resolution:,228,,
Num Repeats:,6,,
PGA Gain:,64,,
Total Measurement Time in sec:,  2.729,,
Wavelength (nm),Absorbance (AU),Reference Signal (unitless),Sample Signal (unitless)
901.51,0.034038,108485,100307
905.376,0.039002,121306,110887
909.237,0.041705,131909,119831
913.095,0.040799,143299,130450
916.948,0.043555,156982,142002
922.079,0.043501,179937,162787
925.923,0.044476,200504,180987
929.762,0.045151,222660,200674
933.597,0.045932,244426,219895
937.427,0.045454,263972,237741
941.254,0.046123,281845,253447
945.076,0.045477,297271,267717
950.165,0.045353,315605,284309
953.978,0.045612,328029,295325
957.786,0.045617,340470,306522
961.59,0.045939,352317,316953
965.389,0.046544,363056,326159
969.185,0.046376,373162,335368
972.976,0.046929,382632,343441
976.763,0.047079,391202,351012
981.806,0.048103,400190,358231
985.583,0.048221,406088,363412
989.355,0.049025,410162,366379
993.124,0.049755,412868,368177
996.888,0.050461,414263,368821
1000.65,0.051055,415476,369395
1004.4,0.052601,415479,368085
1009.41,0.053387,414358,366428
1013.15,0.054372,412923,364332
1016.89,0.054494,411526,362997
1020.63,0.054443,409066,360870
1024.36,0.054615,406777,358708
1028.09,0.054066,404427,357087
1031.82,0.054285,401911,354687
1036.78,0.053203,398410,352474
1040.49,0.053735,396204,350093
1044.2,0.053658,394236,348416
1047.91,0.052305,392042,347558
1051.61,0.052089,389823,345763
1055.31,0.051771,388234,344606
1059,0.050837,387599,344783
1063.92,0.050585,386688,344172
1067.61,0.049405,386598,345028
1071.29,0.048868,387377,346151
1074.96,0.048373,388536,347583
1078.63,0.047973,389855,349084
1082.3,0.046632,391215,351385
1085.96,0.046435,393215,353342
1090.84,0.045488,396270,356864
1094.49,0.045309,398760,359255
1098.14,0.044793,400987,361691
1101.79,0.044797,403477,363933
1105.43,0.044055,406116,366940
1109.06,0.044113,407701,368323
1112.7,0.043955,409859,370407
1117.53,0.043736,412494,372977
1121.15,0.045347,414909,373771
1124.77,0.045332,416559,375271
1128.38,0.046946,418532,375649
1131.99,0.047666,419956,376303
1135.6,0.050024,421946,376039
1139.2,0.051832,423881,376194
1143.99,0.054711,426786,376270
1147.58,0.055424,428617,377264
1151.17,0.056224,431169,378812
1154.75,0.057973,433579,379398
1158.33,0.059959,436264,380006
1161.91,0.061500,439132,381149
1165.48,0.064125,442389,381662
1169.04,0.067734,446101,381680
1173.79,0.071110,451929,383672
1177.34,0.073153,456026,385333
1180.9,0.075156,461306,388001
1184.44,0.077039,467657,391641
1187.99,0.077888,473969,396152
1191.52,0.077703,479856,401243
1195.06,0.077523,487372,407697
1199.76,0.076485,497347,417037
1203.29,0.076068,504311,423283
1206.81,0.075145,511507,430236
1210.33,0.073895,519078,437862
1213.84,0.073469,527163,445119
1217.35,0.072385,534208,452195
1220.85,0.072044,540472,457856
1225.51,0.070804,549929,467200
1229.01,0.069933,556888,474062
1232.5,0.069552,562180,478987
1235.98,0.068941,567975,484605
1239.46,0.068266,574815,491204
1242.94,0.066895,582782,499587
1246.41,0.066365,591476,507659
1251.03,0.066183,604016,518639
1254.5,0.066171,612289,525757
1257.96,0.066872,619125,530770
1261.41,0.067286,624551,534912
1264.86,0.067751,629900,538916
1268.31,0.068483,634345,541804
1271.75,0.069459,638574,544192
1276.33,0.069855,642499,547038
1279.76,0.069624,645905,550230
1283.19,0.068769,648307,553365
1286.61,0.068454,650446,555593
1290.03,0.068497,652132,556979
1293.44,0.068054,653907,559064
1296.85,0.067613,655963,561392
1301.39,0.067332,657349,562942
1304.8,0.067572,657558,562810
1308.19,0.067718,658515,563440
1311.58,0.067691,658804,563722
1314.97,0.068612,659011,562705
1318.36,0.069152,658272,561375
1321.73,0.069444,658022,560785
1326.23,0.070733,657870,558994
1329.6,0.071866,656482,556361
1332.97,0.072816,654926,553830
1336.33,0.073605,653727,551812
1339.69,0.076148,652497,547559
1343.04,0.077598,649913,543572
1346.39,0.080112,647671,538570
1349.73,0.082244,645338,534002
1354.18,0.085447,641175,526659
1357.52,0.087586,638376,521784
1360.85,0.089932,635805,516883
1364.17,0.092199,633413,512257
1367.49,0.094494,631026,507637
1370.81,0.097182,628050,502125
1374.12,0.099823,625034,496685
1378.54,0.102950,620272,489364
1381.84,0.106751,616892,482457
1385.14,0.111090,613613,475121
1388.43,0.116051,611526,468127
1391.72,0.120934,610663,462240
1395.01,0.126197,610634,456651
1398.29,0.131914,611700,451465
1402.66,0.139943,614051,444899
1405.93,0.146426,616268,439890
1409.2,0.152296,617795,435059
1412.46,0.157726,618872,430403
1415.72,0.163060,619795,425783
1418.98,0.167638,620495,421794
1422.23,0.170784,621087,419149
1426.56,0.176160,621375,414184
1429.8,0.178442,621616,412174
1433.04,0.181237,622129,409867
1436.27,0.184331,621526,406563
1439.5,0.186621,621113,404157
1442.72,0.188670,620921,402130
1445.94,0.191306,620270,399277
1450.23,0.195230,618860,394787
1453.44,0.197517,617697,391975
1456.64,0.201058,616264,387890
1459.85,0.203492,614413,384564
1463.04,0.206954,612307,380203
1466.24,0.209771,610032,376341
1469.43,0.212852,607345,372035
1473.67,0.218358,603789,365197
1476.85,0.223389,601175,359428
1480.02,0.228701,597737,353028
1483.19,0.234661,594479,346318
1486.36,0.240297,591232,339986
1489.52,0.244978,587853,334419
1492.68,0.248214,583875,329690
1496.89,0.250811,578062,324462
1500.03,0.251686,574159,321622
1503.18,0.251432,570285,319639
1506.32,0.251182,565444,317108
1509.45,0.249579,560571,315538
1512.58,0.247602,555821,314292
1515.71,0.245947,550344,312383
1519.87,0.242083,543983,311532
1522.99,0.240229,538764,309863
1526.1,0.237203,533692,309092
1529.21,0.234415,527902,307708
1532.32,0.231012,521886,306594
1535.42,0.228304,515888,304966
1538.51,0.225329,509987,303550
1541.6,0.222108,503936,302181
1545.72,0.217263,494694,299967
1548.8,0.216516,488378,296647
1551.88,0.211974,481832,295748
1554.95,0.209173,474989,293434
1558.02,0.208259,467818,289613
1561.08,0.205787,460730,286853
1564.15,0.205420,454170,283008
1568.22,0.204072,444181,277644
1571.27,0.203305,436947,273605
1574.32,0.202040,429598,269788
1577.36,0.200613,422039,265913
1580.4,0.200060,414375,261417
1583.43,0.198208,406354,257452
1586.46,0.195622,398475,253968
1590.49,0.193767,388982,248979
1593.51,0.190850,380708,245325
1596.53,0.188549,372727,241458
1599.54,0.186785,365060,237454
1602.55,0.184500,357543,233791
1605.55,0.181488,349495,230119
1608.55,0.180828,341154,224969
1612.54,0.178448,330877,219391
1615.53,0.176379,322904,215127
1618.51,0.175270,315116,210475
1621.49,0.173576,307217,206001
1624.47,0.172025,299481,201532
1627.44,0.171350,292112,196879
1630.41,0.169339,284245,192466
1634.36,0.168508,274079,185938
1637.32,0.166805,266916,181790
1640.27,0.166725,259612,176848
1643.22,0.165310,251804,172089
1646.16,0.163320,244348,167760
1649.1,0.163666,236703,162382
1652.04,0.163117,228171,156727
1655.95,0.159749,215408,149112
1658.88,0.157263,204937,142678
1661.8,0.154429,193395,135524
1664.72,0.148803,179728,127589
1667.63,0.139971,163642,118556
1670.54,0.131724,146312,108033
1673.44,0.120058,128451,97427
1677.31,0.110059,105080,81557
1680.21,0.102118,88906,70277
1683.1,0.101298,75033,59423
1685.99,0.109342,63520,49382
1688.87,0.109244,53714,41768
1691.75,0.115451,45653,34996
1694.62,0.121472,39137,29588
1697.49,0.125934,33776,25274
1701.31,0.130508,28175,20862

File: Column 1_050554_20150331_120137.csv
Method:,Column 1,,
Host Date-Time:,31/3/15 @ 12:1:37,,
Header Version:,1,,
System Temp (C):,33.42,,
Detector Temp (C):,32.42,,
Humidity (%):,2.49,,
Lamp PD:,3820,,
Shift Vector Coefficients:,-10.5391,0.0761263,-0.000134223,,
Pixel to Wavelength Coefficients:,1775.68,-0.916766,-0.000235065,,
Serial Number:,5510004,,
Scan Config Name:,Column 1,,
Scan Config Type:,Slew,,
Section 1,,
Start wavelength (nm):,900,,
End wavelength (nm):,1700,,
Pattern Pixel Width (nm):,   7.03,,,,
Exposure (ms):,  0.635,,,,
Digital Resolution:,228,,
Num Repeats:,6,,
PGA Gain:,64,,
Total Measurement Time in sec:,  2.685,,
Wavelength (nm),Absorbance (AU),Reference Signal (unitless),Sample Signal (unitless)
901.51,0.032383,108485,100690
905.376,0.038176,121306,111098
909.237,0.041691,131909,119835
913.095,0.041959,143299,130102
916.948,0.043347,156982,142070
922.079,0.043413,179937,162820
925.923,0.044387,200504,181024
929.762,0.045450,222660,200536
933.597,0.046663,244426,219525
937.427,0.045947,263972,237471
941.254,0.044961,281845,254126
945.076,0.045332,297271,267806
950.165,0.045550,315605,284180
953.978,0.044845,328029,295847
957.786,0.045922,340470,306307
961.59,0.045984,352317,316920
965.389,0.046275,363056,326361
969.185,0.046806,373162,335036
972.976,0.046655,382632,343658
976.763,0.047396,391202,350756
981.806,0.047336,400190,358864
985.583,0.048887,406088,362855
989.355,0.049781,410162,365742
993.124,0.050078,412868,367903
996.888,0.049983,414263,369227
1000.65,0.051276,415476,369207
1004.4,0.051898,415479,368681
1009.41,0.053265,414358,366531
1013.15,0.053939,412923,364695
1016.89,0.054576,411526,362929
1020.63,0.054717,409066,360642
1024.36,0.054881,406777,358489
1028.09,0.054683,404427,356580
1031.82,0.054222,401911,354738
1036.78,0.054036,398410,351799
1040.49,0.053368,396204,350389
1044.2,0.053088,394236,348874
1047.91,0.052222,392042,347625
1051.61,0.052462,389823,345466
1055.31,0.051564,388234,344770
1059,0.050954,387599,344690
1063.92,0.050270,386688,344422
1067.61,0.048648,386598,345630
1071.29,0.049142,387377,345933
1074.96,0.048002,388536,347880
1078.63,0.047589,389855,349393
1082.3,0.046700,391215,351330
1085.96,0.046264,393215,353481
1090.84,0.045743,396270,356655
1094.49,0.045323,398760,359243
1098.14,0.044597,400987,361854
1101.79,0.044933,403477,363819
1105.43,0.045262,406116,365922
1109.06,0.044167,407701,368277
1112.7,0.044094,409859,370289
1117.53,0.044431,412494,372380
1121.15,0.045153,414909,373938
1124.77,0.045423,416559,375192
1128.38,0.046211,418532,376286
1131.99,0.048103,419956,375925
1135.6,0.050228,421946,375862
1139.2,0.051950,423881,376092
1143.99,0.054506,426786,376447
1147.58,0.055269,428617,377399
1151.17,0.056349,431169,378703
1154.75,0.058216,433579,379186
1158.33,0.060231,436264,379768
1161.91,0.062215,439132,380522
1165.48,0.064163,442389,381629
1169.04,0.067240,446101,382114
1173.79,0.070721,451929,384016
1177.34,0.073226,456026,385269
1180.9,0.075400,461306,387783
1184.44,0.077028,467657,391651
1187.99,0.078370,473969,395713
1191.52,0.077850,479856,401108
1195.06,0.077656,487372,407572
1199.76,0.076680,497347,416850
1203.29,0.075456,504311,423880
1206.81,0.074421,511507,430954
1210.33,0.073794,519078,437964
1213.84,0.073236,527163,445358
1217.35,0.072442,534208,452135
1220.85,0.071808,540472,458105
1225.51,0.070511,549929,467515
1229.01,0.070094,556888,473886
1232.5,0.069648,562180,478881
1235.98,0.068816,567975,484745
1239.46,0.067764,574815,491772
1242.94,0.066793,582782,499704
1246.41,0.066601,591476,507383
1251.03,0.066425,604016,518350
1254.5,0.066704,612289,525113
1257.96,0.066930,619125,530699
1261.41,0.067241,624551,534967
1264.86,0.067960,629900,538656
1268.31,0.068330,634345,541995
1271.75,0.068828,638574,544983
1276.33,0.069417,642499,547590
1279.76,0.069153,645905,550827
1283.19,0.069106,648307,552936
1286.61,0.068484,650446,555555
1290.03,0.068246,652132,557300
1293.44,0.068124,653907,558975
1296.85,0.068003,655963,560888
1301.39,0.067487,657349,562741
1304.8,0.067482,657558,562927
1308.19,0.067888,658515,563220
1311.58,0.067925,658804,563419
1314.97,0.068458,659011,562905
1318.36,0.069067,658272,561485
1321.73,0.069345,658022,560913
1326.23,0.070947,657870,558718
1329.6,0.071699,656482,556575
1332.97,0.072568,654926,554146
1336.33,0.073708,653727,551682
1339.69,0.075796,652497,548002
1343.04,0.077569,649913,543609
1346.39,0.080082,647671,538607
1349.73,0.082000,645338,534303
1354.18,0.085248,641175,526900
1357.52,0.087480,638376,521911
1360.85,0.090117,635805,516663
1364.17,0.092295,633413,512144
1367.49,0.094524,631026,507602
1370.81,0.096921,628050,502427
1374.12,0.099578,625034,496965
1378.54,0.103492,620272,488754
1381.84,0.106367,616892,482883
1385.14,0.110984,613613,475237
1388.43,0.115991,611526,468192
1391.72,0.120961,610663,462211
1395.01,0.125990,610634,456868
1398.29,0.132157,611700,451213
1402.66,0.139827,614051,445018
1405.93,0.146337,616268,439980
1409.2,0.152199,617795,435156
1412.46,0.157373,618872,430753
1415.72,0.162591,619795,426243
1418.98,0.166709,620495,422697
1422.23,0.170980,621087,418960
1426.56,0.175280,621375,415025
1429.8,0.178468,621616,412149
1433.04,0.181460,622129,409657
1436.27,0.184221,621526,406666
1439.5,0.186361,621113,404399
1442.72,0.188748,620921,402058
1445.94,0.191674,620270,398939
1450.23,0.194924,618860,395065
1453.44,0.197836,617697,391687
1456.64,0.200561,616264,388334
1459.85,0.203229,614413,384797
1463.04,0.205917,612307,381112
1466.24,0.209835,610032,376286
1469.43,0.212747,607345,372125
1473.67,0.218163,603789,365361
1476.85,0.223124,601175,359647
1480.02,0.228617,597737,353096
1483.19,0.235236,594479,345860
1486.36,0.240354,591232,339941
1489.52,0.245576,587853,333959
1492.68,0.248557,583875,329430
1496.89,0.250554,578062,324654
1500.03,0.251348,574159,321873
1503.18,0.250888,570285,320040
1506.32,0.250720,565444,317446
1509.45,0.249291,560571,315747
1512.58,0.247596,555821,314296
1515.71,0.245333,550344,312825
1519.87,0.241954,543983,311624
1522.99,0.239541,538764,310354
1526.1,0.236657,533692,309481
1529.21,0.233647,527902,308252
1532.32,0.231660,521886,306137
1535.42,0.228411,515888,304891
1538.51,0.224801,509987,303919
1541.6,0.221541,503936,302576
1545.72,0.217692,494694,299671
1548.8,0.213857,488378,298469
1551.88,0.211359,481832,296167
1554.95,0.209616,474989,293135
1558.02,0.207302,467818,290252
1561.08,0.206255,460730,286544
1564.15,0.205187,454170,283160
1568.22,0.204676,444181,277258
1571.27,0.202994,436947,273801
1574.32,0.201830,429598,269918
1577.36,0.200177,422039,266180
1580.4,0.199329,414375,261857
1583.43,0.197987,406354,257583
1586.46,0.196004,398475,253745
1590.49,0.193253,388982,249274
1593.51,0.191630,380708,244885
1596.53,0.189835,372727,240744
1599.54,0.186792,365060,237450
1602.55,0.184538,357543,233771
1605.55,0.182760,349495,229446
1608.55,0.180600,341154,225087
1612.54,0.177477,330877,219882
1615.53,0.175765,322904,215431
1618.51,0.174050,315116,211067
1621.49,0.173966,307217,205816
1624.47,0.171450,299481,201799
1627.44,0.170900,292112,197083
1630.41,0.169978,284245,192183
1634.36,0.169171,274079,185654
1637.32,0.167046,266916,181689
1640.27,0.166563,259612,176914
1643.22,0.165178,251804,172141
1646.16,0.165090,244348,167078
1649.1,0.164129,236703,162209
1652.04,0.161755,228171,157219
1655.95,0.159912,215408,149056
1658.88,0.157678,204937,142542
1661.8,0.153961,193395,135670
1664.72,0.148700,179728,127619
1667.63,0.140888,163642,118306
1670.54,0.132476,146312,107846
1673.44,0.122418,128451,96899
1677.31,0.109165,105080,81725
1680.21,0.104274,88906,69929
1683.1,0.102909,75033,59203
1685.99,0.106152,63520,49746
1688.87,0.114895,53714,41228
1691.75,0.116880,45653,34881
1694.62,0.115857,39137,29973
1697.49,0.120555,33776,25589
1701.31,0.127872,28175,20989