Folder: textile_sorting_NIRSCAN_/samples/wool/wool-000811 (part 137)

File: Column 1_050608_20150331_122723.csv
Method:,Column 1,,
Host Date-Time:,31/3/15 @ 12:27:23,,
Header Version:,1,,
System Temp (C):,34.07,,
Detector Temp (C):,34.85,,
Humidity (%):,1.66,,
Lamp PD:,3818,,
Shift Vector Coefficients:,-10.5391,0.0761263,-0.000134223,,
Pixel to Wavelength Coefficients:,1775.68,-0.916766,-0.000235065,,
Serial Number:,5510004,,
Scan Config Name:,Column 1,,
Scan Config Type:,Slew,,
Section 1,,
Start wavelength (nm):,900,,
End wavelength (nm):,1700,,
Pattern Pixel Width (nm):,   7.03,,,,
Exposure (ms):,  0.635,,,,
Digital Resolution:,228,,
Num Repeats:,6,,
PGA Gain:,64,,
Total Measurement Time in sec:,  2.691,,
Wavelength (nm),Absorbance (AU),Reference Signal (unitless),Sample Signal (unitless)
901.51,0.069134,108485,92520
905.376,0.074614,121306,102157
909.237,0.078886,131909,109999
913.095,0.078843,143299,119509
916.948,0.079983,156982,130577
922.079,0.081404,179937,149182
925.923,0.081837,200504,166068
929.762,0.082364,222660,184195
933.597,0.082313,244426,202225
937.427,0.080927,263972,219094
941.254,0.080140,281845,234353
945.076,0.079305,297271,247655
950.165,0.078296,315605,263541
953.978,0.077675,328029,274307
957.786,0.077042,340470,285126
961.59,0.077607,352317,294664
965.389,0.077620,363056,303636
969.185,0.078491,373162,311463
972.976,0.077949,382632,319766
976.763,0.078377,391202,326606
981.806,0.078505,400190,334011
985.583,0.079908,406088,337841
989.355,0.080191,410162,341008
993.124,0.080646,412868,342898
996.888,0.080831,414263,343910
1000.65,0.081053,415476,344741
1004.4,0.082893,415479,343286
1009.41,0.083671,414358,341747
1013.15,0.084328,412923,340049
1016.89,0.085691,411526,337836
1020.63,0.084684,409066,336596
1024.36,0.084603,406777,334775
1028.09,0.084619,404427,332829
1031.82,0.084570,401911,330796
1036.78,0.084147,398410,328234
1040.49,0.083953,396204,326562
1044.2,0.084150,394236,324793
1047.91,0.084027,392042,323077
1051.61,0.083084,389823,321946
1055.31,0.082976,388234,320714
1059,0.082559,387599,320497
1063.92,0.080741,386688,321085
1067.61,0.080864,386598,320919
1071.29,0.081111,387377,321383
1074.96,0.080104,388536,323093
1078.63,0.079501,389855,324640
1082.3,0.078346,391215,326640
1085.96,0.077771,393215,328745
1090.84,0.076616,396270,332181
1094.49,0.075889,398760,334829
1098.14,0.075646,400987,336887
1101.79,0.075158,403477,339360
1105.43,0.075067,406116,341651
1109.06,0.073836,407701,343958
1112.7,0.073911,409859,345719
1117.53,0.073206,412494,348507
1121.15,0.073660,414909,350181
1124.77,0.074400,416559,350975
1128.38,0.074854,418532,352269
1131.99,0.076297,419956,352295
1135.6,0.076993,421946,353398
1139.2,0.078769,423881,353570
1143.99,0.080986,426786,354180
1147.58,0.081680,428617,355132
1151.17,0.082640,431169,356457
1154.75,0.082843,433579,358282
1158.33,0.084280,436264,359310
1161.91,0.086976,439132,359434
1165.48,0.088626,442389,360727
1169.04,0.091272,446101,361544
1173.79,0.094167,451929,363834
1177.34,0.095906,456026,365665
1180.9,0.098257,461306,367902
1184.44,0.100346,467657,371177
1187.99,0.101555,473969,375141
1191.52,0.101415,479856,379923
1195.06,0.101582,487372,385726
1199.76,0.100211,497347,394865
1203.29,0.099542,504311,401011
1206.81,0.099711,511507,406575
1210.33,0.099100,519078,413174
1213.84,0.098092,527163,420584
1217.35,0.097844,534208,426448
1220.85,0.096659,540472,432628
1225.51,0.095668,549929,441203
1229.01,0.095843,556888,446606
1232.5,0.094925,562180,451804
1235.98,0.094234,567975,457188
1239.46,0.093563,574815,463410
1242.94,0.092761,582782,470701
1246.41,0.091866,591476,478708
1251.03,0.091858,604016,488867
1254.5,0.091672,612289,495775
1257.96,0.092038,619125,500888
1261.41,0.092741,624551,504460
1264.86,0.093381,629900,508031
1268.31,0.093899,634345,511007
1271.75,0.094778,638574,513373
1276.33,0.095262,642499,515953
1279.76,0.094650,645905,519420
1283.19,0.094245,648307,521838
1286.61,0.093587,650446,524353
1290.03,0.093358,652132,525990
1293.44,0.092564,653907,528387
1296.85,0.092487,655963,530142
1301.39,0.092478,657349,531273
1304.8,0.092324,657558,531631
1308.19,0.092380,658515,532336
1311.58,0.092474,658804,532454
1314.97,0.092999,659011,531978
1318.36,0.093451,658272,530829
1321.73,0.093607,658022,530436
1326.23,0.095183,657870,528393
1329.6,0.095392,656482,527024
1332.97,0.095999,654926,525041
1336.33,0.096872,653727,523027
1339.69,0.098443,652497,520158
1343.04,0.100041,649913,516195
1346.39,0.101949,647671,512160
1349.73,0.103538,645338,508451
1354.18,0.106568,641175,501659
1357.52,0.108827,638376,496878
1360.85,0.110780,635805,492656
1364.17,0.112718,633413,488617
1367.49,0.114927,631026,484306
1370.81,0.116929,628050,479805
1374.12,0.119138,625034,475079
1378.54,0.121703,620272,468683
1381.84,0.124739,616892,462882
1385.14,0.128146,613613,456824
1388.43,0.131354,611526,451919
1391.72,0.135573,610663,446919
1395.01,0.140042,610634,442322
1398.29,0.144324,611700,438747
1402.66,0.150370,614051,434345
1405.93,0.155917,616268,430381
1409.2,0.160210,617795,427203
1412.46,0.164874,618872,423377
1415.72,0.168389,619795,420590
1418.98,0.172460,620495,417137
1422.23,0.175196,621087,414912
1426.56,0.178577,621375,411886
1429.8,0.181636,621616,409153
1433.04,0.184110,622129,407165
1436.27,0.186071,621526,404938
1439.5,0.188270,621113,402625
1442.72,0.190675,620921,400278
1445.94,0.193351,620270,397402
1450.23,0.196751,618860,393406
1453.44,0.199601,617697,390099
1456.64,0.202425,616264,386671
1459.85,0.204872,614413,383344
1463.04,0.208220,612307,379096
1466.24,0.211298,610032,375020
1469.43,0.214951,607345,370241
1473.67,0.221556,603789,362518
1476.85,0.226703,601175,356696
1480.02,0.232848,597737,349673
1483.19,0.239500,594479,342481
1486.36,0.244874,591232,336422
1489.52,0.249932,587853,330626
1492.68,0.253531,583875,325678
1496.89,0.255120,578062,321258
1500.03,0.255960,574159,318473
1503.18,0.255861,570285,316396
1506.32,0.254837,565444,314451
1509.45,0.253596,560571,312633
1512.58,0.251634,555821,311387
1515.71,0.250156,550344,309370
1519.87,0.245722,543983,308932
1522.99,0.244533,538764,306807
1526.1,0.241957,533692,305727
1529.21,0.239100,527902,304406
1532.32,0.236540,521886,302716
1535.42,0.233705,515888,301197
1538.51,0.229835,509987,300417
1541.6,0.227129,503936,298708
1545.72,0.223741,494694,295526
1548.8,0.220452,488378,293971
1551.88,0.218305,481832,291468
1554.95,0.216438,474989,288566
1558.02,0.215215,467818,285011
1561.08,0.212942,460730,282166
1564.15,0.212889,454170,278182
1568.22,0.211556,444181,272900
1571.27,0.211627,436947,268412
1574.32,0.210788,429598,264408
1577.36,0.209902,422039,260286
1580.4,0.208404,414375,256442
1583.43,0.206989,406354,252299
1586.46,0.205741,398475,248119
1590.49,0.203161,388982,243651
1593.51,0.201736,380708,239252
1596.53,0.199151,372727,235635
1599.54,0.196887,365060,231994
1602.55,0.195643,357543,227869
1605.55,0.193478,349495,223853
1608.55,0.192049,341154,219231
1612.54,0.190444,330877,213414
1615.53,0.188200,322904,209350
1618.51,0.187361,315116,204696
1621.49,0.186387,307217,200013
1624.47,0.184643,299481,195761
1627.44,0.185579,292112,190533
1630.41,0.182314,284245,186801
1634.36,0.181772,274079,180345
1637.32,0.182142,266916,175482
1640.27,0.181214,259612,171045
1643.22,0.178786,251804,166831
1646.16,0.178612,244348,161956
1649.1,0.178703,236703,156856
1652.04,0.176523,228171,151963
1655.95,0.173935,215408,144320
1658.88,0.170647,204937,138348
1661.8,0.164246,193395,132495
1664.72,0.156609,179728,125316
1667.63,0.144256,163642,117392
1670.54,0.129718,146312,108533
1673.44,0.113708,128451,98862
1677.31,0.096414,105080,84160
1680.21,0.083407,88906,73371
1683.1,0.076388,75033,62931
1685.99,0.076827,63520,53221
1688.87,0.079227,53714,44757
1691.75,0.088670,45653,37222
1694.62,0.085812,39137,32120
1697.49,0.094870,33776,27148
1701.31,0.103491,28175,22201

File: Column 1_050608_20150331_122726.csv
Method:,Column 1,,
Host Date-Time:,31/3/15 @ 12:27:26,,
Header Version:,1,,
System Temp (C):,34.04,,
Detector Temp (C):,34.85,,
Humidity (%):,1.66,,
Lamp PD:,3818,,
Shift Vector Coefficients:,-10.5391,0.0761263,-0.000134223,,
Pixel to Wavelength Coefficients:,1775.68,-0.916766,-0.000235065,,
Serial Number:,5510004,,
Scan Config Name:,Column 1,,
Scan Config Type:,Slew,,
Section 1,,
Start wavelength (nm):,900,,
End wavelength (nm):,1700,,
Pattern Pixel Width (nm):,   7.03,,,,
Exposure (ms):,  0.635,,,,
Digital Resolution:,228,,
Num Repeats:,6,,
PGA Gain:,64,,
Total Measurement Time in sec:,  2.670,,
Wavelength (nm),Absorbance (AU),Reference Signal (unitless),Sample Signal (unitless)
901.51,0.068656,108485,92622
905.376,0.074291,121306,102233
909.237,0.076814,131909,110525
913.095,0.078207,143299,119684
916.948,0.079481,156982,130728
922.079,0.080511,179937,149489
925.923,0.081079,200504,166358
929.762,0.082905,222660,183966
933.597,0.082321,244426,202221
937.427,0.080987,263972,219064
941.254,0.080279,281845,234278
945.076,0.079388,297271,247608
950.165,0.077718,315605,263892
953.978,0.076877,328029,274812
957.786,0.077444,340470,284862
961.59,0.077500,352317,294736
965.389,0.077043,363056,304040
969.185,0.077693,373162,312036
972.976,0.077979,382632,319744
976.763,0.078051,391202,326851
981.806,0.078876,400190,333726
985.583,0.079345,406088,338279
989.355,0.079560,410162,341504
993.124,0.080000,412868,343409
996.888,0.080648,414263,344055
1000.65,0.081335,415476,344517
1004.4,0.082576,415479,343537
1009.41,0.083616,414358,341790
1013.15,0.083738,412923,340511
1016.89,0.084408,411526,338836
1020.63,0.084027,409066,337106
1024.36,0.084385,406777,334943
1028.09,0.084626,404427,332824
1031.82,0.083937,401911,331278
1036.78,0.083467,398410,328748
1040.49,0.083497,396204,326905
1044.2,0.084099,394236,324831
1047.91,0.082826,392042,323971
1051.61,0.083057,389823,321966
1055.31,0.082985,388234,320707
1059,0.081863,387599,321011
1063.92,0.081599,386688,320451
1067.61,0.081035,386598,320793
1071.29,0.080260,387377,322013
1074.96,0.079523,388536,323525
1078.63,0.079079,389855,324956
1082.3,0.078230,391215,326727
1085.96,0.077709,393215,328792
1090.84,0.076841,396270,332009
1094.49,0.075828,398760,334876
1098.14,0.075142,400987,337278
1101.79,0.074741,403477,339686
1105.43,0.074387,406116,342187
1109.06,0.073745,407701,344030
1112.7,0.073822,409859,345790
1117.53,0.073568,412494,348217
1121.15,0.073260,414909,350504
1124.77,0.074139,416559,351186
1128.38,0.074859,418532,352265
1131.99,0.075670,419956,352804
1135.6,0.077269,421946,353173
1139.2,0.078852,423881,353502
1143.99,0.080129,426786,354880
1147.58,0.081200,428617,355524
1151.17,0.082588,431169,356500
1154.75,0.083767,433579,357521
1158.33,0.084607,436264,359040
1161.91,0.086498,439132,359830
1165.48,0.088952,442389,360456
1169.04,0.090488,446101,362197
1173.79,0.093778,451929,364160
1177.34,0.095970,456026,365611
1180.9,0.098517,461306,367682
1184.44,0.099862,467657,371591
1187.99,0.101278,473969,375381
1191.52,0.100584,479856,380651
1195.06,0.100992,487372,386250
1199.76,0.100526,497347,394579
1203.29,0.099574,504311,400982
1206.81,0.099344,511507,406919
1210.33,0.098754,519078,413503
1213.84,0.098571,527163,420121
1217.35,0.097437,534208,426848
1220.85,0.096783,540472,432504
1225.51,0.096160,549929,440704
1229.01,0.095431,556888,447030
1232.5,0.094822,562180,451911
1235.98,0.094188,567975,457237
1239.46,0.093165,574815,463835
1242.94,0.092039,582782,471484
1246.41,0.091652,591476,478944
1251.03,0.091557,604016,489206
1254.5,0.091413,612289,496070
1257.96,0.092085,619125,500833
1261.41,0.093261,624551,503857
1264.86,0.093536,629900,507850
1268.31,0.093894,634345,511012
1271.75,0.094331,638574,513902
1276.33,0.094824,642499,516474
1279.76,0.094182,645905,519980
1283.19,0.093808,648307,522363
1286.61,0.093500,650446,524459
1290.03,0.093134,652132,526261
1293.44,0.092961,653907,527904
1296.85,0.092699,655963,529883
1301.39,0.092109,657349,531725
1304.8,0.092521,657558,531390
1308.19,0.092474,658515,532220
1311.58,0.092217,658804,532769
1314.97,0.092685,659011,532363
1318.36,0.093457,658272,530821
1321.73,0.093661,658022,530370
1326.23,0.094892,657870,528747
1329.6,0.095090,656482,527391
1332.97,0.095898,654926,525163
1336.33,0.097057,653727,522805
1339.69,0.098153,652497,520506
1343.04,0.099984,649913,516263
1346.39,0.101882,647671,512239
1349.73,0.103774,645338,508175
1354.18,0.106879,641175,501300
1357.52,0.108639,638376,497093
1360.85,0.110610,635805,492849
1364.17,0.112730,633413,488604
1367.49,0.115146,631026,484062
1370.81,0.117135,628050,479578
1374.12,0.119206,625034,475004
1378.54,0.122055,620272,468303
1381.84,0.124825,616892,462790
1385.14,0.127781,613613,457208
1388.43,0.131748,611526,451510
1391.72,0.135478,610663,447017
1395.01,0.139707,610634,442664
1398.29,0.144116,611700,438958
1402.66,0.149793,614051,434922
1405.93,0.154978,616268,431312
1409.2,0.160068,617795,427343
1412.46,0.164238,618872,423997
1415.72,0.168582,619795,420403
1418.98,0.171571,620495,417991
1422.23,0.174803,621087,415288
1426.56,0.179026,621375,411460
1429.8,0.181316,621616,409455
1433.04,0.183350,622129,407878
1436.27,0.186167,621526,404848
1439.5,0.187363,621113,403467
1442.72,0.190260,620921,400660
1445.94,0.192585,620270,398103
1450.23,0.196268,618860,393844
1453.44,0.199317,617697,390354
1456.64,0.201920,616264,387121
1459.85,0.204374,614413,383784
1463.04,0.207814,612307,379451
1466.24,0.211280,610032,375036
1469.43,0.215359,607345,369893
1473.67,0.221348,603789,362691
1476.85,0.226503,601175,356860
1480.02,0.232673,597737,349814
1483.19,0.239463,594479,342510
1486.36,0.244662,591232,336586
1489.52,0.249682,587853,330816
1492.68,0.252519,583875,326438
1496.89,0.254919,578062,321407
1500.03,0.256478,574159,318093
1503.18,0.255160,570285,316907
1506.32,0.254587,565444,314632
1509.45,0.253472,560571,312722
1512.58,0.251915,555821,311186
1515.71,0.249603,550344,309764
1519.87,0.246658,543983,308267
1522.99,0.243809,538764,307319
1526.1,0.241873,533692,305786
1529.21,0.238942,527902,304517
1532.32,0.235925,521886,303145
1535.42,0.232967,515888,301709
1538.51,0.229667,509987,300533
1541.6,0.226935,503936,298841
1545.72,0.223227,494694,295876
1548.8,0.220409,488378,294000
1551.88,0.218241,481832,291511
1554.95,0.216252,474989,288690
1558.02,0.214320,467818,285599
1561.08,0.213324,460730,281918
1564.15,0.212938,454170,278151
1568.22,0.211945,444181,272656
1571.27,0.211520,436947,268478
1574.32,0.210297,429598,264707
1577.36,0.209257,422039,260673
1580.4,0.208260,414375,256527
1583.43,0.206464,406354,252604
1586.46,0.204694,398475,248718
1590.49,0.202935,388982,243778
1593.51,0.200996,380708,239660
1596.53,0.199928,372727,235214
1599.54,0.197410,365060,231715
1602.55,0.195807,357543,227783
1605.55,0.193725,349495,223726
1608.55,0.191162,341154,219679
1612.54,0.190019,330877,213623
1615.53,0.187566,322904,209656
1618.51,0.187363,315116,204695
1621.49,0.185936,307217,200221
1624.47,0.184761,299481,195708
1627.44,0.184964,292112,190803
1630.41,0.182874,284245,186560
1634.36,0.181586,274079,180422
1637.32,0.180408,266916,176184
1640.27,0.181296,259612,171013
1643.22,0.179085,251804,166716
1646.16,0.179245,244348,161720
1649.1,0.178894,236703,156787
1652.04,0.176994,228171,151798
1655.95,0.172640,215408,144751
1658.88,0.169641,204937,138669
1661.8,0.164374,193395,132456
1664.72,0.157581,179728,125036
1667.63,0.144504,163642,117325
1670.54,0.130030,146312,108455
1673.44,0.113822,128451,98836
1677.31,0.093006,105080,84823
1680.21,0.080569,88906,73852
1683.1,0.075974,75033,62991
1685.99,0.078012,63520,53076
1688.87,0.081991,53714,44473
1691.75,0.084154,45653,37611
1694.62,0.087193,39137,32018
1697.49,0.092605,33776,27290
1701.31,0.104431,28175,22153

File: Column 1_050608_20150331_122729.csv
Method:,Column 1,,
Host Date-Time:,31/3/15 @ 12:27:29,,
Header Version:,1,,
System Temp (C):,34.03,,
Detector Temp (C):,34.9,,
Humidity (%):,1.66,,
Lamp PD:,3818,,
Shift Vector Coefficients:,-10.5391,0.0761263,-0.000134223,,
Pixel to Wavelength Coefficients:,1775.68,-0.916766,-0.000235065,,
Serial Number:,5510004,,
Scan Config Name:,Column 1,,
Scan Config Type:,Slew,,
Section 1,,
Start wavelength (nm):,900,,
End wavelength (nm):,1700,,
Pattern Pixel Width (nm):,   7.03,,,,
Exposure (ms):,  0.635,,,,
Digital Resolution:,228,,
Num Repeats:,6,,
PGA Gain:,64,,
Total Measurement Time in sec:,  2.681,,
Wavelength (nm),Absorbance (AU),Reference Signal (unitless),Sample Signal (unitless)
901.51,0.068895,108485,92571
905.376,0.075171,121306,102026
909.237,0.076311,131909,110653
913.095,0.078352,143299,119644
916.948,0.079003,156982,130872
922.079,0.079380,179937,149879
925.923,0.081267,200504,166286
929.762,0.083420,222660,183748
933.597,0.082100,244426,202324
937.427,0.080777,263972,219170
941.254,0.079882,281845,234492
945.076,0.079200,297271,247715
950.165,0.078050,315605,263690
953.978,0.077046,328029,274705
957.786,0.077280,340470,284970
961.59,0.078098,352317,294331
965.389,0.077502,363056,303719
969.185,0.077567,373162,312126
972.976,0.078188,382632,319590
976.763,0.077820,391202,327025
981.806,0.078681,400190,333876
985.583,0.079266,406088,338341
989.355,0.080018,410162,341144
993.124,0.080637,412868,342905
996.888,0.080993,414263,343782
1000.65,0.080804,415476,344939
1004.4,0.082250,415479,343795
1009.41,0.083770,414358,341669
1013.15,0.083962,412923,340335
1016.89,0.084603,411526,338684
1020.63,0.084635,409066,336634
1024.36,0.084976,406777,334488
1028.09,0.084618,404427,332830
1031.82,0.084308,401911,330995
1036.78,0.083995,398410,328349
1040.49,0.083832,396204,326653
1044.2,0.083988,394236,324914
1047.91,0.083481,392042,323483
1051.61,0.083338,389823,321758
1055.31,0.082437,388234,321112
1059,0.082309,387599,320681
1063.92,0.081461,386688,320553
1067.61,0.081251,386598,320633
1071.29,0.079977,387377,322223
1074.96,0.080145,388536,323062
1078.63,0.079189,389855,324873
1082.3,0.077896,391215,326979
1085.96,0.077877,393215,328665
1090.84,0.076418,396270,332333
1094.49,0.076199,398760,334590
1098.14,0.075347,400987,337119
1101.79,0.075354,403477,339207
1105.43,0.074868,406116,341808
1109.06,0.074198,407701,343672
1112.7,0.073423,409859,346108
1117.53,0.073609,412494,348184
1121.15,0.074101,414909,349826
1124.77,0.074457,416559,350929
1128.38,0.075181,418532,352004
1131.99,0.076136,419956,352426
1135.6,0.077545,421946,352949
1139.2,0.079013,423881,353371
1143.99,0.080666,426786,354441
1147.58,0.082034,428617,354842
1151.17,0.082894,431169,356249
1154.75,0.083855,433579,357448
1158.33,0.084330,436264,359269
1161.91,0.086133,439132,360132
1165.48,0.088691,442389,360673
1169.04,0.090956,446101,361807
1173.79,0.094142,451929,363855
1177.34,0.096209,456026,365410
1180.9,0.098565,461306,367641
1184.44,0.100194,467657,371307
1187.99,0.101489,473969,375198
1191.52,0.100905,479856,380370
1195.06,0.101427,487372,385863
1199.76,0.100764,497347,394362
1203.29,0.099387,504311,401154
1206.81,0.099122,511507,407127
1210.33,0.098551,519078,413696
1213.84,0.098212,527163,420468
1217.35,0.097782,534208,426509
1220.85,0.096782,540472,432505
1225.51,0.096411,549929,440449
1229.01,0.095627,556888,446828
1232.5,0.094876,562180,451855
1235.98,0.094774,567975,456620
1239.46,0.093438,574815,463543
1242.94,0.092768,582782,470693
1246.41,0.091983,591476,478579
1251.03,0.091511,604016,489258
1254.5,0.091848,612289,495574
1257.96,0.092158,619125,500749
1261.41,0.092600,624551,504624
1264.86,0.093577,629900,507802
1268.31,0.093613,634345,511343
1271.75,0.094271,638574,513973
1276.33,0.094076,642499,517364
1279.76,0.094366,645905,519760
1283.19,0.093815,648307,522355
1286.61,0.093973,650446,523888
1290.03,0.093137,652132,526258
1293.44,0.092587,653907,528359
1296.85,0.092542,655963,530075
1301.39,0.092470,657349,531283
1304.8,0.092345,657558,531605
1308.19,0.092540,658515,532140
1311.58,0.092567,658804,532340
1314.97,0.093079,659011,531880
1318.36,0.093120,658272,531233
1321.73,0.093761,658022,530248
1326.23,0.094661,657870,529029
1329.6,0.095108,656482,527369
1332.97,0.096397,654926,524560
1336.33,0.097018,653727,522851
1339.69,0.098589,652497,519984
1343.04,0.100139,649913,516079
1346.39,0.102255,647671,511799
1349.73,0.103922,645338,508002
1354.18,0.106827,641175,501360
1357.52,0.108754,638376,496961
1360.85,0.111038,635805,492364
1364.17,0.112556,633413,488800
1367.49,0.114968,631026,484261
1370.81,0.117051,628050,479671
1374.12,0.119223,625034,474986
1378.54,0.121899,620272,468472
1381.84,0.125216,616892,462374
1385.14,0.128018,613613,456958
1388.43,0.131795,611526,451461
1391.72,0.135578,610663,446914
1395.01,0.139636,610634,442736
1398.29,0.143787,611700,439290
1402.66,0.150467,614051,434248
1405.93,0.154872,616268,431417
1409.2,0.160025,617795,427385
1412.46,0.164613,618872,423631
1415.72,0.168784,619795,420208
1418.98,0.172049,620495,417532
1422.23,0.175210,621087,414899
1426.56,0.179007,621375,411478
1429.8,0.181680,621616,409112
1433.04,0.183588,622129,407655
1436.27,0.185911,621526,405087
1439.5,0.187800,621113,403061
1442.72,0.190805,620921,400158
1445.94,0.193425,620270,397334
1450.23,0.196489,618860,393644
1453.44,0.199156,617697,390499
1456.64,0.201991,616264,387058
1459.85,0.205271,614413,382992
1463.04,0.207975,612307,379310
1466.24,0.211423,610032,374912
1469.43,0.214804,607345,370366
1473.67,0.221096,603789,362902
1476.85,0.226342,601175,356992
1480.02,0.232782,597737,349726
1483.19,0.239459,594479,342513
1486.36,0.245279,591232,336108
1489.52,0.249899,587853,330651
1492.68,0.253410,583875,325769
1496.89,0.255153,578062,321234
1500.03,0.256052,574159,318405
1503.18,0.256502,570285,315929
1506.32,0.254949,565444,314370
1509.45,0.253760,560571,312515
1512.58,0.251754,555821,311301
1515.71,0.249613,550344,309757
1519.87,0.247056,543983,307985
1522.99,0.244308,538764,306966
1526.1,0.241677,533692,305924
1529.21,0.238986,527902,304486
1532.32,0.236202,521886,302952
1535.42,0.233383,515888,301420
1538.51,0.229830,509987,300420
1541.6,0.228158,503936,298001
1545.72,0.223975,494694,295367
1548.8,0.220406,488378,294002
1551.88,0.217990,481832,291679
1554.95,0.216693,474989,288397
1558.02,0.214282,467818,285624
1561.08,0.213823,460730,281594
1564.15,0.213144,454170,278019
1568.22,0.211988,444181,272629
1571.27,0.211101,436947,268737
1574.32,0.210169,429598,264785
1577.36,0.209445,422039,260560
1580.4,0.208213,414375,256555
1583.43,0.207156,406354,252202
1586.46,0.205654,398475,248169
1590.49,0.203416,388982,243508
1593.51,0.202160,380708,239019
1596.53,0.199059,372727,235685
1599.54,0.197479,365060,231678
1602.55,0.195763,357543,227806
1605.55,0.193713,349495,223732
1608.55,0.191087,341154,219717
1612.54,0.190507,330877,213383
1615.53,0.189422,322904,208762
1618.51,0.187242,315116,204752
1621.49,0.185604,307217,200374
1624.47,0.185431,299481,195406
1627.44,0.184314,292112,191089
1630.41,0.182611,284245,186673
1634.36,0.181678,274079,180384
1637.32,0.181665,266916,175675
1640.27,0.181204,259612,171049
1643.22,0.179080,251804,166718
1646.16,0.177977,244348,162193
1649.1,0.178589,236703,156897
1652.04,0.176877,228171,151839
1655.95,0.174342,215408,144185
1658.88,0.167373,204937,139395
1661.8,0.164420,193395,132442
1664.72,0.156769,179728,125270
1667.63,0.143946,163642,117476
1670.54,0.129822,146312,108507
1673.44,0.114425,128451,98699
1677.31,0.091407,105080,85136
1680.21,0.082502,88906,73524
1683.1,0.077632,75033,62751
1685.99,0.078635,63520,53000
1688.87,0.084528,53714,44214
1691.75,0.085033,45653,37535
1694.62,0.094277,39137,31500
1697.49,0.088613,33776,27542
1701.31,0.102280,28175,22263