Folder: textile_sorting_NIRSCAN_/samples/wool/wool-000811 (part 72)

File: Column 1_050569_20150331_120901.csv
Method:,Column 1,,
Host Date-Time:,31/3/15 @ 12:9:1,,
Header Version:,1,,
System Temp (C):,34.05,,
Detector Temp (C):,34.07,,
Humidity (%):,1.76,,
Lamp PD:,3818,,
Shift Vector Coefficients:,-10.5391,0.0761263,-0.000134223,,
Pixel to Wavelength Coefficients:,1775.68,-0.916766,-0.000235065,,
Serial Number:,5510004,,
Scan Config Name:,Column 1,,
Scan Config Type:,Slew,,
Section 1,,
Start wavelength (nm):,900,,
End wavelength (nm):,1700,,
Pattern Pixel Width (nm):,   7.03,,,,
Exposure (ms):,  0.635,,,,
Digital Resolution:,228,,
Num Repeats:,6,,
PGA Gain:,64,,
Total Measurement Time in sec:,  2.669,,
Wavelength (nm),Absorbance (AU),Reference Signal (unitless),Sample Signal (unitless)
901.51,0.034940,108485,100099
905.376,0.040276,121306,110562
909.237,0.042739,131909,119546
913.095,0.042430,143299,129961
916.948,0.044784,156982,141601
922.079,0.046268,179937,161753
925.923,0.047461,200504,179747
929.762,0.049049,222660,198881
933.597,0.048871,244426,218412
937.427,0.047558,263972,236592
941.254,0.048288,281845,252187
945.076,0.047302,297271,266594
950.165,0.046779,315605,283377
953.978,0.045824,328029,295181
957.786,0.046619,340470,305816
961.59,0.046928,352317,316232
965.389,0.046761,363056,325996
969.185,0.047012,373162,334877
972.976,0.047572,382632,342933
976.763,0.047795,391202,350434
981.806,0.048359,400190,358020
985.583,0.049366,406088,362455
989.355,0.049756,410162,365763
993.124,0.050534,412868,367517
996.888,0.051045,414263,368325
1000.65,0.051621,415476,368914
1004.4,0.052833,415479,367888
1009.41,0.054231,414358,365717
1013.15,0.054459,412923,364259
1016.89,0.055305,411526,362320
1020.63,0.054762,409066,360605
1024.36,0.055450,406777,358019
1028.09,0.054417,404427,356799
1031.82,0.054346,401911,354637
1036.78,0.053875,398410,351929
1040.49,0.054264,396204,349667
1044.2,0.053571,394236,348486
1047.91,0.052474,392042,347423
1051.61,0.052275,389823,345615
1055.31,0.051948,388234,344465
1059,0.051761,387599,344050
1063.92,0.050590,386688,344168
1067.61,0.049405,386598,345028
1071.29,0.048824,387377,346186
1074.96,0.048663,388536,347351
1078.63,0.047448,389855,349506
1082.3,0.047124,391215,350987
1085.96,0.046430,393215,353346
1090.84,0.045865,396270,356555
1094.49,0.045622,398760,358996
1098.14,0.044901,400987,361601
1101.79,0.044846,403477,363892
1105.43,0.044606,406116,366475
1109.06,0.044238,407701,368217
1112.7,0.043945,409859,370416
1117.53,0.044227,412494,372555
1121.15,0.044958,414909,374106
1124.77,0.045455,416559,375164
1128.38,0.046220,418532,376278
1131.99,0.048216,419956,375827
1135.6,0.049884,421946,376160
1139.2,0.052055,423881,376001
1143.99,0.054299,426786,376627
1147.58,0.055227,428617,377435
1151.17,0.056483,431169,378586
1154.75,0.057596,433579,379728
1158.33,0.059535,436264,380377
1161.91,0.061198,439132,381414
1165.48,0.063691,442389,382044
1169.04,0.066000,446101,383207
1173.79,0.070068,451929,384594
1177.34,0.072322,456026,386071
1180.9,0.074779,461306,388338
1184.44,0.076269,467657,392336
1187.99,0.077572,473969,396440
1191.52,0.076898,479856,401988
1195.06,0.076895,487372,408287
1199.76,0.076033,497347,417471
1203.29,0.075196,504311,424133
1206.81,0.073873,511507,431498
1210.33,0.073559,519078,438201
1213.84,0.072744,527163,445862
1217.35,0.072239,534208,452347
1220.85,0.071315,540472,458626
1225.51,0.070263,549929,467782
1229.01,0.069832,556888,474172
1232.5,0.069094,562180,479492
1235.98,0.068665,567975,484913
1239.46,0.067342,574815,492250
1242.94,0.066807,582782,499688
1246.41,0.065886,591476,508219
1251.03,0.065139,604016,519887
1254.5,0.065685,612289,526346
1257.96,0.066413,619125,531331
1261.41,0.066594,624551,535764
1264.86,0.067627,629900,539069
1268.31,0.068170,634345,542195
1271.75,0.069032,638574,544728
1276.33,0.068989,642499,548130
1279.76,0.069043,645905,550967
1283.19,0.068543,648307,553653
1286.61,0.067942,650446,556249
1290.03,0.067347,652132,558455
1293.44,0.067176,653907,560196
1296.85,0.066900,655963,562314
1301.39,0.067024,657349,563342
1304.8,0.066727,657558,563906
1308.19,0.066785,658515,564652
1311.58,0.067194,658804,564368
1314.97,0.067828,659011,563722
1318.36,0.068166,658272,562651
1321.73,0.068466,658022,562049
1326.23,0.069506,657870,560575
1329.6,0.070008,656482,558746
1332.97,0.071453,654926,555570
1336.33,0.072631,653727,553051
1339.69,0.074356,652497,549823
1343.04,0.076099,649913,545451
1346.39,0.077822,647671,541418
1349.73,0.080123,645338,536617
1354.18,0.083410,641175,529135
1357.52,0.085753,638376,523991
1360.85,0.087886,635805,519324
1364.17,0.090131,633413,514702
1367.49,0.092321,631026,510183
1370.81,0.094911,628050,504758
1374.12,0.097432,625034,499426
1378.54,0.100960,620272,491612
1381.84,0.104092,616892,485419
1385.14,0.108128,613613,478373
1388.43,0.112168,611526,472331
1391.72,0.116672,610663,466799
1395.01,0.121482,610634,461635
1398.29,0.126726,611700,456891
1402.66,0.133729,614051,451311
1405.93,0.139478,616268,446984
1409.2,0.144677,617795,442759
1412.46,0.150167,618872,437959
1415.72,0.153987,619795,434772
1418.98,0.158144,620495,431116
1422.23,0.162267,621087,427450
1426.56,0.165860,621375,424125
1429.8,0.168804,621616,421423
1433.04,0.171592,622129,419072
1436.27,0.174162,621526,416195
1439.5,0.176333,621113,413845
1442.72,0.178598,620921,411565
1445.94,0.181346,620270,408540
1450.23,0.185208,618860,404003
1453.44,0.188046,617697,400617
1456.64,0.191164,616264,396828
1459.85,0.194165,614413,392912
1463.04,0.197084,612307,388942
1466.24,0.200635,610032,384342
1469.43,0.204177,607345,379541
1473.67,0.210059,603789,372243
1476.85,0.215960,601175,365629
1480.02,0.221994,597737,358522
1483.19,0.229110,594479,350773
1486.36,0.235523,591232,343744
1489.52,0.240587,587853,337817
1492.68,0.244130,583875,332805
1496.89,0.246526,578062,327679
1500.03,0.247307,574159,324882
1503.18,0.247620,570285,322457
1506.32,0.246326,565444,320674
1509.45,0.245310,560571,318655
1512.58,0.243663,555821,317155
1515.71,0.241010,550344,315954
1519.87,0.238108,543983,314396
1522.99,0.235361,538764,313356
1526.1,0.233259,533692,311912
1529.21,0.229118,527902,311484
1532.32,0.226278,521886,309954
1535.42,0.223105,515888,308639
1538.51,0.219666,509987,307534
1541.6,0.216452,503936,306142
1545.72,0.212390,494694,303352
1548.8,0.209570,488378,301430
1551.88,0.206184,481832,299717
1554.95,0.204536,474989,296584
1558.02,0.202556,467818,293441
1561.08,0.201405,460730,289762
1564.15,0.201158,454170,285799
1568.22,0.200262,444181,280090
1571.27,0.198941,436947,276368
1574.32,0.198351,429598,272089
1577.36,0.196501,422039,268443
1580.4,0.195714,414375,264046
1583.43,0.194499,406354,259660
1586.46,0.191725,398475,256257
1590.49,0.189010,388982,251721
1593.51,0.187710,380708,247105
1596.53,0.184494,372727,243723
1599.54,0.183189,365060,239428
1602.55,0.180586,357543,235908
1605.55,0.179320,349495,231271
1608.55,0.176628,341154,227155
1612.54,0.173860,330877,221721
1615.53,0.172400,322904,217107
1618.51,0.170489,315116,212805
1621.49,0.169119,307217,208126
1624.47,0.168747,299481,203059
1627.44,0.166932,292112,198892
1630.41,0.166005,284245,193949
1634.36,0.165373,274079,187285
1637.32,0.162911,266916,183427
1640.27,0.163563,259612,178140
1643.22,0.161350,251804,173665
1646.16,0.160845,244348,168719
1649.1,0.160330,236703,163634
1652.04,0.158190,228171,158515
1655.95,0.155930,215408,150429
1658.88,0.152658,204937,144199
1661.8,0.148965,193395,137240
1664.72,0.141790,179728,129666
1667.63,0.131152,163642,120988
1670.54,0.119085,146312,111223
1673.44,0.103197,128451,101284
1677.31,0.088970,105080,85615
1680.21,0.078580,88906,74191
1683.1,0.077466,75033,62775
1685.99,0.077579,63520,53129
1688.87,0.080130,53714,44664
1691.75,0.088122,45653,37269
1694.62,0.089737,39137,31831
1697.49,0.095110,33776,27133
1701.31,0.110910,28175,21825

File: Column 1_050569_20150331_120904.csv
Method:,Column 1,,
Host Date-Time:,31/3/15 @ 12:9:4,,
Header Version:,1,,
System Temp (C):,34.04,,
Detector Temp (C):,34.02,,
Humidity (%):,1.76,,
Lamp PD:,3818,,
Shift Vector Coefficients:,-10.5391,0.0761263,-0.000134223,,
Pixel to Wavelength Coefficients:,1775.68,-0.916766,-0.000235065,,
Serial Number:,5510004,,
Scan Config Name:,Column 1,,
Scan Config Type:,Slew,,
Section 1,,
Start wavelength (nm):,900,,
End wavelength (nm):,1700,,
Pattern Pixel Width (nm):,   7.03,,,,
Exposure (ms):,  0.635,,,,
Digital Resolution:,228,,
Num Repeats:,6,,
PGA Gain:,64,,
Total Measurement Time in sec:,  2.719,,
Wavelength (nm),Absorbance (AU),Reference Signal (unitless),Sample Signal (unitless)
901.51,0.033870,108485,100346
905.376,0.042174,121306,110080
909.237,0.044180,131909,119150
913.095,0.043963,143299,129503
916.948,0.044508,156982,141691
922.079,0.047004,179937,161479
925.923,0.048482,200504,179325
929.762,0.050114,222660,198394
933.597,0.049420,244426,218136
937.427,0.048370,263972,236150
941.254,0.048634,281845,251986
945.076,0.047027,297271,266763
950.165,0.046963,315605,283257
953.978,0.046789,328029,294526
957.786,0.046585,340470,305840
961.59,0.047105,352317,316103
965.389,0.046337,363056,326315
969.185,0.047577,373162,334442
972.976,0.048012,382632,342586
976.763,0.047750,391202,350470
981.806,0.048895,400190,357578
985.583,0.048675,406088,363032
989.355,0.049662,410162,365842
993.124,0.049999,412868,367970
996.888,0.051017,414263,368349
1000.65,0.051666,415476,368876
1004.4,0.052917,415479,367817
1009.41,0.054460,414358,365524
1013.15,0.054524,412923,364204
1016.89,0.055318,411526,362309
1020.63,0.055157,409066,360277
1024.36,0.055281,406777,358159
1028.09,0.054860,404427,356435
1031.82,0.054943,401911,354150
1036.78,0.054047,398410,351790
1040.49,0.053429,396204,350340
1044.2,0.053639,394236,348431
1047.91,0.052981,392042,347018
1051.61,0.052130,389823,345730
1055.31,0.052182,388234,344280
1059,0.051663,387599,344128
1063.92,0.050673,386688,344102
1067.61,0.049341,386598,345079
1071.29,0.049450,387377,345688
1074.96,0.048646,388536,347364
1078.63,0.048436,389855,348712
1082.3,0.047366,391215,350792
1085.96,0.046878,393215,352982
1090.84,0.045913,396270,356515
1094.49,0.045609,398760,359007
1098.14,0.045041,400987,361484
1101.79,0.044924,403477,363827
1105.43,0.044961,406116,366175
1109.06,0.044049,407701,368377
1112.7,0.044135,409859,370254
1117.53,0.044387,412494,372418
1121.15,0.045338,414909,373779
1124.77,0.045264,416559,375329
1128.38,0.046684,418532,375876
1131.99,0.048379,419956,375686
1135.6,0.049949,421946,376104
1139.2,0.051737,423881,376276
1143.99,0.054544,426786,376414
1147.58,0.055326,428617,377349
1151.17,0.056306,431169,378740
1154.75,0.058103,433579,379285
1158.33,0.059450,436264,380452
1161.91,0.061542,439132,381112
1165.48,0.063939,442389,381826
1169.04,0.066441,446101,382818
1173.79,0.070392,451929,384307
1177.34,0.072587,456026,385836
1180.9,0.075039,461306,388106
1184.44,0.076527,467657,392103
1187.99,0.078137,473969,395925
1191.52,0.077742,479856,401207
1195.06,0.077014,487372,408175
1199.76,0.076216,497347,417295
1203.29,0.075447,504311,423888
1206.81,0.074607,511507,430769
1210.33,0.073607,519078,438153
1213.84,0.072801,527163,445804
1217.35,0.072274,534208,452310
1220.85,0.071399,540472,458537
1225.51,0.070338,549929,467701
1229.01,0.069854,556888,474148
1232.5,0.069139,562180,479442
1235.98,0.068876,567975,484678
1239.46,0.067583,574815,491977
1242.94,0.066346,582782,500219
1246.41,0.065960,591476,508133
1251.03,0.065809,604016,519086
1254.5,0.066010,612289,525952
1257.96,0.066319,619125,531446
1261.41,0.066942,624551,535335
1264.86,0.067461,629900,539275
1268.31,0.068296,634345,542038
1271.75,0.068934,638574,544850
1276.33,0.069342,642499,547685
1279.76,0.069202,645905,550765
1283.19,0.068624,648307,553550
1286.61,0.068305,650446,555784
1290.03,0.067859,652132,557798
1293.44,0.067447,653907,559847
1296.85,0.067322,655963,561769
1301.39,0.066803,657349,563628
1304.8,0.067002,657558,563550
1308.19,0.067063,658515,564290
1311.58,0.067229,658804,564322
1314.97,0.068047,659011,563437
1318.36,0.068712,658272,561944
1321.73,0.068760,658022,561669
1326.23,0.069689,657870,560339
1329.6,0.070594,656482,557993
1332.97,0.071543,654926,555456
1336.33,0.072356,653727,553402
1339.69,0.074485,652497,549659
1343.04,0.076082,649913,545473
1346.39,0.077961,647671,541244
1349.73,0.080445,645338,536219
1354.18,0.083729,641175,528746
1357.52,0.085521,638376,524271
1360.85,0.087993,635805,519196
1364.17,0.089915,633413,514958
1367.49,0.092417,631026,510070
1370.81,0.095591,628050,503968
1374.12,0.097889,625034,498901
1378.54,0.100781,620272,491814
1381.84,0.104250,616892,485243
1385.14,0.107825,613613,478707
1388.43,0.112237,611526,472257
1391.72,0.116831,610663,466628
1395.01,0.122037,610634,461046
1398.29,0.126931,611700,456675
1402.66,0.133693,614051,451348
1405.93,0.139279,616268,447188
1409.2,0.145021,617795,442408
1412.46,0.150405,618872,437719
1415.72,0.154529,619795,434229
1418.98,0.158377,620495,430885
1422.23,0.161518,621087,428188
1426.56,0.166160,621375,423832
1429.8,0.168901,621616,421329
1433.04,0.172220,622129,418466
1436.27,0.174385,621526,415982
1439.5,0.176618,621113,413573
1442.72,0.179155,620921,411037
1445.94,0.180889,620270,408970
1450.23,0.185341,618860,403879
1453.44,0.187828,617697,400818
1456.64,0.191147,616264,396844
1459.85,0.193842,614413,393204
1463.04,0.197402,612307,388658
1466.24,0.200448,610032,384507
1469.43,0.204001,607345,379695
1473.67,0.210099,603789,372208
1476.85,0.216218,601175,365412
1480.02,0.222543,597737,358069
1483.19,0.228963,594479,350892
1486.36,0.235738,591232,343574
1489.52,0.240937,587853,337545
1492.68,0.244835,583875,332265
1496.89,0.246909,578062,327390
1500.03,0.247528,574159,324716
1503.18,0.247733,570285,322373
1506.32,0.246682,565444,320411
1509.45,0.245077,560571,318826
1512.58,0.243785,555821,317066
1515.71,0.241375,550344,315689
1519.87,0.238158,543983,314360
1522.99,0.235530,538764,313234
1526.1,0.232898,533692,312171
1529.21,0.229517,527902,311198
1532.32,0.226437,521886,309841
1535.42,0.223613,515888,308278
1538.51,0.220071,509987,307247
1541.6,0.217289,503936,305553
1545.72,0.212999,494694,302927
1548.8,0.209744,488378,301309
1551.88,0.206513,481832,299490
1554.95,0.204545,474989,296578
1558.02,0.202726,467818,293326
1561.08,0.201760,460730,289525
1564.15,0.200663,454170,286125
1568.22,0.200827,444181,279726
1571.27,0.199762,436947,275846
1574.32,0.198695,429598,271874
1577.36,0.196904,422039,268194
1580.4,0.195045,414375,264453
1583.43,0.193687,406354,260146
1586.46,0.192351,398475,255888
1590.49,0.189435,388982,251475
1593.51,0.187356,380708,247307
1596.53,0.184778,372727,243564
1599.54,0.183200,365060,239422
1602.55,0.180805,357543,235789
1605.55,0.178659,349495,231623
1608.55,0.176336,341154,227308
1612.54,0.174534,330877,221377
1615.53,0.172082,322904,217266
1618.51,0.171553,315116,212284
1621.49,0.170084,307217,207664
1624.47,0.168867,299481,203003
1627.44,0.167870,292112,198463
1630.41,0.165887,284245,194002
1634.36,0.164631,274079,187605
1637.32,0.163800,266916,183052
1640.27,0.163342,259612,178231
1643.22,0.163197,251804,172928
1646.16,0.161682,244348,168394
1649.1,0.160540,236703,163555
1652.04,0.159370,228171,158085
1655.95,0.156745,215408,150147
1658.88,0.154635,204937,143544
1661.8,0.148626,193395,137347
1664.72,0.143054,179728,129289
1667.63,0.130934,163642,121049
1670.54,0.119038,146312,111235
1673.44,0.105367,128451,100779
1677.31,0.088357,105080,85736
1680.21,0.079283,88906,74071
1683.1,0.077376,75033,62788
1685.99,0.079660,63520,52875
1688.87,0.079265,53714,44753
1691.75,0.086911,45653,37373
1694.62,0.094856,39137,31458
1697.49,0.097164,33776,27005
1701.31,0.103315,28175,22210

File: Column 1_050569_20150331_120906.csv
Method:,Column 1,,
Host Date-Time:,31/3/15 @ 12:9:6,,
Header Version:,1,,
System Temp (C):,34.06,,
Detector Temp (C):,34.02,,
Humidity (%):,1.76,,
Lamp PD:,3818,,
Shift Vector Coefficients:,-10.5391,0.0761263,-0.000134223,,
Pixel to Wavelength Coefficients:,1775.68,-0.916766,-0.000235065,,
Serial Number:,5510004,,
Scan Config Name:,Column 1,,
Scan Config Type:,Slew,,
Section 1,,
Start wavelength (nm):,900,,
End wavelength (nm):,1700,,
Pattern Pixel Width (nm):,   7.03,,,,
Exposure (ms):,  0.635,,,,
Digital Resolution:,228,,
Num Repeats:,6,,
PGA Gain:,64,,
Total Measurement Time in sec:,  2.668,,
Wavelength (nm),Absorbance (AU),Reference Signal (unitless),Sample Signal (unitless)
901.51,0.034814,108485,100128
905.376,0.039507,121306,110758
909.237,0.042685,131909,119561
913.095,0.044443,143299,129360
916.948,0.044247,156982,141776
922.079,0.046722,179937,161584
925.923,0.047971,200504,179536
929.762,0.048669,222660,199055
933.597,0.048789,244426,218453
937.427,0.047393,263972,236682
941.254,0.047907,281845,252408
945.076,0.047545,297271,266445
950.165,0.046468,315605,283580
953.978,0.046454,328029,294753
957.786,0.046278,340470,306056
961.59,0.047581,352317,315757
965.389,0.046464,363056,326219
969.185,0.046934,373162,334937
972.976,0.047886,382632,342685
976.763,0.048077,391202,350206
981.806,0.048689,400190,357748
985.583,0.049331,406088,362484
989.355,0.049573,410162,365917
993.124,0.049849,412868,368097
996.888,0.050555,414263,368741
1000.65,0.051683,415476,368861
1004.4,0.052542,415479,368135
1009.41,0.054001,414358,365910
1013.15,0.054750,412923,364015
1016.89,0.055149,411526,362450
1020.63,0.054571,409066,360763
1024.36,0.055437,406777,358030
1028.09,0.054637,404427,356618
1031.82,0.055074,401911,354043
1036.78,0.053585,398410,352164
1040.49,0.053473,396204,350305
1044.2,0.053728,394236,348360
1047.91,0.052672,392042,347265
1051.61,0.052168,389823,345700
1055.31,0.052067,388234,344371
1059,0.051688,387599,344108
1063.92,0.050711,386688,344072
1067.61,0.049531,386598,344928
1071.29,0.048955,387377,346082
1074.96,0.048187,388536,347732
1078.63,0.048225,389855,348882
1082.3,0.047319,391215,350830
1085.96,0.046654,393215,353164
1090.84,0.045929,396270,356502
1094.49,0.045670,398760,358956
1098.14,0.045282,400987,361284
1101.79,0.044785,403477,363943
1105.43,0.044660,406116,366429
1109.06,0.043999,407701,368420
1112.7,0.044017,409859,370354
1117.53,0.043865,412494,372866
1121.15,0.045787,414909,373393
1124.77,0.045415,416559,375199
1128.38,0.046711,418532,375853
1131.99,0.047831,419956,376160
1135.6,0.049823,421946,376213
1139.2,0.052321,423881,375771
1143.99,0.054087,426786,376811
1147.58,0.055400,428617,377285
1151.17,0.056818,431169,378294
1154.75,0.057416,433579,379885
1158.33,0.059173,436264,380694
1161.91,0.060989,439132,381598
1165.48,0.064028,442389,381748
1169.04,0.066095,446101,383123
1173.79,0.070372,451929,384325
1177.34,0.072497,456026,385916
1180.9,0.075034,461306,388110
1184.44,0.076850,467657,391812
1187.99,0.077724,473969,396302
1191.52,0.077477,479856,401452
1195.06,0.077054,487372,408138
1199.76,0.075927,497347,417573
1203.29,0.075074,504311,424253
1206.81,0.074331,511507,431043
1210.33,0.073564,519078,438196
1213.84,0.072570,527163,446041
1217.35,0.071651,534208,452960
1220.85,0.071352,540472,458586
1225.51,0.070673,549929,467341
1229.01,0.070076,556888,473906
1232.5,0.069190,562180,479386
1235.98,0.068720,567975,484852
1239.46,0.067279,574815,492322
1242.94,0.066447,582782,500103
1246.41,0.065657,591476,508487
1251.03,0.065422,604016,519549
1254.5,0.066019,612289,525942
1257.96,0.066235,619125,531549
1261.41,0.066740,624551,535584
1264.86,0.067503,629900,539223
1268.31,0.068083,634345,542304
1271.75,0.068868,638574,544933
1276.33,0.069567,642499,547401
1279.76,0.069064,645905,550941
1283.19,0.068463,648307,553755
1286.61,0.068198,650446,555921
1290.03,0.067478,652132,558287
1293.44,0.067523,653907,559748
1296.85,0.067354,655963,561727
1301.39,0.067022,657349,563344
1304.8,0.066621,657558,564044
1308.19,0.066956,658515,564430
1311.58,0.067326,658804,564196
1314.97,0.067979,659011,563526
1318.36,0.068116,658272,562716
1321.73,0.068599,658022,561877
1326.23,0.069067,657870,561143
1329.6,0.070442,656482,558189
1332.97,0.071337,654926,555719
1336.33,0.072402,653727,553343
1339.69,0.074389,652497,549781
1343.04,0.075935,649913,545658
1346.39,0.078236,647671,540902
1349.73,0.079960,645338,536818
1354.18,0.083271,641175,529305
1357.52,0.085514,638376,524279
1360.85,0.087671,635805,519581
1364.17,0.090318,633413,514480
1367.49,0.092628,631026,509823
1370.81,0.095126,628050,504508
1374.12,0.097291,625034,499589
1378.54,0.100702,620272,491904
1381.84,0.104228,616892,485267
1385.14,0.107681,613613,478865
1388.43,0.112495,611526,471976
1391.72,0.116955,610663,466495
1395.01,0.121785,610634,461313
1398.29,0.126669,611700,456951
1402.66,0.133916,614051,451116
1405.93,0.139816,616268,446636
1409.2,0.144995,617795,442435
1412.46,0.149793,618872,438337
1415.72,0.154198,619795,434560
1418.98,0.158325,620495,430937
1422.23,0.161843,621087,427868
1426.56,0.166055,621375,423935
1429.8,0.168560,621616,421660
1433.04,0.171423,622129,419235
1436.27,0.173782,621526,416560
1439.5,0.176108,621113,414059
1442.72,0.178478,620921,411679
1445.94,0.181418,620270,408472
1450.23,0.185150,618860,404057
1453.44,0.187923,617697,400731
1456.64,0.191379,616264,396632
1459.85,0.194130,614413,392944
1463.04,0.196779,612307,389216
1466.24,0.200265,610032,384669
1469.43,0.203736,607345,379926
1473.67,0.210147,603789,372167
1476.85,0.216068,601175,365538
1480.02,0.222037,597737,358487
1483.19,0.229122,594479,350764
1486.36,0.234757,591232,344351
1489.52,0.240383,587853,337976
1492.68,0.243951,583875,332942
1496.89,0.246364,578062,327801
1500.03,0.247821,574159,324497
1503.18,0.247437,570285,322593
1506.32,0.246614,565444,320461
1509.45,0.245917,560571,318210
1512.58,0.243403,555821,317345
1515.71,0.240995,550344,315965
1519.87,0.237991,543983,314481
1522.99,0.235974,538764,312914
1526.1,0.232150,533692,312709
1529.21,0.229003,527902,311566
1532.32,0.226748,521886,309619
1535.42,0.223355,515888,308461
1538.51,0.220384,509987,307026
1541.6,0.217268,503936,305568
1545.72,0.212348,494694,303381
1548.8,0.208922,488378,301880
1551.88,0.206441,481832,299540
1554.95,0.204843,474989,296374
1558.02,0.203141,467818,293046
1561.08,0.201399,460730,289766
1564.15,0.200716,454170,286090
1568.22,0.200073,444181,280212
1571.27,0.198355,436947,276741
1574.32,0.198372,429598,272076
1577.36,0.196988,422039,268142
1580.4,0.196120,414375,263799
1583.43,0.194513,406354,259652
1586.46,0.192198,398475,255978
1590.49,0.189471,388982,251454
1593.51,0.187285,380708,247347
1596.53,0.185002,372727,243438
1599.54,0.183420,365060,239301
1602.55,0.180632,357543,235883
1605.55,0.179194,349495,231338
1608.55,0.176068,341154,227448
1612.54,0.174907,330877,221187
1615.53,0.172028,322904,217293
1618.51,0.170762,315116,212671
1621.49,0.169520,307217,207934
1624.47,0.167365,299481,203706
1627.44,0.167820,292112,198486
1630.41,0.165835,284245,194025
1634.36,0.165162,274079,187376
1637.32,0.163077,266916,183357
1640.27,0.162132,259612,178728
1643.22,0.162101,251804,173365
1646.16,0.161272,244348,168553
1649.1,0.159768,236703,163846
1652.04,0.158747,228171,158312
1655.95,0.155783,215408,150480
1658.88,0.152854,204937,144134
1661.8,0.148070,193395,137523
1664.72,0.140873,179728,129940
1667.63,0.131056,163642,121015
1670.54,0.120282,146312,110917
1673.44,0.106239,128451,100577
1677.31,0.089422,105080,85526
1680.21,0.080475,88906,73868
1683.1,0.073663,75033,63327
1685.99,0.078323,63520,53038
1688.87,0.085127,53714,44153
1691.75,0.087912,45653,37287
1694.62,0.093822,39137,31533
1697.49,0.105166,33776,26512
1701.31,0.101442,28175,22306