Folder: textile_sorting_NIRSCAN_/samples/wool/wool-000811 (part 117)

File: Column 1_050597_20150331_122201.csv
Method:,Column 1,,
Host Date-Time:,31/3/15 @ 12:22:1,,
Header Version:,1,,
System Temp (C):,33.93,,
Detector Temp (C):,34.69,,
Humidity (%):,1.76,,
Lamp PD:,3818,,
Shift Vector Coefficients:,-10.5391,0.0761263,-0.000134223,,
Pixel to Wavelength Coefficients:,1775.68,-0.916766,-0.000235065,,
Serial Number:,5510004,,
Scan Config Name:,Column 1,,
Scan Config Type:,Slew,,
Section 1,,
Start wavelength (nm):,900,,
End wavelength (nm):,1700,,
Pattern Pixel Width (nm):,   7.03,,,,
Exposure (ms):,  0.635,,,,
Digital Resolution:,228,,
Num Repeats:,6,,
PGA Gain:,64,,
Total Measurement Time in sec:,  2.685,,
Wavelength (nm),Absorbance (AU),Reference Signal (unitless),Sample Signal (unitless)
901.51,0.070017,108485,92332
905.376,0.075235,121306,102011
909.237,0.079154,131909,109931
913.095,0.077906,143299,119767
916.948,0.079627,156982,130684
922.079,0.081736,179937,149068
925.923,0.082515,200504,165809
929.762,0.082077,222660,184317
933.597,0.082736,244426,202028
937.427,0.081499,263972,218806
941.254,0.081231,281845,233765
945.076,0.079523,297271,247531
950.165,0.079205,315605,262990
953.978,0.078652,328029,273691
957.786,0.078716,340470,284029
961.59,0.078789,352317,293863
965.389,0.078451,363056,303056
969.185,0.078685,373162,311324
972.976,0.079651,382632,318515
976.763,0.079450,391202,325800
981.806,0.079955,400190,332898
985.583,0.080512,406088,337371
989.355,0.080980,410162,340389
993.124,0.081606,412868,342141
996.888,0.081748,414263,343185
1000.65,0.082749,415476,343397
1004.4,0.083825,415479,342550
1009.41,0.084293,414358,341258
1013.15,0.085171,412923,339389
1016.89,0.085493,411526,337990
1020.63,0.085175,409066,336216
1024.36,0.085972,406777,333722
1028.09,0.085552,404427,332115
1031.82,0.085341,401911,330209
1036.78,0.085293,398410,327369
1040.49,0.084533,396204,326126
1044.2,0.085282,394236,323947
1047.91,0.084574,392042,322670
1051.61,0.084418,389823,320959
1055.31,0.083651,388234,320216
1059,0.083260,387599,319980
1063.92,0.082663,386688,319667
1067.61,0.082063,386598,320034
1071.29,0.081296,387377,321246
1074.96,0.081125,388536,322334
1078.63,0.080516,389855,323882
1082.3,0.079290,391215,325931
1085.96,0.079083,393215,327753
1090.84,0.077911,396270,331192
1094.49,0.076990,398760,333981
1098.14,0.076841,400987,335961
1101.79,0.076011,403477,338694
1105.43,0.075872,406116,341019
1109.06,0.075708,407701,342479
1112.7,0.075241,409859,344662
1117.53,0.074617,412494,347377
1121.15,0.075203,414909,348939
1124.77,0.075120,416559,350394
1128.38,0.076646,418532,350819
1131.99,0.077101,419956,351644
1135.6,0.079233,421946,351580
1139.2,0.080142,423881,352454
1143.99,0.082429,426786,353005
1147.58,0.082724,428617,354279
1151.17,0.084271,431169,355121
1154.75,0.084817,433579,356657
1158.33,0.086507,436264,357472
1161.91,0.087905,439132,358666
1165.48,0.089976,442389,359607
1169.04,0.092501,446101,360522
1173.79,0.096151,451929,362176
1177.34,0.097615,456026,364229
1180.9,0.099570,461306,366791
1184.44,0.101876,467657,369872
1187.99,0.102406,473969,374407
1191.52,0.102379,479856,379081
1195.06,0.102655,487372,384774
1199.76,0.101791,497347,393431
1203.29,0.101642,504311,399077
1206.81,0.100606,511507,405738
1210.33,0.099948,519078,412368
1213.84,0.099482,527163,419240
1217.35,0.099286,534208,425035
1220.85,0.098485,540472,430812
1225.51,0.097598,549929,439247
1229.01,0.096934,556888,445486
1232.5,0.096667,562180,449996
1235.98,0.095852,567975,455488
1239.46,0.094601,574815,462303
1242.94,0.093596,582782,469797
1246.41,0.093369,591476,477055
1251.03,0.093039,604016,487539
1254.5,0.093107,612289,494139
1257.96,0.093738,619125,498931
1261.41,0.093983,624551,503020
1264.86,0.094524,629900,506696
1268.31,0.095321,634345,509336
1271.75,0.096069,638574,511850
1276.33,0.096312,642499,514708
1279.76,0.095811,645905,518033
1283.19,0.095261,648307,520619
1286.61,0.095266,650446,522330
1290.03,0.094954,652132,524060
1293.44,0.094577,653907,525943
1296.85,0.094173,655963,528088
1301.39,0.093691,657349,529792
1304.8,0.093573,657558,530104
1308.19,0.094140,658515,530183
1311.58,0.093943,658804,530656
1314.97,0.094923,659011,529626
1318.36,0.094924,658272,529031
1321.73,0.095241,658022,528444
1326.23,0.095988,657870,527415
1329.6,0.097126,656482,524925
1332.97,0.097948,654926,522690
1336.33,0.099027,653727,520439
1339.69,0.100444,652497,517767
1343.04,0.102155,649913,513689
1346.39,0.104183,647671,509532
1349.73,0.105734,645338,505887
1354.18,0.108692,641175,499211
1357.52,0.110912,638376,494498
1360.85,0.112837,635805,490328
1364.17,0.114980,633413,486079
1367.49,0.116767,631026,482259
1370.81,0.119322,628050,477169
1374.12,0.121114,625034,472922
1378.54,0.124555,620272,465615
1381.84,0.127349,616892,460108
1385.14,0.130397,613613,454462
1388.43,0.134841,611526,448305
1391.72,0.139028,610663,443377
1395.01,0.143323,610634,438993
1398.29,0.147603,611700,435447
1402.66,0.154395,614051,430338
1405.93,0.159256,616268,427084
1409.2,0.164475,617795,423028
1412.46,0.168387,618872,419966
1415.72,0.172850,619795,416292
1418.98,0.176345,620495,413422
1422.23,0.179964,621087,410382
1426.56,0.184238,621375,406552
1429.8,0.186451,621616,404642
1433.04,0.189021,622129,402587
1436.27,0.191555,621526,399857
1439.5,0.192967,621113,398294
1442.72,0.195879,620921,395510
1445.94,0.197939,620270,393226
1450.23,0.201279,618860,389326
1453.44,0.204158,617697,386027
1456.64,0.207427,616264,382243
1459.85,0.209959,614413,378880
1463.04,0.212384,612307,375479
1466.24,0.215696,610032,371242
1469.43,0.218961,607345,366838
1473.67,0.224991,603789,359662
1476.85,0.230365,601175,353701
1480.02,0.236034,597737,347117
1483.19,0.242416,594479,340189
1486.36,0.247995,591232,334013
1489.52,0.252595,587853,328605
1492.68,0.256165,583875,323709
1496.89,0.258320,578062,318900
1500.03,0.259270,574159,316055
1503.18,0.258775,570285,314280
1506.32,0.257476,565444,312546
1509.45,0.256453,560571,310583
1512.58,0.254468,555821,309362
1515.71,0.252457,550344,307735
1519.87,0.249342,543983,306368
1522.99,0.246972,538764,305089
1526.1,0.244897,533692,303664
1529.21,0.241725,527902,302572
1532.32,0.239084,521886,300948
1535.42,0.235989,515888,299617
1538.51,0.232936,509987,298279
1541.6,0.230494,503936,296402
1545.72,0.225945,494694,294030
1548.8,0.223538,488378,291889
1551.88,0.221076,481832,289614
1554.95,0.219365,474989,286628
1558.02,0.217325,467818,283630
1561.08,0.216808,460730,279665
1564.15,0.215723,454170,276373
1568.22,0.214302,444181,271180
1571.27,0.213996,436947,266952
1574.32,0.213605,429598,262698
1577.36,0.212397,422039,258795
1580.4,0.211501,414375,254620
1583.43,0.208655,406354,251333
1586.46,0.207678,398475,247015
1590.49,0.205770,388982,242192
1593.51,0.204030,380708,237992
1596.53,0.201669,372727,234273
1599.54,0.200059,365060,230306
1602.55,0.198185,357543,226539
1605.55,0.195752,349495,222684
1608.55,0.193869,341154,218314
1612.54,0.192089,330877,212607
1615.53,0.190395,322904,208295
1618.51,0.190188,315116,203368
1621.49,0.188542,307217,199023
1624.47,0.187052,299481,194678
1627.44,0.186864,292112,189970
1630.41,0.185159,284245,185581
1634.36,0.184051,274079,179401
1637.32,0.182950,266916,175156
1640.27,0.182132,259612,170684
1643.22,0.180324,251804,166241
1646.16,0.180690,244348,161183
1649.1,0.180014,236703,156383
1652.04,0.178006,228171,151445
1655.95,0.175615,215408,143763
1658.88,0.171575,204937,138053
1661.8,0.165671,193395,132061
1664.72,0.160127,179728,124305
1667.63,0.146556,163642,116772
1670.54,0.131185,146312,108167
1673.44,0.116109,128451,98317
1677.31,0.096187,105080,84204
1680.21,0.088545,88906,72508
1683.1,0.080869,75033,62285
1685.99,0.083008,63520,52469
1688.87,0.081903,53714,44482
1691.75,0.090423,45653,37072
1694.62,0.094829,39137,31460
1697.49,0.097953,33776,26956
1701.31,0.105059,28175,22121

File: Column 1_050597_20150331_122204.csv
Method:,Column 1,,
Host Date-Time:,31/3/15 @ 12:22:4,,
Header Version:,1,,
System Temp (C):,33.93,,
Detector Temp (C):,34.72,,
Humidity (%):,1.76,,
Lamp PD:,3818,,
Shift Vector Coefficients:,-10.5391,0.0761263,-0.000134223,,
Pixel to Wavelength Coefficients:,1775.68,-0.916766,-0.000235065,,
Serial Number:,5510004,,
Scan Config Name:,Column 1,,
Scan Config Type:,Slew,,
Section 1,,
Start wavelength (nm):,900,,
End wavelength (nm):,1700,,
Pattern Pixel Width (nm):,   7.03,,,,
Exposure (ms):,  0.635,,,,
Digital Resolution:,228,,
Num Repeats:,6,,
PGA Gain:,64,,
Total Measurement Time in sec:,  2.680,,
Wavelength (nm),Absorbance (AU),Reference Signal (unitless),Sample Signal (unitless)
901.51,0.070592,108485,92210
905.376,0.074946,121306,102079
909.237,0.077109,131909,110450
913.095,0.078091,143299,119716
916.948,0.080839,156982,130320
922.079,0.082363,179937,148853
925.923,0.081798,200504,166083
929.762,0.082869,222660,183981
933.597,0.083235,244426,201796
937.427,0.080747,263972,219185
941.254,0.081567,281845,233584
945.076,0.079958,297271,247283
950.165,0.079454,315605,262839
953.978,0.078073,328029,274056
957.786,0.078462,340470,284195
961.59,0.078786,352317,293865
965.389,0.078780,363056,302826
969.185,0.079212,373162,310946
972.976,0.079488,382632,318635
976.763,0.080045,391202,325354
981.806,0.080172,400190,332732
985.583,0.080751,406088,337186
989.355,0.080824,410162,340511
993.124,0.081852,412868,341947
996.888,0.082021,414263,342969
1000.65,0.082832,415476,343332
1004.4,0.083423,415479,342867
1009.41,0.085261,414358,340498
1013.15,0.085965,412923,338769
1016.89,0.085784,411526,337764
1020.63,0.085833,409066,335707
1024.36,0.085896,406777,333780
1028.09,0.085227,404427,332363
1031.82,0.085755,401911,329894
1036.78,0.085966,398410,326862
1040.49,0.084659,396204,326032
1044.2,0.085235,394236,323982
1047.91,0.084644,392042,322618
1051.61,0.084120,389823,321179
1055.31,0.084112,388234,319876
1059,0.084498,387599,319069
1063.92,0.083374,386688,319144
1067.61,0.082457,386598,319744
1071.29,0.082115,387377,320641
1074.96,0.080861,388536,322530
1078.63,0.080841,389855,323640
1082.3,0.079402,391215,325847
1085.96,0.079448,393215,327478
1090.84,0.077999,396270,331125
1094.49,0.077762,398760,333388
1098.14,0.077447,400987,335493
1101.79,0.076369,403477,338415
1105.43,0.076541,406116,340494
1109.06,0.075731,407701,342461
1112.7,0.075289,409859,344624
1117.53,0.074604,412494,347387
1121.15,0.075807,414909,348454
1124.77,0.075747,416559,349888
1128.38,0.076425,418532,350997
1131.99,0.077831,419956,351053
1135.6,0.079072,421946,351710
1139.2,0.080752,423881,351959
1143.99,0.082903,426786,352620
1147.58,0.082760,428617,354250
1151.17,0.083912,431169,355415
1154.75,0.084966,433579,356535
1158.33,0.086634,436264,357368
1161.91,0.088279,439132,358357
1165.48,0.090306,442389,359334
1169.04,0.092713,446101,360346
1173.79,0.095908,451929,362378
1177.34,0.097688,456026,364168
1180.9,0.099419,461306,366919
1184.44,0.101327,467657,370340
1187.99,0.102444,473969,374374
1191.52,0.102442,479856,379026
1195.06,0.102926,487372,384534
1199.76,0.101984,497347,393256
1203.29,0.101398,504311,399301
1206.81,0.101171,511507,405210
1210.33,0.100058,519078,412263
1213.84,0.099496,527163,419227
1217.35,0.099082,534208,425234
1220.85,0.098486,540472,430811
1225.51,0.097457,549929,439389
1229.01,0.097385,556888,445023
1232.5,0.096308,562180,450368
1235.98,0.095998,567975,455335
1239.46,0.094880,574815,462006
1242.94,0.093534,582782,469864
1246.41,0.093484,591476,476928
1251.03,0.093349,604016,487191
1254.5,0.093706,612289,493458
1257.96,0.093693,619125,498982
1261.41,0.094232,624551,502731
1264.86,0.094814,629900,506358
1268.31,0.095085,634345,509613
1271.75,0.096111,638574,511800
1276.33,0.096572,642499,514399
1279.76,0.096223,645905,517542
1283.19,0.095692,648307,520102
1286.61,0.095497,650446,522053
1290.03,0.095094,652132,523892
1293.44,0.094395,653907,526164
1296.85,0.094099,655963,528178
1301.39,0.093883,657349,529557
1304.8,0.093494,657558,530201
1308.19,0.093888,658515,530491
1311.58,0.094050,658804,530526
1314.97,0.094761,659011,529824
1318.36,0.095492,658272,528340
1321.73,0.095627,658022,527975
1326.23,0.096756,657870,526483
1329.6,0.097194,656482,524842
1332.97,0.098025,654926,522597
1336.33,0.099298,653727,520114
1339.69,0.100754,652497,517398
1343.04,0.102573,649913,513195
1346.39,0.103919,647671,509842
1349.73,0.106116,645338,505442
1354.18,0.108955,641175,498909
1357.52,0.111410,638376,493931
1360.85,0.112608,635805,490587
1364.17,0.114942,633413,486122
1367.49,0.117181,631026,481799
1370.81,0.119297,628050,477196
1374.12,0.121707,625034,472277
1378.54,0.124409,620272,465772
1381.84,0.127216,616892,460249
1385.14,0.130317,613613,454546
1388.43,0.134260,611526,448906
1391.72,0.138658,610663,443755
1395.01,0.142977,610634,439343
1398.29,0.147640,611700,435410
1402.66,0.154363,614051,430369
1405.93,0.159609,616268,426737
1409.2,0.164197,617795,423299
1412.46,0.169345,618872,419040
1415.72,0.173367,619795,415797
1418.98,0.176795,620495,412994
1422.23,0.179910,621087,410433
1426.56,0.184055,621375,406723
1429.8,0.187241,621616,403907
1433.04,0.189390,622129,402245
1436.27,0.190919,621526,400443
1439.5,0.193487,621113,397817
1442.72,0.195590,620921,395773
1445.94,0.197667,620270,393472
1450.23,0.201280,618860,389325
1453.44,0.204394,617697,385817
1456.64,0.207157,616264,382481
1459.85,0.210196,614413,378673
1463.04,0.212490,612307,375387
1466.24,0.215973,610032,371005
1469.43,0.219666,607345,366243
1473.67,0.225857,603789,358945
1476.85,0.230694,601175,353433
1480.02,0.236747,597737,346548
1483.19,0.243065,594479,339681
1486.36,0.248507,591232,333619
1489.52,0.252956,587853,328332
1492.68,0.256381,583875,323548
1496.89,0.257984,578062,319147
1500.03,0.258439,574159,316660
1503.18,0.257881,570285,314928
1506.32,0.257363,565444,312627
1509.45,0.256431,560571,310599
1512.58,0.254915,555821,309044
1515.71,0.252745,550344,307531
1519.87,0.249135,543983,306514
1522.99,0.246773,538764,305229
1526.1,0.244220,533692,304138
1529.21,0.241949,527902,302416
1532.32,0.238780,521886,301159
1535.42,0.236608,515888,299190
1538.51,0.233113,509987,298158
1541.6,0.230231,503936,296582
1545.72,0.226379,494694,293736
1548.8,0.222758,488378,292414
1551.88,0.220779,481832,289812
1554.95,0.219227,474989,286719
1558.02,0.217492,467818,283521
1561.08,0.216572,460730,279817
1564.15,0.215688,454170,276395
1568.22,0.214931,444181,270788
1571.27,0.214578,436947,266594
1574.32,0.212795,429598,263189
1577.36,0.212219,422039,258901
1580.4,0.211184,414375,254806
1583.43,0.209596,406354,250789
1586.46,0.208334,398475,246642
1590.49,0.209167,388982,240305
1593.51,0.203348,380708,238366
1596.53,0.202223,372727,233974
1599.54,0.200317,365060,230169
1602.55,0.198392,357543,226431
1605.55,0.197186,349495,221950
1608.55,0.194064,341154,218216
1612.54,0.194046,330877,211651
1615.53,0.190578,322904,208207
1618.51,0.189716,315116,203589
1621.49,0.188974,307217,198825
1624.47,0.187856,299481,194318
1627.44,0.185721,292112,190471
1630.41,0.185942,284245,185247
1634.36,0.183371,274079,179682
1637.32,0.184410,266916,174568
1640.27,0.183054,259612,170322
1643.22,0.182002,251804,165600
1646.16,0.181536,244348,160869
1649.1,0.180606,236703,156170
1652.04,0.178565,228171,151250
1655.95,0.176470,215408,143480
1658.88,0.170927,204937,138259
1661.8,0.166168,193395,131910
1664.72,0.158739,179728,124703
1667.63,0.147505,163642,116517
1670.54,0.132552,146312,107827
1673.44,0.116971,128451,98122
1677.31,0.095899,105080,84260
1680.21,0.087636,88906,72660
1683.1,0.083428,75033,61919
1685.99,0.083264,63520,52438
1688.87,0.085058,53714,44160
1691.75,0.090388,45653,37075
1694.62,0.094015,39137,31519
1697.49,0.091683,33776,27348
1701.31,0.106396,28175,22053

File: Column 1_050597_20150331_122207.csv
Method:,Column 1,,
Host Date-Time:,31/3/15 @ 12:22:7,,
Header Version:,1,,
System Temp (C):,33.93,,
Detector Temp (C):,34.74,,
Humidity (%):,1.76,,
Lamp PD:,3818,,
Shift Vector Coefficients:,-10.5391,0.0761263,-0.000134223,,
Pixel to Wavelength Coefficients:,1775.68,-0.916766,-0.000235065,,
Serial Number:,5510004,,
Scan Config Name:,Column 1,,
Scan Config Type:,Slew,,
Section 1,,
Start wavelength (nm):,900,,
End wavelength (nm):,1700,,
Pattern Pixel Width (nm):,   7.03,,,,
Exposure (ms):,  0.635,,,,
Digital Resolution:,228,,
Num Repeats:,6,,
PGA Gain:,64,,
Total Measurement Time in sec:,  2.675,,
Wavelength (nm),Absorbance (AU),Reference Signal (unitless),Sample Signal (unitless)
901.51,0.070733,108485,92180
905.376,0.074703,121306,102136
909.237,0.077904,131909,110248
913.095,0.077942,143299,119757
916.948,0.077668,156982,131275
922.079,0.081538,179937,149136
925.923,0.082216,200504,165923
929.762,0.083578,222660,183681
933.597,0.082547,244426,202116
937.427,0.081225,263972,218944
941.254,0.081259,281845,233750
945.076,0.079318,297271,247648
950.165,0.079269,315605,262951
953.978,0.078388,328029,273857
957.786,0.078731,340470,284019
961.59,0.078081,352317,294342
965.389,0.079063,363056,302629
969.185,0.078556,373162,311416
972.976,0.079060,382632,318949
976.763,0.079121,391202,326047
981.806,0.079873,400190,332961
985.583,0.080491,406088,337388
989.355,0.081270,410162,340162
993.124,0.081166,412868,342488
996.888,0.081896,414263,343068
1000.65,0.082710,415476,343428
1004.4,0.083470,415479,342830
1009.41,0.084907,414358,340776
1013.15,0.085169,412923,339391
1016.89,0.086086,411526,337529
1020.63,0.085312,409066,336110
1024.36,0.086343,406777,333437
1028.09,0.085873,404427,331869
1031.82,0.084881,401911,330559
1036.78,0.084968,398410,327614
1040.49,0.085290,396204,325558
1044.2,0.084997,394236,324160
1047.91,0.084156,392042,322981
1051.61,0.083993,389823,321273
1055.31,0.083855,388234,320065
1059,0.083492,387599,319809
1063.92,0.082664,386688,319666
1067.61,0.081368,386598,320547
1071.29,0.081503,387377,321093
1074.96,0.080888,388536,322510
1078.63,0.080180,389855,324133
1082.3,0.079412,391215,325839
1085.96,0.078780,393215,327982
1090.84,0.077561,396270,331459
1094.49,0.077419,398760,333651
1098.14,0.076671,400987,336093
1101.79,0.076318,403477,338455
1105.43,0.075928,406116,340975
1109.06,0.074987,407701,343048
1112.7,0.074648,409859,345133
1117.53,0.074739,412494,347279
1121.15,0.075374,414909,348802
1124.77,0.075072,416559,350433
1128.38,0.076441,418532,350984
1131.99,0.077376,419956,351421
1135.6,0.078993,421946,351774
1139.2,0.079842,423881,352697
1143.99,0.082391,426786,353036
1147.58,0.082981,428617,354069
1151.17,0.083790,431169,355515
1154.75,0.084811,433579,356662
1158.33,0.085920,436264,357956
1161.91,0.087391,439132,359091
1165.48,0.089632,442389,359892
1169.04,0.091878,446101,361040
1173.79,0.095694,451929,362557
1177.34,0.097362,456026,364441
1180.9,0.099623,461306,366747
1184.44,0.101597,467657,370110
1187.99,0.102136,473969,374640
1191.52,0.102607,479856,378882
1195.06,0.102562,487372,384856
1199.76,0.102014,497347,393229
1203.29,0.100956,504311,399708
1206.81,0.100521,511507,405817
1210.33,0.100146,519078,412180
1213.84,0.099389,527163,419330
1217.35,0.098741,534208,425568
1220.85,0.098331,540472,430965
1225.51,0.097583,549929,439262
1229.01,0.096899,556888,445522
1232.5,0.095903,562180,450788
1235.98,0.095391,567975,455972
1239.46,0.094443,574815,462472
1242.94,0.093869,582782,469502
1246.41,0.093598,591476,476803
1251.03,0.093265,604016,487285
1254.5,0.093053,612289,494201
1257.96,0.093798,619125,498862
1261.41,0.094259,624551,502700
1264.86,0.094723,629900,506464
1268.31,0.095127,634345,509564
1271.75,0.095954,638574,511985
1276.33,0.096188,642499,514854
1279.76,0.096099,645905,517690
1283.19,0.095377,648307,520480
1286.61,0.095164,650446,522453
1290.03,0.094621,652132,524462
1293.44,0.093888,653907,526778
1296.85,0.093909,655963,528409
1301.39,0.093730,657349,529744
1304.8,0.093705,657558,529943
1308.19,0.093619,658515,530819
1311.58,0.094055,658804,530519
1314.97,0.094552,659011,530079
1318.36,0.094964,658272,528982
1321.73,0.095495,658022,528136
1326.23,0.096084,657870,527298
1329.6,0.096530,656482,525645
1332.97,0.097961,654926,522674
1336.33,0.098326,653727,521279
1339.69,0.100761,652497,517389
1343.04,0.101902,649913,513988
1346.39,0.103565,647671,510258
1349.73,0.105578,645338,506068
1354.18,0.108575,641175,499346
1357.52,0.110750,638376,494683
1360.85,0.112094,635805,491168
1364.17,0.114797,633413,486284
1367.49,0.116989,631026,482013
1370.81,0.119011,628050,477511
1374.12,0.121074,625034,472966
1378.54,0.124158,620272,466041
1381.84,0.127130,616892,460340
1385.14,0.130187,613613,454682
1388.43,0.134720,611526,448430
1391.72,0.138581,610663,443834
1395.01,0.142799,610634,439523
1398.29,0.147558,611700,435492
1402.66,0.153888,614051,430840
1405.93,0.158647,616268,427684
1409.2,0.164047,617795,423445
1412.46,0.168418,618872,419936
1415.72,0.172602,619795,416530
1418.98,0.176519,620495,413256
1422.23,0.179321,621087,410990
1426.56,0.183529,621375,407216
1429.8,0.186257,621616,404823
1433.04,0.188979,622129,402626
1436.27,0.191113,621526,400264
1439.5,0.193080,621113,398190
1442.72,0.195856,620921,395531
1445.94,0.198272,620270,392924
1450.23,0.201052,618860,389530
1453.44,0.204229,617697,385964
1456.64,0.206867,616264,382736
1459.85,0.209268,614413,379483
1463.04,0.212026,612307,375788
1466.24,0.215612,610032,371313
1469.43,0.218851,607345,366931
1473.67,0.224927,603789,359715
1476.85,0.230532,601175,353565
1480.02,0.235500,597737,347544
1483.19,0.242263,594479,340309
1486.36,0.247616,591232,334304
1489.52,0.252082,587853,328993
1492.68,0.255955,583875,323866
1496.89,0.257766,578062,319307
1500.03,0.258178,574159,316850
1503.18,0.258072,570285,314789
1506.32,0.257442,565444,312570
1509.45,0.256024,560571,310890
1512.58,0.255155,555821,308873
1515.71,0.251535,550344,308389
1519.87,0.249032,543983,306587
1522.99,0.246730,538764,305259
1526.1,0.244229,533692,304132
1529.21,0.241184,527902,302949
1532.32,0.238127,521886,301612
1535.42,0.235927,515888,299660
1538.51,0.232734,509987,298418
1541.6,0.230021,503936,296725
1545.72,0.225941,494694,294033
1548.8,0.223091,488378,292190
1551.88,0.220760,481832,289825
1554.95,0.219089,474989,286810
1558.02,0.217332,467818,283625
1561.08,0.215909,460730,280245
1564.15,0.215820,454170,276311
1568.22,0.214903,444181,270805
1571.27,0.213766,436947,267093
1574.32,0.212296,429598,263491
1577.36,0.211652,422039,259239
1580.4,0.210305,414375,255322
1583.43,0.209894,406354,250617
1586.46,0.207544,398475,247091
1590.49,0.205282,388982,242464
1593.51,0.203477,380708,238295
1596.53,0.202173,372727,234001
1599.54,0.199238,365060,230742
1602.55,0.197436,357543,226930
1605.55,0.195799,349495,222660
1608.55,0.194625,341154,217934
1612.54,0.192854,330877,212233
1615.53,0.190593,322904,208200
1618.51,0.190021,315116,203446
1621.49,0.187217,307217,199631
1624.47,0.187075,299481,194668
1627.44,0.186631,292112,190072
1630.41,0.185377,284245,185488
1634.36,0.183507,274079,179626
1637.32,0.183180,266916,175063
1640.27,0.182127,259612,170686
1643.22,0.181389,251804,165834
1646.16,0.181458,244348,160898
1649.1,0.180003,236703,156387
1652.04,0.177710,228171,151548
1655.95,0.176065,215408,143614
1658.88,0.170359,204937,138440
1661.8,0.164905,193395,132294
1664.72,0.158133,179728,124877
1667.63,0.145297,163642,117111
1670.54,0.131824,146312,108008
1673.44,0.116790,128451,98163
1677.31,0.097944,105080,83864
1680.21,0.085852,88906,72959
1683.1,0.076947,75033,62850
1685.99,0.076428,63520,53270
1688.87,0.082509,53714,44420
1691.75,0.087574,45653,37316
1694.62,0.088620,39137,31913
1697.49,0.094007,33776,27202
1701.31,0.105275,28175,22110