Folder: textile_sorting_NIRSCAN_/samples/wool/wool-000811 (part 151)

File: Column 1_050614_20150331_123026.csv
Method:,Column 1,,
Host Date-Time:,31/3/15 @ 12:30:26,,
Header Version:,1,,
System Temp (C):,34.09,,
Detector Temp (C):,34.92,,
Humidity (%):,1.66,,
Lamp PD:,3818,,
Shift Vector Coefficients:,-10.5391,0.0761263,-0.000134223,,
Pixel to Wavelength Coefficients:,1775.68,-0.916766,-0.000235065,,
Serial Number:,5510004,,
Scan Config Name:,Column 1,,
Scan Config Type:,Slew,,
Section 1,,
Start wavelength (nm):,900,,
End wavelength (nm):,1700,,
Pattern Pixel Width (nm):,   7.03,,,,
Exposure (ms):,  0.635,,,,
Digital Resolution:,228,,
Num Repeats:,6,,
PGA Gain:,64,,
Total Measurement Time in sec:,  2.675,,
Wavelength (nm),Absorbance (AU),Reference Signal (unitless),Sample Signal (unitless)
901.51,0.069134,108485,92520
905.376,0.075661,121306,101911
909.237,0.076307,131909,110654
913.095,0.078309,143299,119656
916.948,0.077539,156982,131314
922.079,0.080279,179937,149569
925.923,0.081547,200504,166179
929.762,0.082350,222660,184201
933.597,0.081791,244426,202468
937.427,0.081570,263972,218770
941.254,0.080181,281845,234331
945.076,0.079479,297271,247556
950.165,0.077864,315605,263803
953.978,0.077449,328029,274450
957.786,0.077521,340470,284812
961.59,0.078005,352317,294394
965.389,0.077672,363056,303600
969.185,0.077257,373162,312349
972.976,0.078652,382632,319249
976.763,0.078827,391202,326268
981.806,0.078976,400190,333649
985.583,0.079386,406088,338247
989.355,0.079881,410162,341251
993.124,0.080272,412868,343194
996.888,0.080537,414263,344143
1000.65,0.081460,415476,344418
1004.4,0.082311,415479,343746
1009.41,0.083647,414358,341766
1013.15,0.084658,412923,339790
1016.89,0.084872,411526,338474
1020.63,0.084328,409066,336872
1024.36,0.084958,406777,334502
1028.09,0.084414,404427,332986
1031.82,0.084605,401911,330769
1036.78,0.084197,398410,328196
1040.49,0.083905,396204,326598
1044.2,0.083523,394236,325262
1047.91,0.083277,392042,323635
1051.61,0.083080,389823,321949
1055.31,0.083142,388234,320591
1059,0.082285,387599,320699
1063.92,0.081152,386688,320781
1067.61,0.081190,386598,320678
1071.29,0.080420,387377,321895
1074.96,0.079674,388536,323413
1078.63,0.078859,389855,325120
1082.3,0.078155,391215,326784
1085.96,0.077783,393215,328736
1090.84,0.076892,396270,331970
1094.49,0.076545,398760,334323
1098.14,0.075707,400987,336840
1101.79,0.074973,403477,339505
1105.43,0.075136,406116,341597
1109.06,0.074679,407701,343291
1112.7,0.073666,409859,345914
1117.53,0.073650,412494,348151
1121.15,0.074178,414909,349764
1124.77,0.073961,416559,351330
1128.38,0.074695,418532,352398
1131.99,0.076031,419956,352511
1135.6,0.077127,421946,353289
1139.2,0.078589,423881,353716
1143.99,0.080850,426786,354291
1147.58,0.081058,428617,355641
1151.17,0.082438,431169,356623
1154.75,0.083220,433579,357971
1158.33,0.084330,436264,359269
1161.91,0.086242,439132,360042
1165.48,0.088192,442389,361087
1169.04,0.090632,446101,362077
1173.79,0.094236,451929,363776
1177.34,0.096511,456026,365156
1180.9,0.098096,461306,368038
1184.44,0.100427,467657,371108
1187.99,0.101223,473969,375428
1191.52,0.101166,479856,380141
1195.06,0.101055,487372,386194
1199.76,0.100441,497347,394656
1203.29,0.099892,504311,400688
1206.81,0.099093,511507,407154
1210.33,0.098586,519078,413663
1213.84,0.097813,527163,420854
1217.35,0.097445,534208,426840
1220.85,0.096799,540472,432488
1225.51,0.095683,549929,441188
1229.01,0.095460,556888,447000
1232.5,0.094688,562180,452051
1235.98,0.094671,567975,456729
1239.46,0.093018,574815,463992
1242.94,0.091973,582782,471556
1246.41,0.091451,591476,479166
1251.03,0.091453,604016,489323
1254.5,0.091638,612289,495814
1257.96,0.092121,619125,500792
1261.41,0.092741,624551,504460
1264.86,0.093093,629900,508369
1268.31,0.093578,634345,511384
1271.75,0.094502,638574,513700
1276.33,0.094556,642499,516793
1279.76,0.094336,645905,519796
1283.19,0.093950,648307,522192
1286.61,0.093514,650446,524442
1290.03,0.093202,652132,526179
1293.44,0.092450,653907,528525
1296.85,0.092445,655963,530193
1301.39,0.091995,657349,531864
1304.8,0.092189,657558,531796
1308.19,0.092405,658515,532305
1311.58,0.092159,658804,532841
1314.97,0.092614,659011,532450
1318.36,0.093322,658272,530986
1321.73,0.093351,658022,530749
1326.23,0.094563,657870,529148
1329.6,0.094948,656482,527563
1332.97,0.095780,654926,525306
1336.33,0.096872,653727,523027
1339.69,0.098066,652497,520610
1343.04,0.099783,649913,516502
1346.39,0.101486,647671,512706
1349.73,0.103293,645338,508738
1354.18,0.106309,641175,501958
1357.52,0.107959,638376,497872
1360.85,0.110155,635805,493366
1364.17,0.112362,633413,489018
1367.49,0.114440,631026,484850
1370.81,0.116139,628050,480679
1374.12,0.118939,625034,475297
1378.54,0.121437,620272,468970
1381.84,0.124281,616892,463370
1385.14,0.127570,613613,457430
1388.43,0.130910,611526,452382
1391.72,0.135014,610663,447494
1395.01,0.139082,610634,443301
1398.29,0.143267,611700,439816
1402.66,0.149700,614051,435015
1405.93,0.154044,616268,432241
1409.2,0.158984,617795,428411
1412.46,0.163338,618872,424877
1415.72,0.166724,619795,422206
1418.98,0.170368,620495,419151
1422.23,0.173925,621087,416128
1426.56,0.177026,621375,413359
1429.8,0.179779,621616,410907
1433.04,0.182178,622129,408980
1436.27,0.184657,621526,406258
1439.5,0.185808,621113,404914
1442.72,0.189066,620921,401763
1445.94,0.191737,620270,398881
1450.23,0.195259,618860,394760
1453.44,0.197696,617697,391814
1456.64,0.200640,616264,388264
1459.85,0.203416,614413,384631
1463.04,0.206609,612307,380505
1466.24,0.209584,610032,376503
1469.43,0.213698,607345,371311
1473.67,0.219535,603789,364209
1476.85,0.225673,601175,357543
1480.02,0.231277,597737,350940
1483.19,0.238018,594479,343652
1486.36,0.243846,591232,337219
1489.52,0.249345,587853,331073
1492.68,0.253028,583875,326056
1496.89,0.254342,578062,321834
1500.03,0.255507,574159,318805
1503.18,0.255423,570285,316715
1506.32,0.254348,565444,314805
1509.45,0.253022,560571,313046
1512.58,0.250886,555821,311924
1515.71,0.249329,550344,309960
1519.87,0.246675,543983,308255
1522.99,0.243737,538764,307370
1526.1,0.240954,533692,306434
1529.21,0.238642,527902,304727
1532.32,0.235440,521886,303484
1535.42,0.232422,515888,302088
1538.51,0.229765,509987,300465
1541.6,0.226530,503936,299120
1545.72,0.222070,494694,296665
1548.8,0.219324,488378,294735
1551.88,0.217645,481832,291911
1554.95,0.215394,474989,289261
1558.02,0.214262,467818,285637
1561.08,0.212282,460730,282595
1564.15,0.211888,454170,278824
1568.22,0.211208,444181,273119
1571.27,0.210163,436947,269318
1574.32,0.209273,429598,265332
1577.36,0.209112,422039,260760
1580.4,0.207324,414375,257081
1583.43,0.206322,406354,252687
1586.46,0.204830,398475,248640
1590.49,0.202659,388982,243933
1593.51,0.200756,380708,239793
1596.53,0.198017,372727,236251
1599.54,0.197049,365060,231908
1602.55,0.194372,357543,228537
1605.55,0.193046,349495,224076
1608.55,0.190875,341154,219824
1612.54,0.189507,330877,213875
1615.53,0.187398,322904,209737
1618.51,0.186619,315116,205046
1621.49,0.185021,307217,200643
1624.47,0.184829,299481,195677
1627.44,0.183494,292112,191450
1630.41,0.182495,284245,186723
1634.36,0.180572,274079,180844
1637.32,0.180068,266916,176322
1640.27,0.180656,259612,171265
1643.22,0.180092,251804,166330
1646.16,0.178111,244348,162143
1649.1,0.177862,236703,157160
1652.04,0.175401,228171,152356
1655.95,0.173277,215408,144539
1658.88,0.168618,204937,138996
1661.8,0.163044,193395,132862
1664.72,0.154518,179728,125921
1667.63,0.143214,163642,117674
1670.54,0.127232,146312,109156
1673.44,0.114913,128451,98588
1677.31,0.090780,105080,85259
1680.21,0.081747,88906,73652
1683.1,0.075836,75033,63011
1685.99,0.075687,63520,53361
1688.87,0.078044,53714,44879
1691.75,0.083474,45653,37670
1694.62,0.089956,39137,31815
1697.49,0.092016,33776,27327
1701.31,0.100897,28175,22334

File: Column 1_050615_20150331_123031.csv
Method:,Column 1,,
Host Date-Time:,31/3/15 @ 12:30:31,,
Header Version:,1,,
System Temp (C):,34.07,,
Detector Temp (C):,34.97,,
Humidity (%):,1.66,,
Lamp PD:,3818,,
Shift Vector Coefficients:,-10.5391,0.0761263,-0.000134223,,
Pixel to Wavelength Coefficients:,1775.68,-0.916766,-0.000235065,,
Serial Number:,5510004,,
Scan Config Name:,Column 1,,
Scan Config Type:,Slew,,
Section 1,,
Start wavelength (nm):,900,,
End wavelength (nm):,1700,,
Pattern Pixel Width (nm):,   7.03,,,,
Exposure (ms):,  0.635,,,,
Digital Resolution:,228,,
Num Repeats:,6,,
PGA Gain:,64,,
Total Measurement Time in sec:,  2.669,,
Wavelength (nm),Absorbance (AU),Reference Signal (unitless),Sample Signal (unitless)
901.51,0.068271,108485,92704
905.376,0.073336,121306,102458
909.237,0.078258,131909,110158
913.095,0.077917,143299,119764
916.948,0.078914,156982,130899
922.079,0.080288,179937,149566
925.923,0.080526,200504,166570
929.762,0.081804,222660,184433
933.597,0.081598,244426,202558
937.427,0.080660,263972,219229
941.254,0.080190,281845,234326
945.076,0.078662,297271,248022
950.165,0.077565,315605,263985
953.978,0.077224,328029,274592
957.786,0.077722,340470,284680
961.59,0.077580,352317,294682
965.389,0.077036,363056,304045
969.185,0.078293,373162,311605
972.976,0.077730,382632,319927
976.763,0.078043,391202,326857
981.806,0.078874,400190,333728
985.583,0.079903,406088,337845
989.355,0.080364,410162,340872
993.124,0.080220,412868,343235
996.888,0.081073,414263,343719
1000.65,0.081575,415476,344327
1004.4,0.082573,415479,343539
1009.41,0.083825,414358,341626
1013.15,0.084510,412923,339906
1016.89,0.085386,411526,338074
1020.63,0.084637,409066,336633
1024.36,0.085201,406777,334315
1028.09,0.084730,404427,332744
1031.82,0.083730,401911,331436
1036.78,0.084488,398410,327976
1040.49,0.083606,396204,326823
1044.2,0.084095,394236,324834
1047.91,0.083213,392042,323683
1051.61,0.082665,389823,322257
1055.31,0.082616,388234,320980
1059,0.082276,387599,320706
1063.92,0.081110,386688,320812
1067.61,0.080787,386598,320976
1071.29,0.080471,387377,321857
1074.96,0.079689,388536,323402
1078.63,0.079568,389855,324590
1082.3,0.077878,391215,326992
1085.96,0.077561,393215,328904
1090.84,0.076814,396270,332030
1094.49,0.075864,398760,334848
1098.14,0.075643,400987,336889
1101.79,0.075284,403477,339262
1105.43,0.074747,406116,341903
1109.06,0.074158,407701,343703
1112.7,0.073696,409859,345890
1117.53,0.073268,412494,348457
1121.15,0.073629,414909,350206
1124.77,0.073614,416559,351611
1128.38,0.074844,418532,352277
1131.99,0.075600,419956,352861
1135.6,0.077587,421946,352915
1139.2,0.078773,423881,353566
1143.99,0.080572,426786,354518
1147.58,0.081143,428617,355571
1151.17,0.082285,431169,356749
1154.75,0.083088,433579,358080
1158.33,0.084874,436264,358819
1161.91,0.086352,439132,359951
1165.48,0.088481,442389,360847
1169.04,0.090066,446101,362549
1173.79,0.093774,451929,364163
1177.34,0.095905,456026,365666
1180.9,0.098388,461306,367791
1184.44,0.100399,467657,371132
1187.99,0.101046,473969,375581
1191.52,0.101207,479856,380105
1195.06,0.101121,487372,386135
1199.76,0.100053,497347,395009
1203.29,0.099523,504311,401029
1206.81,0.098970,511507,407269
1210.33,0.098798,519078,413461
1213.84,0.098035,527163,420639
1217.35,0.097157,534208,427123
1220.85,0.096373,540472,432913
1225.51,0.095932,549929,440935
1229.01,0.095197,556888,447271
1232.5,0.094489,562180,452258
1235.98,0.094312,567975,457106
1239.46,0.093048,574815,463959
1242.94,0.092146,582782,471368
1246.41,0.091480,591476,479134
1251.03,0.091768,604016,488968
1254.5,0.091649,612289,495801
1257.96,0.091987,619125,500946
1261.41,0.092653,624551,504563
1264.86,0.093257,629900,508177
1268.31,0.093542,634345,511427
1271.75,0.095137,638574,512949
1276.33,0.094769,642499,516539
1279.76,0.093827,645905,520405
1283.19,0.093572,648307,522647
1286.61,0.093687,650446,524233
1290.03,0.093168,652132,526220
1293.44,0.092547,653907,528408
1296.85,0.092277,655963,530398
1301.39,0.092007,657349,531850
1304.8,0.092157,657558,531835
1308.19,0.091992,658515,532812
1311.58,0.092223,658804,532762
1314.97,0.092511,659011,532576
1318.36,0.093147,658272,531200
1321.73,0.093677,658022,530351
1326.23,0.093989,657870,529848
1329.6,0.094814,656482,527727
1332.97,0.095571,654926,525559
1336.33,0.096393,653727,523605
1339.69,0.098290,652497,520341
1343.04,0.099589,649913,516733
1346.39,0.101780,647671,512359
1349.73,0.103577,645338,508406
1354.18,0.106109,641175,502189
1357.52,0.108614,638376,497121
1360.85,0.110347,635805,493148
1364.17,0.112573,633413,488781
1367.49,0.114729,631026,484527
1370.81,0.116927,628050,479808
1374.12,0.118552,625034,475720
1378.54,0.121800,620272,468578
1381.84,0.123905,616892,463772
1385.14,0.127274,613613,457742
1388.43,0.130588,611526,452717
1391.72,0.134833,610663,447681
1395.01,0.139172,610634,443209
1398.29,0.142989,611700,440098
1402.66,0.149247,614051,435469
1405.93,0.154261,616268,432025
1409.2,0.158545,617795,428844
1412.46,0.162860,618872,425345
1415.72,0.167163,619795,421779
1418.98,0.170463,620495,419059
1422.23,0.173664,621087,416379
1426.56,0.176913,621375,413467
1429.8,0.179578,621616,411097
1433.04,0.182123,622129,409032
1436.27,0.184266,621526,406624
1439.5,0.186114,621113,404629
1442.72,0.189142,620921,401693
1445.94,0.190998,620270,399561
1450.23,0.194998,618860,394998
1453.44,0.197674,617697,391833
1456.64,0.200219,616264,388640
1459.85,0.203281,614413,384751
1463.04,0.206050,612307,380995
1466.24,0.209715,610032,376390
1469.43,0.214115,607345,370954
1473.67,0.220046,603789,363780
1476.85,0.225115,601175,358002
1480.02,0.231816,597737,350505
1483.19,0.238181,594479,343523
1486.36,0.244147,591232,336985
1489.52,0.249051,587853,331297
1492.68,0.252843,583875,326195
1496.89,0.254193,578062,321945
1500.03,0.255158,574159,319061
1503.18,0.254961,570285,317052
1506.32,0.254498,565444,314696
1509.45,0.253364,560571,312800
1512.58,0.251227,555821,311679
1515.71,0.248725,550344,310391
1519.87,0.246211,543983,308585
1522.99,0.243288,538764,307688
1526.1,0.241071,533692,306351
1529.21,0.238068,527902,305130
1532.32,0.235970,521886,303114
1535.42,0.232385,515888,302114
1538.51,0.229499,509987,300649
1541.6,0.227169,503936,298680
1545.72,0.221713,494694,296909
1548.8,0.219208,488378,294814
1551.88,0.216684,481832,292558
1554.95,0.215735,474989,289034
1558.02,0.214338,467818,285587
1561.08,0.212714,460730,282314
1564.15,0.211786,454170,278890
1568.22,0.210676,444181,273454
1571.27,0.210476,436947,269124
1574.32,0.209831,429598,264991
1577.36,0.209130,422039,260749
1580.4,0.207474,414375,256992
1583.43,0.205535,406354,253145
1586.46,0.204725,398475,248700
1590.49,0.202894,388982,243801
1593.51,0.200650,380708,239851
1596.53,0.199287,372727,235561
1599.54,0.196123,365060,232403
1602.55,0.193942,357543,228763
1605.55,0.193156,349495,224019
1608.55,0.190865,341154,219829
1612.54,0.189310,330877,213972
1615.53,0.187954,322904,209469
1618.51,0.186452,315116,205125
1621.49,0.185487,307217,200428
1624.47,0.184958,299481,195619
1627.44,0.184046,292112,191207
1630.41,0.182756,284245,186611
1634.36,0.181235,274079,180568
1637.32,0.181398,266916,175783
1640.27,0.179891,259612,171567
1643.22,0.178448,251804,166961
1646.16,0.177645,244348,162317
1649.1,0.176452,236703,157671
1652.04,0.174547,228171,152656
1655.95,0.172862,215408,144677
1658.88,0.168774,204937,138946
1661.8,0.163195,193395,132816
1664.72,0.155771,179728,125558
1667.63,0.143310,163642,117648
1670.54,0.128408,146312,108861
1673.44,0.117277,128451,98053
1677.31,0.092500,105080,84922
1680.21,0.081823,88906,73639
1683.1,0.072253,75033,63533
1685.99,0.076746,63520,53231
1688.87,0.080470,53714,44629
1691.75,0.081920,45653,37805
1694.62,0.083641,39137,32281
1697.49,0.088297,33776,27562
1701.31,0.103883,28175,22181

File: Column 1_050615_20150331_123034.csv
Method:,Column 1,,
Host Date-Time:,31/3/15 @ 12:30:34,,
Header Version:,1,,
System Temp (C):,34.08,,
Detector Temp (C):,34.93,,
Humidity (%):,1.66,,
Lamp PD:,3818,,
Shift Vector Coefficients:,-10.5391,0.0761263,-0.000134223,,
Pixel to Wavelength Coefficients:,1775.68,-0.916766,-0.000235065,,
Serial Number:,5510004,,
Scan Config Name:,Column 1,,
Scan Config Type:,Slew,,
Section 1,,
Start wavelength (nm):,900,,
End wavelength (nm):,1700,,
Pattern Pixel Width (nm):,   7.03,,,,
Exposure (ms):,  0.635,,,,
Digital Resolution:,228,,
Num Repeats:,6,,
PGA Gain:,64,,
Total Measurement Time in sec:,  2.674,,
Wavelength (nm),Absorbance (AU),Reference Signal (unitless),Sample Signal (unitless)
901.51,0.067798,108485,92805
905.376,0.074117,121306,102274
909.237,0.076245,131909,110670
913.095,0.078857,143299,119505
916.948,0.077235,156982,131406
922.079,0.080520,179937,149486
925.923,0.081853,200504,166062
929.762,0.082784,222660,184017
933.597,0.081948,244426,202395
937.427,0.080313,263972,219404
941.254,0.079892,281845,234487
945.076,0.078939,297271,247864
950.165,0.078090,315605,263666
953.978,0.077212,328029,274600
957.786,0.077473,340470,284843
961.59,0.077390,352317,294811
965.389,0.076889,363056,304148
969.185,0.078391,373162,311535
972.976,0.077832,382632,319852
976.763,0.077813,391202,327030
981.806,0.078656,400190,333895
985.583,0.079114,406088,338459
989.355,0.080206,410162,340996
993.124,0.080073,412868,343351
996.888,0.081037,414263,343747
1000.65,0.081407,415476,344460
1004.4,0.082455,415479,343632
1009.41,0.084201,414358,341330
1013.15,0.084252,412923,340108
1016.89,0.085283,411526,338154
1020.63,0.084147,409066,337013
1024.36,0.084340,406777,334978
1028.09,0.084152,404427,333187
1031.82,0.083855,401911,331341
1036.78,0.083727,398410,328551
1040.49,0.083775,396204,326696
1044.2,0.084081,394236,324844
1047.91,0.083407,392042,323538
1051.61,0.083362,389823,321740
1055.31,0.082457,388234,321097
1059,0.082875,387599,320264
1063.92,0.081357,386688,320630
1067.61,0.080672,386598,321061
1071.29,0.080453,387377,321870
1074.96,0.079507,388536,323537
1078.63,0.079450,389855,324678
1082.3,0.078506,391215,326520
1085.96,0.077000,393215,329329
1090.84,0.076318,396270,332409
1094.49,0.075820,398760,334882
1098.14,0.075545,400987,336965
1101.79,0.074852,403477,339599
1105.43,0.074618,406116,342005
1109.06,0.073429,407701,344281
1112.7,0.073491,409859,346054
1117.53,0.073515,412494,348259
1121.15,0.073223,414909,350534
1124.77,0.074277,416559,351075
1128.38,0.074470,418532,352581
1131.99,0.075817,419956,352685
1135.6,0.077073,421946,353333
1139.2,0.078360,423881,353903
1143.99,0.080714,426786,354402
1147.58,0.081667,428617,355142
1151.17,0.082017,431169,356969
1154.75,0.082562,433579,358514
1158.33,0.083589,436264,359882
1161.91,0.086360,439132,359944
1165.48,0.088664,442389,360695
1169.04,0.090325,446101,362333
1173.79,0.093772,451929,364165
1177.34,0.095550,456026,365965
1180.9,0.097878,461306,368223
1184.44,0.099679,467657,371748
1187.99,0.101185,473969,375461
1191.52,0.099976,479856,381184
1195.06,0.100672,487372,386535
1199.76,0.100627,497347,394487
1203.29,0.099539,504311,401014
1206.81,0.098979,511507,407261
1210.33,0.098113,519078,414114
1213.84,0.097592,527163,421069
1217.35,0.097228,534208,427054
1220.85,0.096156,540472,433129
1225.51,0.095560,549929,441313
1229.01,0.095667,556888,446787
1232.5,0.094703,562180,452035
1235.98,0.094145,567975,457282
1239.46,0.092880,574815,464139
1242.94,0.092107,582782,471410
1246.41,0.091798,591476,478783
1251.03,0.091158,604016,489655
1254.5,0.091653,612289,495796
1257.96,0.091994,619125,500938
1261.41,0.092345,624551,504920
1264.86,0.093071,629900,508394
1268.31,0.093384,634345,511613
1271.75,0.093931,638574,514375
1276.33,0.094263,642499,517142
1279.76,0.094055,645905,520132
1283.19,0.093739,648307,522446
1286.61,0.093344,650446,524647
1290.03,0.093189,652132,526195
1293.44,0.092100,653907,528952
1296.85,0.092202,655963,530490
1301.39,0.092096,657349,531741
1304.8,0.091926,657558,532118
1308.19,0.092028,658515,532767
1311.58,0.092201,658804,532789
1314.97,0.092566,659011,532509
1318.36,0.092838,658272,531578
1321.73,0.093183,658022,530955
1326.23,0.093995,657870,529841
1329.6,0.094753,656482,527801
1332.97,0.096000,654926,525040
1336.33,0.096390,653727,523608
1339.69,0.098085,652497,520587
1343.04,0.099302,649913,517075
1346.39,0.101361,647671,512854
1349.73,0.103393,645338,508621
1354.18,0.106299,641175,501970
1357.52,0.107752,638376,498109
1360.85,0.109833,635805,493732
1364.17,0.112051,633413,489368
1367.49,0.114473,631026,484813
1370.81,0.116456,628050,480328
1374.12,0.118582,625034,475687
1378.54,0.121397,620272,469013
1381.84,0.124025,616892,463643
1385.14,0.127264,613613,457752
1388.43,0.130875,611526,452418
1391.72,0.134354,610663,448175
1395.01,0.138606,610634,443787
1398.29,0.143153,611700,439932
1402.66,0.149138,614051,435579
1405.93,0.154060,616268,432225
1409.2,0.159021,617795,428374
1412.46,0.162487,618872,425710
1415.72,0.166410,619795,422511
1418.98,0.170384,620495,419135
1422.23,0.173168,621087,416854
1426.56,0.176864,621375,413514
1429.8,0.179525,621616,411147
1433.04,0.181493,622129,409626
1436.27,0.184190,621526,406695
1439.5,0.185903,621113,404825
1442.72,0.188747,620921,402059
1445.94,0.191317,620270,399267
1450.23,0.194587,618860,395372
1453.44,0.197201,617697,392260
1456.64,0.200617,616264,388284
1459.85,0.203003,614413,384997
1463.04,0.206169,612307,380891
1466.24,0.209347,610032,376709
1469.43,0.212685,607345,372178
1473.67,0.219550,603789,364196
1476.85,0.225976,601175,357293
1480.02,0.231626,597737,350658
1483.19,0.238305,594479,343425
1486.36,0.244633,591232,336608
1489.52,0.249294,587853,331112
1492.68,0.252622,583875,326361
1496.89,0.254502,578062,321716
1500.03,0.254937,574159,319224
1503.18,0.254916,570285,317085
1506.32,0.253774,565444,315221
1509.45,0.252275,560571,313585
1512.58,0.251236,555821,311673
1515.71,0.248689,550344,310417
1519.87,0.245340,543983,309204
1522.99,0.243227,538764,307731
1526.1,0.240709,533692,306607
1529.21,0.238014,527902,305168
1532.32,0.235503,521886,303440
1535.42,0.232168,515888,302265
1538.51,0.228988,509987,301003
1541.6,0.226793,503936,298939
1545.72,0.221646,494694,296955
1548.8,0.218816,488378,295080
1551.88,0.217049,481832,292312
1554.95,0.214954,474989,289554
1558.02,0.214063,467818,285768
1561.08,0.212559,460730,282415
1564.15,0.211403,454170,279136
1568.22,0.211114,444181,273178
1571.27,0.210307,436947,269229
1574.32,0.209600,429598,265132
1577.36,0.208366,422039,261208
1580.4,0.207270,414375,257113
1583.43,0.205928,406354,252916
1586.46,0.204050,398475,249087
1590.49,0.202663,388982,243931
1593.51,0.199903,380708,240264
1596.53,0.198952,372727,235743
1599.54,0.197455,365060,231691
1602.55,0.194938,357543,228239
1605.55,0.192557,349495,224328
1608.55,0.190050,341154,220242
1612.54,0.188094,330877,214572
1615.53,0.187365,322904,209753
1618.51,0.185733,315116,205465
1621.49,0.184978,307217,200663
1624.47,0.183433,299481,196307
1627.44,0.183247,292112,191559
1630.41,0.181719,284245,187057
1634.36,0.181581,274079,180424
1637.32,0.181198,266916,175864
1640.27,0.178703,259612,172037
1643.22,0.178536,251804,166927
1646.16,0.177142,244348,162505
1649.1,0.178445,236703,156949
1652.04,0.176151,228171,152093
1655.95,0.171717,215408,145059
1658.88,0.167626,204937,139314
1661.8,0.162613,193395,132994
1664.72,0.153863,179728,126111
1667.63,0.142930,163642,117751
1670.54,0.128919,146312,108733
1673.44,0.111316,128451,99408
1677.31,0.092433,105080,84935
1680.21,0.077638,88906,74352
1683.1,0.073430,75033,63361
1685.99,0.076102,63520,53310
1688.87,0.078713,53714,44810
1691.75,0.075931,45653,38330
1694.62,0.080718,39137,32499
1697.49,0.089244,33776,27502
1701.31,0.092386,28175,22776