Folder: textile_sorting_NIRSCAN_/samples/wool/wool-000811 (part 132)

File: Column 1_050605_20150331_122549.csv
Method:,Column 1,,
Host Date-Time:,31/3/15 @ 12:25:49,,
Header Version:,1,,
System Temp (C):,33.99,,
Detector Temp (C):,34.8,,
Humidity (%):,1.71,,
Lamp PD:,3819,,
Shift Vector Coefficients:,-10.5391,0.0761263,-0.000134223,,
Pixel to Wavelength Coefficients:,1775.68,-0.916766,-0.000235065,,
Serial Number:,5510004,,
Scan Config Name:,Column 1,,
Scan Config Type:,Slew,,
Section 1,,
Start wavelength (nm):,900,,
End wavelength (nm):,1700,,
Pattern Pixel Width (nm):,   7.03,,,,
Exposure (ms):,  0.635,,,,
Digital Resolution:,228,,
Num Repeats:,6,,
PGA Gain:,64,,
Total Measurement Time in sec:,  2.718,,
Wavelength (nm),Absorbance (AU),Reference Signal (unitless),Sample Signal (unitless)
901.51,0.068862,108485,92578
905.376,0.074652,121306,102148
909.237,0.077014,131909,110474
913.095,0.077924,143299,119762
916.948,0.079109,156982,130840
922.079,0.079032,179937,149999
925.923,0.081897,200504,166045
929.762,0.081618,222660,184512
933.597,0.081982,244426,202379
937.427,0.080331,263972,219395
941.254,0.079877,281845,234495
945.076,0.078127,297271,248328
950.165,0.077739,315605,263879
953.978,0.077022,328029,274720
957.786,0.078077,340470,284447
961.59,0.077764,352317,294557
965.389,0.077559,363056,303679
969.185,0.077460,373162,312203
972.976,0.078119,382632,319641
976.763,0.078276,391202,326682
981.806,0.077952,400190,334437
985.583,0.079540,406088,338127
989.355,0.079767,410162,341341
993.124,0.080417,412868,343079
996.888,0.080358,414263,344285
1000.65,0.081222,415476,344607
1004.4,0.082888,415479,343290
1009.41,0.083721,414358,341708
1013.15,0.084509,412923,339907
1016.89,0.084592,411526,338692
1020.63,0.084258,409066,336927
1024.36,0.084478,406777,334872
1028.09,0.084198,404427,333152
1031.82,0.084181,401911,331092
1036.78,0.083730,398410,328549
1040.49,0.083242,396204,327097
1044.2,0.083942,394236,324948
1047.91,0.083414,392042,323533
1051.61,0.084062,389823,321222
1055.31,0.082833,388234,320819
1059,0.081337,387599,321400
1063.92,0.080877,386688,320984
1067.61,0.080876,386598,320910
1071.29,0.080138,387377,322104
1074.96,0.079762,388536,323347
1078.63,0.078809,389855,325158
1082.3,0.077995,391215,326904
1085.96,0.077475,393215,328969
1090.84,0.076883,396270,331977
1094.49,0.075916,398760,334808
1098.14,0.075575,400987,336942
1101.79,0.075276,403477,339268
1105.43,0.075109,406116,341618
1109.06,0.073955,407701,343864
1112.7,0.073845,409859,345772
1117.53,0.073538,412494,348241
1121.15,0.074000,414909,349907
1124.77,0.074298,416559,351058
1128.38,0.075076,418532,352089
1131.99,0.075889,419956,352626
1135.6,0.077430,421946,353042
1139.2,0.078960,423881,353414
1143.99,0.081066,426786,354115
1147.58,0.081247,428617,355486
1151.17,0.082505,431169,356568
1154.75,0.083123,433579,358051
1158.33,0.084809,436264,358873
1161.91,0.086732,439132,359636
1165.48,0.088319,442389,360982
1169.04,0.091169,446101,361630
1173.79,0.094086,451929,363902
1177.34,0.095728,456026,365815
1180.9,0.098315,461306,367853
1184.44,0.100263,467657,371248
1187.99,0.101413,473969,375264
1191.52,0.101601,479856,379761
1195.06,0.101099,487372,386155
1199.76,0.100489,497347,394612
1203.29,0.100239,504311,400368
1206.81,0.099660,511507,406623
1210.33,0.098884,519078,413379
1213.84,0.098199,527163,420481
1217.35,0.097911,534208,426383
1220.85,0.096845,540472,432442
1225.51,0.096324,549929,440537
1229.01,0.095904,556888,446544
1232.5,0.095133,562180,451588
1235.98,0.094402,567975,457012
1239.46,0.092951,574815,464063
1242.94,0.092707,582782,470759
1246.41,0.091938,591476,478629
1251.03,0.091637,604016,489116
1254.5,0.091911,612289,495502
1257.96,0.092126,619125,500786
1261.41,0.092736,624551,504466
1264.86,0.093304,629900,508122
1268.31,0.093707,634345,511232
1271.75,0.094139,638574,514129
1276.33,0.094691,642499,516632
1279.76,0.094392,645905,519729
1283.19,0.094072,648307,522046
1286.61,0.093919,650446,523953
1290.03,0.093226,652132,526150
1293.44,0.092982,653907,527879
1296.85,0.092659,655963,529932
1301.39,0.092648,657349,531066
1304.8,0.092001,657558,532026
1308.19,0.092186,658515,532574
1311.58,0.092503,658804,532419
1314.97,0.093225,659011,531701
1318.36,0.093466,658272,530810
1321.73,0.093870,658022,530115
1326.23,0.094843,657870,528807
1329.6,0.094958,656482,527551
1332.97,0.096380,654926,524581
1336.33,0.096969,653727,522910
1339.69,0.098565,652497,520012
1343.04,0.100191,649913,516017
1346.39,0.101835,647671,512294
1349.73,0.103985,645338,507928
1354.18,0.106755,641175,501443
1357.52,0.108674,638376,497053
1360.85,0.111084,635805,492311
1364.17,0.113103,633413,488184
1367.49,0.114908,631026,484328
1370.81,0.117254,628050,479447
1374.12,0.119637,625034,474533
1378.54,0.122327,620272,468010
1381.84,0.124602,616892,463028
1385.14,0.128242,613613,456723
1388.43,0.131834,611526,451420
1391.72,0.136130,610663,446346
1395.01,0.140569,610634,441786
1398.29,0.144578,611700,438491
1402.66,0.150914,614051,433801
1405.93,0.155633,616268,430662
1409.2,0.160402,617795,427014
1412.46,0.165046,618872,423209
1415.72,0.168880,619795,420115
1418.98,0.173019,620495,416600
1422.23,0.176028,621087,414118
1426.56,0.180195,621375,410354
1429.8,0.182589,621616,408257
1433.04,0.185172,622129,406171
1436.27,0.187098,621526,403981
1439.5,0.189202,621113,401762
1442.72,0.191758,620921,399281
1445.94,0.193667,620270,397113
1450.23,0.197492,618860,392736
1453.44,0.200074,617697,389674
1456.64,0.203100,616264,386071
1459.85,0.205807,614413,382519
1463.04,0.208669,612307,378704
1466.24,0.211589,610032,374769
1469.43,0.215975,607345,369369
1473.67,0.222057,603789,362100
1476.85,0.227156,601175,356324
1480.02,0.233319,597737,349294
1483.19,0.239206,594479,342713
1486.36,0.246043,591232,335517
1489.52,0.250108,587853,330492
1492.68,0.253498,583875,325703
1496.89,0.255643,578062,320872
1500.03,0.256022,574159,318427
1503.18,0.256149,570285,316186
1506.32,0.255297,565444,314118
1509.45,0.254039,560571,312314
1512.58,0.252256,555821,310942
1515.71,0.250113,550344,309401
1519.87,0.247466,543983,307694
1522.99,0.244337,538764,306946
1526.1,0.242500,533692,305345
1529.21,0.239891,527902,303852
1532.32,0.236800,521886,302535
1535.42,0.233709,515888,301194
1538.51,0.230855,509987,299712
1541.6,0.227874,503936,298196
1545.72,0.223835,494694,295462
1548.8,0.221028,488378,293581
1551.88,0.218548,481832,291305
1554.95,0.216726,474989,288375
1558.02,0.215264,467818,284979
1561.08,0.214065,460730,281437
1564.15,0.213661,454170,277688
1568.22,0.212318,444181,272422
1571.27,0.211465,436947,268512
1574.32,0.211268,429598,264116
1577.36,0.209667,422039,260427
1580.4,0.208874,414375,256165
1583.43,0.207926,406354,251755
1586.46,0.204942,398475,248576
1590.49,0.204009,388982,243176
1593.51,0.201471,380708,239398
1596.53,0.199042,372727,235694
1599.54,0.196938,365060,231967
1602.55,0.195192,357543,228106
1605.55,0.194136,349495,223514
1608.55,0.191611,341154,219452
1612.54,0.191051,330877,213116
1615.53,0.188458,322904,209226
1618.51,0.187147,315116,204797
1621.49,0.186404,307217,200005
1624.47,0.185136,299481,195539
1627.44,0.184832,292112,190861
1630.41,0.182495,284245,186723
1634.36,0.182078,274079,180218
1637.32,0.181860,266916,175596
1640.27,0.180119,259612,171477
1643.22,0.179281,251804,166641
1646.16,0.179430,244348,161651
1649.1,0.178144,236703,157058
1652.04,0.176017,228171,152140
1655.95,0.173343,215408,144517
1658.88,0.169159,204937,138823
1661.8,0.164882,193395,132301
1664.72,0.156308,179728,125403
1667.63,0.143920,163642,117483
1670.54,0.129646,146312,108551
1673.44,0.113089,128451,99003
1677.31,0.093416,105080,84743
1680.21,0.082289,88906,73560
1683.1,0.078220,75033,62666
1685.99,0.077203,63520,53175
1688.87,0.080120,53714,44665
1691.75,0.084790,45653,37556
1694.62,0.087478,39137,31997
1697.49,0.091714,33776,27346
1701.31,0.108390,28175,21952

File: Column 1_050605_20150331_122555.csv
Method:,Column 1,,
Host Date-Time:,31/3/15 @ 12:25:55,,
Header Version:,1,,
System Temp (C):,34.01,,
Detector Temp (C):,34.82,,
Humidity (%):,1.71,,
Lamp PD:,3818,,
Shift Vector Coefficients:,-10.5391,0.0761263,-0.000134223,,
Pixel to Wavelength Coefficients:,1775.68,-0.916766,-0.000235065,,
Serial Number:,5510004,,
Scan Config Name:,Column 1,,
Scan Config Type:,Slew,,
Section 1,,
Start wavelength (nm):,900,,
End wavelength (nm):,1700,,
Pattern Pixel Width (nm):,   7.03,,,,
Exposure (ms):,  0.635,,,,
Digital Resolution:,228,,
Num Repeats:,6,,
PGA Gain:,64,,
Total Measurement Time in sec:,  2.732,,
Wavelength (nm),Absorbance (AU),Reference Signal (unitless),Sample Signal (unitless)
901.51,0.067536,108485,92861
905.376,0.074393,121306,102209
909.237,0.075692,131909,110811
913.095,0.077808,143299,119794
916.948,0.079704,156982,130661
922.079,0.081387,179937,149188
925.923,0.081845,200504,166065
929.762,0.081811,222660,184430
933.597,0.082585,244426,202098
937.427,0.080040,263972,219542
941.254,0.079512,281845,234692
945.076,0.079100,297271,247772
950.165,0.077336,315605,264124
953.978,0.077199,328029,274608
957.786,0.077301,340470,284956
961.59,0.077503,352317,294734
965.389,0.077399,363056,303791
969.185,0.077328,373162,312298
972.976,0.077597,382632,320025
976.763,0.078570,391202,326461
981.806,0.078822,400190,333768
985.583,0.079700,406088,338003
989.355,0.079561,410162,341503
993.124,0.080534,412868,342987
996.888,0.080359,414263,344284
1000.65,0.082023,415476,343972
1004.4,0.082777,415479,343378
1009.41,0.083921,414358,341550
1013.15,0.084423,412923,339974
1016.89,0.084447,411526,338805
1020.63,0.084499,409066,336740
1024.36,0.085008,406777,334463
1028.09,0.084906,404427,332609
1031.82,0.085019,401911,330454
1036.78,0.084440,398410,328012
1040.49,0.084097,396204,326454
1044.2,0.084277,394236,324698
1047.91,0.083519,392042,323455
1051.61,0.083024,389823,321991
1055.31,0.082808,388234,320838
1059,0.082089,387599,320844
1063.92,0.082142,386688,320051
1067.61,0.080315,386598,321325
1071.29,0.080050,387377,322169
1074.96,0.078998,388536,323917
1078.63,0.079087,389855,324950
1082.3,0.078458,391215,326556
1085.96,0.077801,393215,328722
1090.84,0.076837,396270,332012
1094.49,0.077005,398760,333969
1098.14,0.076024,400987,336594
1101.79,0.075136,403477,339377
1105.43,0.075144,406116,341591
1109.06,0.074673,407701,343296
1112.7,0.074174,409859,345510
1117.53,0.073762,412494,348061
1121.15,0.074140,414909,349794
1124.77,0.073992,416559,351305
1128.38,0.075337,418532,351878
1131.99,0.075798,419956,352700
1135.6,0.077646,421946,352867
1139.2,0.078701,423881,353625
1143.99,0.080780,426786,354348
1147.58,0.081110,428617,355598
1151.17,0.082427,431169,356632
1154.75,0.083277,433579,357924
1158.33,0.085169,436264,358575
1161.91,0.086687,439132,359673
1165.48,0.088676,442389,360685
1169.04,0.090767,446101,361965
1173.79,0.094093,451929,363896
1177.34,0.096784,456026,364927
1180.9,0.098853,461306,367397
1184.44,0.100376,467657,371152
1187.99,0.101412,473969,375265
1191.52,0.101299,479856,380025
1195.06,0.100779,487372,386440
1199.76,0.100245,497347,394834
1203.29,0.099851,504311,400726
1206.81,0.099356,511507,406907
1210.33,0.099163,519078,413114
1213.84,0.098145,527163,420533
1217.35,0.097734,534208,426556
1220.85,0.096694,540472,432593
1225.51,0.095918,549929,440949
1229.01,0.095318,556888,447147
1232.5,0.094702,562180,452036
1235.98,0.094576,567975,456829
1239.46,0.093501,574815,463476
1242.94,0.092932,582782,470516
1246.41,0.092062,591476,478493
1251.03,0.091789,604016,488944
1254.5,0.091791,612289,495639
1257.96,0.092456,619125,500406
1261.41,0.092867,624551,504314
1264.86,0.093692,629900,507668
1268.31,0.093996,634345,510893
1271.75,0.094709,638574,513455
1276.33,0.094885,642499,516401
1279.76,0.095054,645905,518937
1283.19,0.094160,648307,521940
1286.61,0.093716,650446,524198
1290.03,0.093666,652132,525617
1293.44,0.093061,653907,527782
1296.85,0.092990,655963,529528
1301.39,0.092587,657349,531140
1304.8,0.092362,657558,531584
1308.19,0.092427,658515,532278
1311.58,0.092818,658804,532032
1314.97,0.093400,659011,531487
1318.36,0.093438,658272,530844
1321.73,0.093681,658022,530346
1326.23,0.094694,657870,528988
1329.6,0.095372,656482,527049
1332.97,0.096342,654926,524626
1336.33,0.097268,653727,522551
1339.69,0.098996,652497,519496
1343.04,0.100025,649913,516215
1346.39,0.101974,647671,512130
1349.73,0.104279,645338,507584
1354.18,0.107404,641175,500694
1357.52,0.109220,638376,496428
1360.85,0.111223,635805,492154
1364.17,0.113222,633413,488051
1367.49,0.115259,631026,483936
1370.81,0.117033,628050,479691
1374.12,0.119536,625034,474644
1378.54,0.122418,620272,467912
1381.84,0.125221,616892,462368
1385.14,0.128386,613613,456571
1388.43,0.132132,611526,451110
1391.72,0.136200,610663,446274
1395.01,0.140652,610634,441702
1398.29,0.145037,611700,438028
1402.66,0.150791,614051,433924
1405.93,0.156470,616268,429833
1409.2,0.160733,617795,426689
1412.46,0.165461,618872,422805
1415.72,0.169381,619795,419631
1418.98,0.172929,620495,416686
1422.23,0.176501,621087,413668
1426.56,0.179707,621375,410815
1429.8,0.182460,621616,408378
1433.04,0.185177,622129,406166
1436.27,0.187233,621526,403856
1439.5,0.188948,621113,401997
1442.72,0.191624,620921,399404
1445.94,0.194111,620270,396707
1450.23,0.197920,618860,392349
1453.44,0.200162,617697,389595
1456.64,0.202920,616264,386231
1459.85,0.205955,614413,382389
1463.04,0.208853,612307,378544
1466.24,0.211958,610032,374451
1469.43,0.215941,607345,369398
1473.67,0.221685,603789,362410
1476.85,0.227327,601175,356184
1480.02,0.233359,597737,349262
1483.19,0.239982,594479,342101
1486.36,0.245463,591232,335966
1489.52,0.250731,587853,330018
1492.68,0.253800,583875,325477
1496.89,0.255436,578062,321025
1500.03,0.256346,574159,318190
1503.18,0.256496,570285,315934
1506.32,0.254937,565444,314378
1509.45,0.253985,560571,312353
1512.58,0.252795,555821,310556
1515.71,0.249679,550344,309710
1519.87,0.247356,543983,307772
1522.99,0.244461,538764,306858
1526.1,0.242456,533692,305376
1529.21,0.238910,527902,304539
1532.32,0.236737,521886,302579
1535.42,0.234216,515888,300843
1538.51,0.230787,509987,299759
1541.6,0.227604,503936,298381
1545.72,0.223951,494694,295383
1548.8,0.220806,488378,293731
1551.88,0.218510,481832,291330
1554.95,0.216681,474989,288405
1558.02,0.215468,467818,284845
1561.08,0.214518,460730,281144
1564.15,0.213385,454170,277865
1568.22,0.211897,444181,272686
1571.27,0.212704,436947,267747
1574.32,0.211121,429598,264205
1577.36,0.209733,422039,260387
1580.4,0.209646,414375,255710
1583.43,0.207099,406354,252235
1586.46,0.205927,398475,248013
1590.49,0.203181,388982,243640
1593.51,0.201364,380708,239457
1596.53,0.199985,372727,235183
1599.54,0.198125,365060,231334
1602.55,0.195336,357543,228030
1605.55,0.194829,349495,223158
1608.55,0.191514,341154,219501
1612.54,0.190291,330877,213489
1615.53,0.189046,322904,208943
1618.51,0.187760,315116,204508
1621.49,0.186196,307217,200101
1624.47,0.185485,299481,195382
1627.44,0.184880,292112,190840
1630.41,0.184072,284245,186046
1634.36,0.181899,274079,180292
1637.32,0.181526,266916,175731
1640.27,0.181062,259612,171105
1643.22,0.180006,251804,166363
1646.16,0.179640,244348,161573
1649.1,0.179057,236703,156728
1652.04,0.177189,228171,151730
1655.95,0.174065,215408,144277
1658.88,0.169754,204937,138633
1661.8,0.163879,193395,132607
1664.72,0.156585,179728,125323
1667.63,0.144364,163642,117363
1670.54,0.129606,146312,108561
1673.44,0.113493,128451,98911
1677.31,0.093099,105080,84805
1680.21,0.083300,88906,73389
1683.1,0.075609,75033,63044
1685.99,0.075597,63520,53372
1688.87,0.081669,53714,44506
1691.75,0.085450,45653,37499
1694.62,0.090092,39137,31805
1697.49,0.093912,33776,27208
1701.31,0.115008,28175,21620

File: Column 1_050605_20150331_122601.csv
Method:,Column 1,,
Host Date-Time:,31/3/15 @ 12:26:1,,
Header Version:,1,,
System Temp (C):,34.02,,
Detector Temp (C):,34.85,,
Humidity (%):,1.66,,
Lamp PD:,3818,,
Shift Vector Coefficients:,-10.5391,0.0761263,-0.000134223,,
Pixel to Wavelength Coefficients:,1775.68,-0.916766,-0.000235065,,
Serial Number:,5510004,,
Scan Config Name:,Column 1,,
Scan Config Type:,Slew,,
Section 1,,
Start wavelength (nm):,900,,
End wavelength (nm):,1700,,
Pattern Pixel Width (nm):,   7.03,,,,
Exposure (ms):,  0.635,,,,
Digital Resolution:,228,,
Num Repeats:,6,,
PGA Gain:,64,,
Total Measurement Time in sec:,  2.679,,
Wavelength (nm),Absorbance (AU),Reference Signal (unitless),Sample Signal (unitless)
901.51,0.069068,108485,92534
905.376,0.073905,121306,102324
909.237,0.076547,131909,110593
913.095,0.079512,143299,119325
916.948,0.079754,156982,130646
922.079,0.080665,179937,149436
925.923,0.081435,200504,166222
929.762,0.082537,222660,184122
933.597,0.081855,244426,202438
937.427,0.080832,263972,219142
941.254,0.079829,281845,234521
945.076,0.079978,297271,247272
950.165,0.078856,315605,263201
953.978,0.077362,328029,274505
957.786,0.077054,340470,285118
961.59,0.077941,352317,294437
965.389,0.077781,363056,303524
969.185,0.077485,373162,312185
972.976,0.077925,382632,319784
976.763,0.078849,391202,326251
981.806,0.078920,400190,333692
985.583,0.079572,406088,338102
989.355,0.080219,410162,340986
993.124,0.080182,412868,343265
996.888,0.080719,414263,343999
1000.65,0.082104,415476,343908
1004.4,0.082803,415479,343357
1009.41,0.083728,414358,341702
1013.15,0.084745,412923,339722
1016.89,0.084871,411526,338475
1020.63,0.084254,409066,336930
1024.36,0.084825,406777,334604
1028.09,0.084318,404427,333060
1031.82,0.084270,401911,331024
1036.78,0.083767,398410,328521
1040.49,0.083657,396204,326785
1044.2,0.084614,394236,324446
1047.91,0.083822,392042,323229
1051.61,0.082968,389823,322032
1055.31,0.083298,388234,320476
1059,0.082207,387599,320757
1063.92,0.081186,386688,320756
1067.61,0.080508,386598,321182
1071.29,0.080973,387377,321485
1074.96,0.079518,388536,323529
1078.63,0.079350,389855,324753
1082.3,0.078548,391215,326488
1085.96,0.077977,393215,328589
1090.84,0.077069,396270,331835
1094.49,0.076075,398760,334685
1098.14,0.076168,400987,336482
1101.79,0.075051,403477,339444
1105.43,0.074637,406116,341990
1109.06,0.074131,407701,343725
1112.7,0.073919,409859,345713
1117.53,0.073098,412494,348594
1121.15,0.073994,414909,349912
1124.77,0.073974,416559,351320
1128.38,0.075138,418532,352039
1131.99,0.076218,419956,352359
1135.6,0.077668,421946,352849
1139.2,0.079295,423881,353142
1143.99,0.081233,426786,353979
1147.58,0.081627,428617,355175
1151.17,0.082119,431169,356885
1154.75,0.083529,433579,357717
1158.33,0.085109,436264,358625
1161.91,0.086882,439132,359512
1165.48,0.088255,442389,361035
1169.04,0.090647,446101,362065
1173.79,0.094520,451929,363538
1177.34,0.096149,456026,365461
1180.9,0.098746,461306,367488
1184.44,0.100111,467657,371378
1187.99,0.101213,473969,375437
1191.52,0.101658,479856,379711
1195.06,0.100801,487372,386420
1199.76,0.100323,497347,394763
1203.29,0.099657,504311,400905
1206.81,0.099596,511507,406683
1210.33,0.098951,519078,413315
1213.84,0.098482,527163,420207
1217.35,0.097478,534208,426808
1220.85,0.096898,540472,432390
1225.51,0.096023,549929,440843
1229.01,0.095980,556888,446465
1232.5,0.095254,562180,451462
1235.98,0.094401,567975,457013
1239.46,0.093484,574815,463494
1242.94,0.092628,582782,470845
1246.41,0.092055,591476,478500
1251.03,0.091947,604016,488767
1254.5,0.091572,612289,495889
1257.96,0.092443,619125,500421
1261.41,0.092984,624551,504178
1264.86,0.093164,629900,508285
1268.31,0.094235,634345,510611
1271.75,0.094498,638574,513704
1276.33,0.094943,642499,516332
1279.76,0.094494,645905,519606
1283.19,0.093938,648307,522207
1286.61,0.094140,650446,523686
1290.03,0.093484,652132,525837
1293.44,0.092774,653907,528131
1296.85,0.092512,655963,530112
1301.39,0.092298,657349,531493
1304.8,0.092571,657558,531329
1308.19,0.092859,658515,531749
1311.58,0.093118,658804,531665
1314.97,0.093090,659011,531866
1318.36,0.093320,658272,530989
1321.73,0.093975,658022,529987
1326.23,0.094589,657870,529116
1329.6,0.094952,656482,527559
1332.97,0.096286,654926,524694
1336.33,0.097065,653727,522795
1339.69,0.098730,652497,519815
1343.04,0.100663,649913,515457
1346.39,0.102386,647671,511645
1349.73,0.104279,645338,507584
1354.18,0.107011,641175,501147
1357.52,0.108956,638376,496730
1360.85,0.111128,635805,492262
1364.17,0.112893,633413,488421
1367.49,0.115194,631026,484009
1370.81,0.117408,628050,479277
1374.12,0.119472,625034,474714
1378.54,0.122604,620272,467712
1381.84,0.125465,616892,462109
1385.14,0.129038,613613,455886
1388.43,0.132354,611526,450880
1391.72,0.135962,610663,446519
1395.01,0.140230,610634,442131
1398.29,0.144596,611700,438473
1402.66,0.150541,614051,434174
1405.93,0.156265,616268,430036
1409.2,0.161111,617795,426318
1412.46,0.165121,618872,423136
1415.72,0.169074,619795,419927
1418.98,0.172488,620495,417110
1422.23,0.175623,621087,414505
1426.56,0.179850,621375,410680
1429.8,0.182249,621616,408576
1433.04,0.184512,622129,406788
1436.27,0.186993,621526,404079
1439.5,0.188887,621113,402053
1442.72,0.191412,620921,399599
1445.94,0.194180,620270,396644
1450.23,0.197766,618860,392488
1453.44,0.200019,617697,389723
1456.64,0.202987,616264,386171
1459.85,0.205856,614413,382476
1463.04,0.208623,612307,378744
1466.24,0.212165,610032,374272
1469.43,0.215896,607345,369436
1473.67,0.222141,603789,362030
1476.85,0.227179,601175,356305
1480.02,0.232987,597737,349561
1483.19,0.239779,594479,342261
1486.36,0.244988,591232,336333
1489.52,0.250308,587853,330340
1492.68,0.254367,583875,325052
1496.89,0.255571,578062,320925
1500.03,0.256380,574159,318165
1503.18,0.256313,570285,316067
1506.32,0.255287,565444,314125
1509.45,0.253996,560571,312345
1512.58,0.252624,555821,310678
1515.71,0.249840,550344,309595
1519.87,0.247555,543983,307631
1522.99,0.244276,538764,306989
1526.1,0.242231,533692,305534
1529.21,0.238993,527902,304481
1532.32,0.236408,521886,302808
1535.42,0.233972,515888,301012
1538.51,0.230697,509987,299821
1541.6,0.227680,503936,298329
1545.72,0.224182,494694,295226
1548.8,0.221300,488378,293397
1551.88,0.218994,481832,291006
1554.95,0.216971,474989,288212
1558.02,0.215005,467818,285149
1561.08,0.214912,460730,280889
1564.15,0.213169,454170,278003
1568.22,0.212221,444181,272483
1571.27,0.211218,436947,268665
1574.32,0.211100,429598,264218
1577.36,0.213825,422039,257945
1580.4,0.209374,414375,255870
1583.43,0.207172,406354,252193
1586.46,0.205598,398475,248201
1590.49,0.203456,388982,243486
1593.51,0.201876,380708,239175
1596.53,0.200087,372727,235128
1599.54,0.198166,365060,231312
1602.55,0.195479,357543,227955
1605.55,0.193952,349495,223609
1608.55,0.192084,341154,219213
1612.54,0.189893,330877,213685
1615.53,0.188551,322904,209181
1618.51,0.187563,315116,204601
1621.49,0.186200,307217,200099
1624.47,0.186090,299481,195110
1627.44,0.185021,292112,190778
1630.41,0.183972,284245,186089
1634.36,0.183690,274079,179550
1637.32,0.181222,266916,175854
1640.27,0.180712,259612,171243
1643.22,0.180450,251804,166193
1646.16,0.179205,244348,161735
1649.1,0.179193,236703,156679
1652.04,0.177249,228171,151709
1655.95,0.172580,215408,144771
1658.88,0.169650,204937,138666
1661.8,0.165276,193395,132181
1664.72,0.157897,179728,124945
1667.63,0.144904,163642,117217
1670.54,0.130728,146312,108281
1673.44,0.115570,128451,98439
1677.31,0.094797,105080,84474
1680.21,0.081469,88906,73699
1683.1,0.077999,75033,62698
1685.99,0.082404,63520,52542
1688.87,0.080772,53714,44598
1691.75,0.086064,45653,37446
1694.62,0.086272,39137,32086
1697.49,0.095062,33776,27136
1701.31,0.102007,28175,22277