Folder: textile_sorting_NIRSCAN_/samples/wool/wool-000811 (part 13)

File: Column 1_050538_20150331_115404.csv
Method:,Column 1,,
Host Date-Time:,31/3/15 @ 11:54:4,,
Header Version:,1,,
System Temp (C):,31.85,,
Detector Temp (C):,30.2,,
Humidity (%):,3.41,,
Lamp PD:,3825,,
Shift Vector Coefficients:,-10.5391,0.0761263,-0.000134223,,
Pixel to Wavelength Coefficients:,1775.68,-0.916766,-0.000235065,,
Serial Number:,5510004,,
Scan Config Name:,Column 1,,
Scan Config Type:,Slew,,
Section 1,,
Start wavelength (nm):,900,,
End wavelength (nm):,1700,,
Pattern Pixel Width (nm):,   7.03,,,,
Exposure (ms):,  0.635,,,,
Digital Resolution:,228,,
Num Repeats:,6,,
PGA Gain:,64,,
Total Measurement Time in sec:,  2.670,,
Wavelength (nm),Absorbance (AU),Reference Signal (unitless),Sample Signal (unitless)
901.51,0.044676,108485,97880
905.376,0.050640,121306,107955
909.237,0.052783,131909,116813
913.095,0.051193,143299,127365
916.948,0.051123,156982,139549
922.079,0.051579,179937,159787
925.923,0.052761,200504,177567
929.762,0.052843,222660,197151
933.597,0.053095,244426,216298
937.427,0.052960,263972,233667
941.254,0.054048,281845,248864
945.076,0.053492,297271,262821
950.165,0.053549,315605,278994
953.978,0.053742,328029,289848
957.786,0.053927,340470,300713
961.59,0.054836,352317,310526
965.389,0.054714,363056,320081
969.185,0.055346,373162,328512
972.976,0.056146,382632,336229
976.763,0.057455,391202,342725
981.806,0.057451,400190,350603
985.583,0.057988,406088,355330
989.355,0.058412,410162,358545
993.124,0.059038,412868,360390
996.888,0.059946,414263,360853
1000.65,0.060781,415476,361214
1004.4,0.061469,415479,360645
1009.41,0.062771,414358,358595
1013.15,0.063672,412923,356613
1016.89,0.063780,411526,355318
1020.63,0.063950,409066,353056
1024.36,0.063415,406777,351513
1028.09,0.062907,404427,349891
1031.82,0.063094,401911,347565
1036.78,0.062641,398410,344897
1040.49,0.061667,396204,343757
1044.2,0.061895,394236,341870
1047.91,0.061125,392042,340571
1051.61,0.060447,389823,339172
1055.31,0.059053,388234,338876
1059,0.058197,387599,338989
1063.92,0.056997,386688,339128
1067.61,0.056591,386598,339366
1071.29,0.055486,387377,340916
1074.96,0.055012,388536,342310
1078.63,0.054540,389855,343845
1082.3,0.054259,391215,345268
1085.96,0.052749,393215,348242
1090.84,0.052089,396270,351481
1094.49,0.051625,398760,354068
1098.14,0.051529,400987,356124
1101.79,0.051310,403477,358516
1105.43,0.050959,406116,361153
1109.06,0.050148,407701,363240
1112.7,0.050561,409859,364816
1117.53,0.050962,412494,366822
1121.15,0.051814,414909,368247
1124.77,0.051782,416559,369738
1128.38,0.053791,418532,369775
1131.99,0.054487,419956,370439
1135.6,0.057268,421946,369819
1139.2,0.059169,423881,369892
1143.99,0.061836,426786,370147
1147.58,0.063198,428617,370571
1151.17,0.064703,431169,371488
1154.75,0.066047,433579,372410
1158.33,0.068693,436264,372440
1161.91,0.070579,439132,373264
1165.48,0.073561,442389,373459
1169.04,0.076461,446101,374087
1173.79,0.081113,451929,374936
1177.34,0.083973,456026,375852
1180.9,0.085571,461306,378807
1184.44,0.088114,467657,381780
1187.99,0.088654,473969,386452
1191.52,0.087644,479856,392163
1195.06,0.087486,487372,398451
1199.76,0.086707,497347,407336
1203.29,0.085285,504311,414394
1206.81,0.083355,511507,422179
1210.33,0.082038,519078,429729
1213.84,0.081727,527163,436735
1217.35,0.080162,534208,444169
1220.85,0.079106,540472,450471
1225.51,0.077709,549929,459830
1229.01,0.077333,556888,466052
1232.5,0.076473,562180,471414
1235.98,0.075268,567975,477597
1239.46,0.074236,574815,484498
1242.94,0.073079,582782,492524
1246.41,0.072366,591476,500692
1251.03,0.072045,604016,511686
1254.5,0.072270,612289,518426
1257.96,0.072233,619125,524258
1261.41,0.072966,624551,527961
1264.86,0.073582,629900,531728
1268.31,0.074022,634345,534938
1271.75,0.075052,638574,537229
1276.33,0.075343,642499,540169
1279.76,0.075373,645905,542995
1283.19,0.074669,648307,545898
1286.61,0.074377,650446,548068
1290.03,0.073574,652132,550505
1293.44,0.073280,653907,552378
1296.85,0.073063,655963,554391
1301.39,0.072969,657349,555683
1304.8,0.072752,657558,556137
1308.19,0.073097,658515,556505
1311.58,0.073327,658804,556454
1314.97,0.074040,659011,555716
1318.36,0.074573,658272,554412
1321.73,0.074993,658022,553666
1326.23,0.075805,657870,552504
1329.6,0.077373,656482,549351
1332.97,0.078399,654926,546756
1336.33,0.079738,653727,544075
1339.69,0.081606,652497,540720
1343.04,0.083763,649913,535910
1346.39,0.086271,647671,530986
1349.73,0.088960,645338,525808
1354.18,0.092008,641175,518762
1357.52,0.094315,638376,513762
1360.85,0.097107,635805,508413
1364.17,0.099785,633413,503387
1367.49,0.102292,631026,498603
1370.81,0.104946,628050,493229
1374.12,0.107824,625034,487618
1378.54,0.111735,620272,479565
1381.84,0.115394,616892,472950
1385.14,0.119996,613613,465477
1388.43,0.125725,611526,457815
1391.72,0.132105,610663,450502
1395.01,0.137815,610634,444596
1398.29,0.143857,611700,439219
1402.66,0.152635,614051,432085
1405.93,0.159631,616268,426716
1409.2,0.166473,617795,421087
1412.46,0.172543,618872,415966
1415.72,0.177608,619795,411756
1418.98,0.182533,620495,407573
1422.23,0.186997,621087,403790
1426.56,0.191780,621375,399552
1429.8,0.194691,621616,397037
1433.04,0.197935,622129,394408
1436.27,0.200435,621526,391764
1439.5,0.203387,621113,388851
1442.72,0.205261,620921,387057
1445.94,0.207825,620270,384376
1450.23,0.211961,618860,379867
1453.44,0.214389,617697,377039
1456.64,0.216952,616264,373951
1459.85,0.220073,614413,370158
1463.04,0.222687,612307,366676
1466.24,0.225985,610032,362550
1469.43,0.228631,607345,358760
1473.67,0.234289,603789,352043
1476.85,0.239432,601175,346393
1480.02,0.244443,597737,340461
1483.19,0.250208,594479,334140
1486.36,0.255617,591232,328202
1489.52,0.261279,587853,322099
1492.68,0.264902,583875,317262
1496.89,0.267222,578062,312430
1500.03,0.268181,574159,309636
1503.18,0.269095,570285,306900
1506.32,0.268288,565444,304861
1509.45,0.266752,560571,303304
1512.58,0.265479,555821,301617
1515.71,0.263620,550344,299926
1519.87,0.260327,543983,298716
1522.99,0.257061,538764,298083
1526.1,0.254714,533692,296877
1529.21,0.251648,527902,295737
1532.32,0.248448,521886,294529
1535.42,0.245556,515888,293089
1538.51,0.241772,509987,292272
1541.6,0.238779,503936,290801
1545.72,0.233770,494694,288780
1548.8,0.230162,488378,287471
1551.88,0.227192,481832,285564
1554.95,0.225455,474989,282637
1558.02,0.223501,467818,279625
1561.08,0.221649,460730,276565
1564.15,0.220933,454170,273077
1568.22,0.219015,444181,268253
1571.27,0.218945,436947,263927
1574.32,0.218258,429598,259899
1577.36,0.216838,422039,256162
1580.4,0.214799,414375,252694
1583.43,0.213313,406354,248652
1586.46,0.210693,398475,245306
1590.49,0.208233,388982,240822
1593.51,0.206363,380708,236717
1596.53,0.203828,372727,233111
1599.54,0.201544,365060,229520
1602.55,0.199181,357543,226020
1605.55,0.197229,349495,221928
1608.55,0.193939,341154,218279
1612.54,0.192056,330877,212623
1615.53,0.189499,322904,208725
1618.51,0.188202,315116,204300
1621.49,0.186935,307217,199761
1624.47,0.185663,299481,195302
1627.44,0.183585,292112,191410
1630.41,0.181993,284245,186939
1634.36,0.180819,274079,180741
1637.32,0.178897,266916,176798
1640.27,0.179595,259612,171684
1643.22,0.176934,251804,167544
1646.16,0.176336,244348,162807
1649.1,0.177199,236703,157400
1652.04,0.174572,228171,152647
1655.95,0.173424,215408,144490
1658.88,0.172169,204937,137864
1661.8,0.171634,193395,130260
1664.72,0.168484,179728,121936
1667.63,0.166149,163642,111621
1670.54,0.161066,146312,100975
1673.44,0.157196,128451,89442
1677.31,0.153994,105080,73710
1680.21,0.154227,88906,62331
1683.1,0.160370,75033,51866
1685.99,0.161893,63520,43754
1688.87,0.172881,53714,36075
1691.75,0.170961,45653,30797
1694.62,0.176830,39137,26047
1697.49,0.180829,33776,22273
1701.31,0.175175,28175,18823

File: Column 1_050538_20150331_115409.csv
Method:,Column 1,,
Host Date-Time:,31/3/15 @ 11:54:9,,
Header Version:,1,,
System Temp (C):,31.91,,
Detector Temp (C):,30.25,,
Humidity (%):,3.36,,
Lamp PD:,3826,,
Shift Vector Coefficients:,-10.5391,0.0761263,-0.000134223,,
Pixel to Wavelength Coefficients:,1775.68,-0.916766,-0.000235065,,
Serial Number:,5510004,,
Scan Config Name:,Column 1,,
Scan Config Type:,Slew,,
Section 1,,
Start wavelength (nm):,900,,
End wavelength (nm):,1700,,
Pattern Pixel Width (nm):,   7.03,,,,
Exposure (ms):,  0.635,,,,
Digital Resolution:,228,,
Num Repeats:,6,,
PGA Gain:,64,,
Total Measurement Time in sec:,  2.730,,
Wavelength (nm),Absorbance (AU),Reference Signal (unitless),Sample Signal (unitless)
901.51,0.045009,108485,97805
905.376,0.049591,121306,108216
909.237,0.048893,131909,117864
913.095,0.050927,143299,127443
916.948,0.050666,156982,139696
922.079,0.050423,179937,160213
925.923,0.050237,200504,178602
929.762,0.052071,222660,197502
933.597,0.052096,244426,216796
937.427,0.052542,263972,233892
941.254,0.052802,281845,249579
945.076,0.052430,297271,263465
950.165,0.052705,315605,279537
953.978,0.052901,328029,290410
957.786,0.053508,340470,301003
961.59,0.054049,352317,311089
965.389,0.054204,363056,320457
969.185,0.054331,373162,329281
972.976,0.054804,382632,337270
976.763,0.055551,391202,344231
981.806,0.056306,400190,351528
985.583,0.057575,406088,355668
989.355,0.058050,410162,358844
993.124,0.058066,412868,361198
996.888,0.058839,414263,361774
1000.65,0.059726,415476,362093
1004.4,0.061100,415479,360952
1009.41,0.062032,414358,359206
1013.15,0.062283,412923,357755
1016.89,0.062961,411526,355989
1020.63,0.062833,409066,353965
1024.36,0.063151,406777,351727
1028.09,0.062606,404427,350134
1031.82,0.062241,401911,348248
1036.78,0.061219,398410,346028
1040.49,0.061382,396204,343983
1044.2,0.060676,394236,342831
1047.91,0.060242,392042,341264
1051.61,0.059036,389823,340276
1055.31,0.058658,388234,339184
1059,0.057576,387599,339474
1063.92,0.056530,386688,339493
1067.61,0.056066,386598,339777
1071.29,0.055353,387377,341021
1074.96,0.054475,388536,342733
1078.63,0.053710,389855,344503
1082.3,0.052850,391215,346390
1085.96,0.052345,393215,348566
1090.84,0.051419,396270,352024
1094.49,0.051386,398760,354263
1098.14,0.050618,400987,356872
1101.79,0.050085,403477,359529
1105.43,0.050323,406116,361682
1109.06,0.049749,407701,363574
1112.7,0.049817,409859,365441
1117.53,0.049824,412494,367785
1121.15,0.050307,414909,369527
1124.77,0.051307,416559,370143
1128.38,0.052762,418532,370652
1131.99,0.054297,419956,370601
1135.6,0.057034,421946,370018
1139.2,0.058960,423881,370070
1143.99,0.061270,426786,370630
1147.58,0.063301,428617,370483
1151.17,0.064352,431169,371788
1154.75,0.065205,433579,373133
1158.33,0.067434,436264,373521
1161.91,0.070149,439132,373634
1165.48,0.073200,442389,373770
1169.04,0.076501,446101,374052
1173.79,0.079942,451929,375948
1177.34,0.083010,456026,376686
1180.9,0.085239,461306,379097
1184.44,0.087153,467657,382626
1187.99,0.088306,473969,386762
1191.52,0.087468,479856,392322
1195.06,0.086949,487372,398944
1199.76,0.085276,497347,408680
1203.29,0.084375,504311,415263
1206.81,0.082828,511507,422692
1210.33,0.081956,519078,429810
1213.84,0.080823,527163,437645
1217.35,0.079660,534208,444683
1220.85,0.078022,540472,451597
1225.51,0.076966,549929,460618
1229.01,0.076580,556888,466861
1232.5,0.075707,562180,472246
1235.98,0.074879,567975,478025
1239.46,0.073941,574815,484827
1242.94,0.072741,582782,492907
1246.41,0.071755,591476,501398
1251.03,0.071166,604016,512722
1254.5,0.071359,612289,519514
1257.96,0.071528,619125,525110
1261.41,0.072152,624551,528951
1264.86,0.072793,629900,532695
1268.31,0.073388,634345,535720
1271.75,0.074297,638574,538163
1276.33,0.074534,642499,541176
1279.76,0.074228,645905,544428
1283.19,0.073964,648307,546785
1286.61,0.073603,650446,549045
1290.03,0.073356,652132,550782
1293.44,0.072509,653907,553359
1296.85,0.072457,655963,555165
1301.39,0.072288,657349,556555
1304.8,0.072250,657558,556781
1308.19,0.072752,658515,556947
1311.58,0.072756,658804,557186
1314.97,0.073394,659011,556543
1318.36,0.073873,658272,555306
1321.73,0.074316,658022,554529
1326.23,0.075375,657870,553051
1329.6,0.076934,656482,549906
1332.97,0.077850,654926,547447
1336.33,0.079312,653727,544609
1339.69,0.081070,652497,541388
1343.04,0.083245,649913,536550
1346.39,0.085971,647671,531353
1349.73,0.088015,645338,526954
1354.18,0.091884,641175,518911
1357.52,0.093660,638376,514537
1360.85,0.096558,635805,509056
1364.17,0.099100,633413,504182
1367.49,0.101762,631026,499212
1370.81,0.104389,628050,493861
1374.12,0.107075,625034,488460
1378.54,0.111109,620272,480256
1381.84,0.115281,616892,473073
1385.14,0.120002,613613,465471
1388.43,0.125109,611526,458465
1391.72,0.130745,610663,451915
1395.01,0.137186,610634,445241
1398.29,0.143299,611700,439784
1402.66,0.152286,614051,432433
1405.93,0.159148,616268,427191
1409.2,0.165708,617795,421829
1412.46,0.171872,618872,416609
1415.72,0.176914,619795,412415
1418.98,0.182222,620495,407865
1422.23,0.186716,621087,404051
1426.56,0.191088,621375,400190
1429.8,0.194661,621616,397065
1433.04,0.197668,622129,394650
1436.27,0.199616,621526,392503
1439.5,0.202291,621113,389834
1442.72,0.205257,620921,387061
1445.94,0.207742,620270,384449
1450.23,0.211327,618860,380422
1453.44,0.214000,617697,377377
1456.64,0.217358,616264,373602
1459.85,0.219608,614413,370555
1463.04,0.222295,612307,367007
1466.24,0.224694,610032,363629
1469.43,0.228293,607345,359040
1473.67,0.233348,603789,352807
1476.85,0.238405,601175,347213
1480.02,0.244162,597737,340681
1483.19,0.249499,594479,334686
1486.36,0.255388,591232,328375
1489.52,0.260664,587853,322556
1492.68,0.263949,583875,317959
1496.89,0.267247,578062,312412
1500.03,0.267848,574159,309873
1503.18,0.268668,570285,307202
1506.32,0.267751,565444,305238
1509.45,0.267083,560571,303073
1512.58,0.264904,555821,302017
1515.71,0.263166,550344,300240
1519.87,0.259815,543983,299068
1522.99,0.257704,538764,297642
1526.1,0.254445,533692,297061
1529.21,0.250932,527902,296225
1532.32,0.247690,521886,295043
1535.42,0.244245,515888,293975
1538.51,0.241136,509987,292700
1541.6,0.238156,503936,291219
1545.72,0.232745,494694,289462
1548.8,0.230212,488378,287438
1551.88,0.227026,481832,285673
1554.95,0.225092,474989,282873
1558.02,0.222683,467818,280152
1561.08,0.221923,460730,276391
1564.15,0.220469,454170,273369
1568.22,0.219938,444181,267684
1571.27,0.218231,436947,264361
1574.32,0.217780,429598,260185
1577.36,0.216089,422039,256604
1580.4,0.218409,414375,250602
1583.43,0.212740,406354,248980
1586.46,0.210236,398475,245564
1590.49,0.207523,388982,241216
1593.51,0.205939,380708,236948
1596.53,0.203147,372727,233477
1599.54,0.201680,365060,229448
1602.55,0.197861,357543,226708
1605.55,0.196291,349495,222408
1608.55,0.194231,341154,218132
1612.54,0.191444,330877,212923
1615.53,0.188667,322904,209125
1618.51,0.187756,315116,204510
1621.49,0.186404,307217,200005
1624.47,0.182823,299481,196583
1627.44,0.183294,292112,191538
1630.41,0.182383,284245,186771
1634.36,0.180531,274079,180861
1637.32,0.178897,266916,176798
1640.27,0.178289,259612,172201
1643.22,0.177759,251804,167226
1646.16,0.175824,244348,162999
1649.1,0.176229,236703,157752
1652.04,0.173543,228171,153009
1655.95,0.174020,215408,144292
1658.88,0.171200,204937,138172
1661.8,0.170755,193395,130524
1664.72,0.168897,179728,121820
1667.63,0.164022,163642,112169
1670.54,0.158925,146312,101474
1673.44,0.157016,128451,89479
1677.31,0.154312,105080,73656
1680.21,0.152357,88906,62600
1683.1,0.159391,75033,51983
1685.99,0.165911,63520,43351
1688.87,0.169966,53714,36318
1691.75,0.176282,45653,30422
1694.62,0.183145,39137,25671
1697.49,0.182255,33776,22200
1701.31,0.192930,28175,18069

File: Column 1_050538_20150331_115412.csv
Method:,Column 1,,
Host Date-Time:,31/3/15 @ 11:54:12,,
Header Version:,1,,
System Temp (C):,31.92,,
Detector Temp (C):,30.27,,
Humidity (%):,3.36,,
Lamp PD:,3826,,
Shift Vector Coefficients:,-10.5391,0.0761263,-0.000134223,,
Pixel to Wavelength Coefficients:,1775.68,-0.916766,-0.000235065,,
Serial Number:,5510004,,
Scan Config Name:,Column 1,,
Scan Config Type:,Slew,,
Section 1,,
Start wavelength (nm):,900,,
End wavelength (nm):,1700,,
Pattern Pixel Width (nm):,   7.03,,,,
Exposure (ms):,  0.635,,,,
Digital Resolution:,228,,
Num Repeats:,6,,
PGA Gain:,64,,
Total Measurement Time in sec:,  2.671,,
Wavelength (nm),Absorbance (AU),Reference Signal (unitless),Sample Signal (unitless)
901.51,0.043090,108485,98238
905.376,0.048437,121306,108504
909.237,0.050518,131909,117424
913.095,0.050634,143299,127529
916.948,0.050958,156982,139602
922.079,0.051229,179937,159916
925.923,0.050918,200504,178322
929.762,0.051337,222660,197836
933.597,0.052036,244426,216826
937.427,0.052778,263972,233765
941.254,0.053161,281845,249373
945.076,0.052288,297271,263551
950.165,0.053047,315605,279317
953.978,0.052514,328029,290669
957.786,0.052816,340470,301483
961.59,0.053545,352317,311450
965.389,0.054070,363056,320556
969.185,0.055000,373162,328774
972.976,0.055545,382632,336695
976.763,0.055939,391202,343924
981.806,0.056609,400190,351283
985.583,0.057398,406088,355813
989.355,0.057728,410162,359110
993.124,0.058027,412868,361230
996.888,0.058966,414263,361668
1000.65,0.059690,415476,362123
1004.4,0.060907,415479,361112
1009.41,0.062027,414358,359210
1013.15,0.062735,412923,357383
1016.89,0.063046,411526,355919
1020.63,0.063048,409066,353790
1024.36,0.062911,406777,351921
1028.09,0.062582,404427,350153
1031.82,0.061849,401911,348563
1036.78,0.061716,398410,345632
1040.49,0.061220,396204,344111
1044.2,0.060833,394236,342707
1047.91,0.060394,392042,341145
1051.61,0.059280,389823,340085
1055.31,0.058692,388234,339158
1059,0.058018,387599,339129
1063.92,0.056227,386688,339730
1067.61,0.055629,386598,340119
1071.29,0.055601,387377,340826
1074.96,0.054116,388536,343017
1078.63,0.053858,389855,344386
1082.3,0.052881,391215,346365
1085.96,0.052065,393215,348791
1090.84,0.051652,396270,351835
1094.49,0.050868,398760,354686
1098.14,0.050995,400987,356562
1101.79,0.050937,403477,358824
1105.43,0.051147,406116,360997
1109.06,0.050278,407701,363131
1112.7,0.049733,409859,365512
1117.53,0.049944,412494,367683
1121.15,0.051064,414909,368883
1124.77,0.051499,416559,369979
1128.38,0.053227,418532,370256
1131.99,0.054016,419956,370841
1135.6,0.056445,421946,370520
1139.2,0.058654,423881,370331
1143.99,0.061391,426786,370526
1147.58,0.062717,428617,370982
1151.17,0.064203,431169,371916
1154.75,0.065411,433579,372956
1158.33,0.067253,436264,373677
1161.91,0.069629,439132,374081
1165.48,0.073196,442389,373773
1169.04,0.075856,446101,374608
1173.79,0.080091,451929,375819
1177.34,0.082860,456026,376816
1180.9,0.085540,461306,378834
1184.44,0.087289,467657,382506
1187.99,0.088399,473969,386679
1191.52,0.088002,479856,391840
1195.06,0.087746,487372,398212
1199.76,0.085387,497347,408576
1203.29,0.083844,504311,415771
1206.81,0.082910,511507,422612
1210.33,0.082259,519078,429510
1213.84,0.080865,527163,437603
1217.35,0.079903,534208,444434
1220.85,0.078247,540472,451363
1225.51,0.077461,549929,460093
1229.01,0.076886,556888,466532
1232.5,0.076081,562180,471840
1235.98,0.075248,567975,477619
1239.46,0.073827,574815,484955
1242.94,0.072335,582782,493368
1246.41,0.071732,591476,501424
1251.03,0.071239,604016,512636
1254.5,0.071807,612289,518979
1257.96,0.072006,619125,524533
1261.41,0.072342,624551,528720
1264.86,0.073071,629900,532354
1268.31,0.073651,634345,535395
1271.75,0.074841,638574,537490
1276.33,0.074789,642499,540858
1279.76,0.074340,645905,544288
1283.19,0.073932,648307,546826
1286.61,0.073709,650446,548911
1290.03,0.073148,652132,551046
1293.44,0.072471,653907,553407
1296.85,0.072318,655963,555343
1301.39,0.072414,657349,556394
1304.8,0.072766,657558,556120
1308.19,0.072562,658515,557191
1311.58,0.073063,658804,556792
1314.97,0.073609,659011,556268
1318.36,0.074086,658272,555034
1321.73,0.074510,658022,554281
1326.23,0.075762,657870,552558
1329.6,0.077027,656482,549789
1332.97,0.077826,654926,547477
1336.33,0.079225,653727,544717
1339.69,0.081230,652497,541189
1343.04,0.083061,649913,536777
1346.39,0.086067,647671,531236
1349.73,0.087949,645338,527033
1354.18,0.091954,641175,518827
1357.52,0.094289,638376,513792
1360.85,0.096714,635805,508874
1364.17,0.099197,633413,504069
1367.49,0.101619,631026,499377
1370.81,0.104335,628050,493923
1374.12,0.107275,625034,488235
1378.54,0.111374,620272,479964
1381.84,0.115456,616892,472882
1385.14,0.119645,613613,465854
1388.43,0.125321,611526,458241
1391.72,0.130774,610663,451885
1395.01,0.136618,610634,445824
1398.29,0.143260,611700,439824
1402.66,0.152527,614051,432193
1405.93,0.159399,616268,426944
1409.2,0.165943,617795,421601
1412.46,0.171726,618872,416749
1415.72,0.177128,619795,412211
1418.98,0.181782,620495,408278
1422.23,0.186092,621087,404632
1426.56,0.191297,621375,399997
1429.8,0.194358,621616,397342
1433.04,0.197479,622129,394822
1436.27,0.199971,621526,392183
1439.5,0.201977,621113,390116
1442.72,0.204440,620921,387790
1445.94,0.206768,620270,385312
1450.23,0.211754,618860,380048
1453.44,0.213918,617697,377448
1456.64,0.216910,616264,373987
1459.85,0.219387,614413,370743
1463.04,0.222225,612307,367066
1466.24,0.224891,610032,363464
1469.43,0.227877,607345,359384
1473.67,0.233269,603789,352871
1476.85,0.237801,601175,347696
1480.02,0.243491,597737,341208
1483.19,0.249503,594479,334683
1486.36,0.255519,591232,328276
1489.52,0.260502,587853,322676
1492.68,0.263898,583875,317996
1496.89,0.266124,578062,313221
1500.03,0.268308,574159,309545
1503.18,0.267424,570285,308083
1506.32,0.267610,565444,305337
1509.45,0.266565,560571,303435
1512.58,0.265679,555821,301478
1515.71,0.262641,550344,300603
1519.87,0.259904,543983,299007
1522.99,0.257512,538764,297774
1526.1,0.254657,533692,296916
1529.21,0.251133,527902,296088
1532.32,0.247839,521886,294942
1535.42,0.244693,515888,293672
1538.51,0.241176,509987,292673
1541.6,0.237406,503936,291722
1545.72,0.232999,494694,289293
1548.8,0.229898,488378,287646
1551.88,0.227119,481832,285612
1554.95,0.225256,474989,282766
1558.02,0.223127,467818,279866
1561.08,0.221064,460730,276938
1564.15,0.221008,454170,273030
1568.22,0.219339,444181,268053
1571.27,0.218626,436947,264121
1574.32,0.216865,429598,260734
1577.36,0.216055,422039,256624
1580.4,0.214009,414375,253154
1583.43,0.212201,406354,249289
1586.46,0.210176,398475,245598
1590.49,0.207812,388982,241056
1593.51,0.205529,380708,237172
1596.53,0.202951,372727,233582
1599.54,0.200291,365060,230183
1602.55,0.198661,357543,226291
1605.55,0.195890,349495,222613
1608.55,0.193155,341154,218673
1612.54,0.191228,330877,213029
1615.53,0.188622,322904,209147
1618.51,0.187862,315116,204460
1621.49,0.186493,307217,199964
1624.47,0.184355,299481,195891
1627.44,0.182959,292112,191686
1630.41,0.181654,284245,187085
1634.36,0.180639,274079,180816
1637.32,0.178792,266916,176841
1640.27,0.177533,259612,172501
1643.22,0.176641,251804,167657
1646.16,0.176488,244348,162750
1649.1,0.175335,236703,158077
1652.04,0.174475,228171,152681
1655.95,0.172175,215408,144906
1658.88,0.169961,204937,138567
1661.8,0.169894,193395,130783
1664.72,0.166785,179728,122414
1667.63,0.164084,163642,112153
1670.54,0.159649,146312,101305
1673.44,0.157589,128451,89361
1677.31,0.152206,105080,74014
1680.21,0.151788,88906,62682
1683.1,0.158331,75033,52110
1685.99,0.162081,63520,43735
1688.87,0.164984,53714,36737
1691.75,0.167982,45653,31009
1694.62,0.174220,39137,26204
1697.49,0.177160,33776,22462
1701.31,0.185637,28175,18375