Folder: textile_sorting_NIRSCAN_/samples/wool/wool-000811 (part 40)

File: Column 1_050552_20150331_120102.csv
Method:,Column 1,,
Host Date-Time:,31/3/15 @ 12:1:2,,
Header Version:,1,,
System Temp (C):,33.36,,
Detector Temp (C):,32.32,,
Humidity (%):,2.83,,
Lamp PD:,3820,,
Shift Vector Coefficients:,-10.5391,0.0761263,-0.000134223,,
Pixel to Wavelength Coefficients:,1775.68,-0.916766,-0.000235065,,
Serial Number:,5510004,,
Scan Config Name:,Column 1,,
Scan Config Type:,Slew,,
Section 1,,
Start wavelength (nm):,900,,
End wavelength (nm):,1700,,
Pattern Pixel Width (nm):,   7.03,,,,
Exposure (ms):,  0.635,,,,
Digital Resolution:,228,,
Num Repeats:,6,,
PGA Gain:,64,,
Total Measurement Time in sec:,  2.726,,
Wavelength (nm),Absorbance (AU),Reference Signal (unitless),Sample Signal (unitless)
901.51,0.033999,108485,100316
905.376,0.039817,121306,110679
909.237,0.041129,131909,119990
913.095,0.041602,143299,130209
916.948,0.042740,156982,142269
922.079,0.043034,179937,162962
925.923,0.044656,200504,180912
929.762,0.045543,222660,200493
933.597,0.046246,244426,219736
937.427,0.046507,263972,237165
941.254,0.046192,281845,253407
945.076,0.045444,297271,267737
950.165,0.045249,315605,284377
953.978,0.044491,328029,296088
957.786,0.045583,340470,306546
961.59,0.046046,352317,316875
965.389,0.046771,363056,325989
969.185,0.046259,373162,335458
972.976,0.046625,382632,343682
976.763,0.047825,391202,350410
981.806,0.047880,400190,358415
985.583,0.049085,406088,362690
989.355,0.049681,410162,365826
993.124,0.050140,412868,367850
996.888,0.050450,414263,368830
1000.65,0.051057,415476,369393
1004.4,0.053054,415479,367701
1009.41,0.053742,414358,366129
1013.15,0.054391,412923,364316
1016.89,0.054592,411526,362915
1020.63,0.054585,409066,360752
1024.36,0.054803,406777,358553
1028.09,0.054513,404427,356720
1031.82,0.054227,401911,354734
1036.78,0.053554,398410,352189
1040.49,0.053331,396204,350419
1044.2,0.052731,394236,349161
1047.91,0.052345,392042,347526
1051.61,0.052320,389823,345579
1055.31,0.051410,388234,344892
1059,0.051088,387599,344584
1063.92,0.050316,386688,344385
1067.61,0.049302,386598,345110
1071.29,0.048699,387377,346286
1074.96,0.048500,388536,347481
1078.63,0.047825,389855,349203
1082.3,0.047240,391215,350894
1085.96,0.046271,393215,353475
1090.84,0.045767,396270,356635
1094.49,0.045361,398760,359212
1098.14,0.045528,400987,361079
1101.79,0.044573,403477,364121
1105.43,0.044712,406116,366385
1109.06,0.044345,407701,368126
1112.7,0.043974,409859,370391
1117.53,0.044214,412494,372566
1121.15,0.045424,414909,373705
1124.77,0.045737,416559,374921
1128.38,0.046523,418532,376015
1131.99,0.048603,419956,375492
1135.6,0.050363,421946,375746
1139.2,0.052258,423881,375825
1143.99,0.055155,426786,375885
1147.58,0.055460,428617,377233
1151.17,0.056792,431169,378317
1154.75,0.058098,433579,379289
1158.33,0.060038,436264,379937
1161.91,0.062509,439132,380265
1165.48,0.064821,442389,381051
1169.04,0.067170,446101,382176
1173.79,0.071316,451929,383490
1177.34,0.073144,456026,385341
1180.9,0.075367,461306,387813
1184.44,0.077073,467657,391611
1187.99,0.078184,473969,395882
1191.52,0.077769,479856,401182
1195.06,0.078061,487372,407192
1199.76,0.076997,497347,416546
1203.29,0.075735,504311,423607
1206.81,0.074885,511507,430493
1210.33,0.074448,519078,437305
1213.84,0.073490,527163,445097
1217.35,0.073020,534208,451534
1220.85,0.071932,540472,457974
1225.51,0.071213,549929,466760
1229.01,0.070444,556888,473504
1232.5,0.069985,562180,478509
1235.98,0.069461,567975,484025
1239.46,0.068537,574815,490898
1242.94,0.067034,582782,499427
1246.41,0.066751,591476,507208
1251.03,0.066226,604016,518588
1254.5,0.066322,612289,525575
1257.96,0.066878,619125,530763
1261.41,0.067444,624551,534717
1264.86,0.068160,629900,538408
1268.31,0.068867,634345,541325
1271.75,0.069594,638574,544023
1276.33,0.069734,642499,547190
1279.76,0.069629,645905,550224
1283.19,0.069322,648307,552661
1286.61,0.068822,650446,555123
1290.03,0.068685,652132,556737
1293.44,0.068102,653907,559003
1296.85,0.067912,655963,561006
1301.39,0.067494,657349,562733
1304.8,0.068057,657558,562182
1308.19,0.068061,658515,562995
1311.58,0.068337,658804,562885
1314.97,0.068833,659011,562419
1318.36,0.069518,658272,560902
1321.73,0.069910,658022,560183
1326.23,0.070836,657870,558862
1329.6,0.072157,656482,555989
1332.97,0.072892,654926,553733
1336.33,0.074255,653727,550987
1339.69,0.076127,652497,547585
1343.04,0.077435,649913,543776
1346.39,0.079894,647671,538841
1349.73,0.082786,645338,533336
1354.18,0.085699,641175,526354
1357.52,0.088027,638376,521254
1360.85,0.090166,635805,516604
1364.17,0.092381,633413,512042
1367.49,0.095038,631026,507002
1370.81,0.097247,628050,502050
1374.12,0.099910,625034,496585
1378.54,0.103569,620272,488667
1381.84,0.107611,616892,481502
1385.14,0.111174,613613,475029
1388.43,0.116400,611526,467751
1391.72,0.121611,610663,461520
1395.01,0.126479,610634,456354
1398.29,0.132490,611700,450867
1402.66,0.140735,614051,444088
1405.93,0.147275,616268,439030
1409.2,0.153410,617795,433945
1412.46,0.158921,618872,429220
1415.72,0.163749,619795,425108
1418.98,0.168501,620495,420957
1422.23,0.172581,621087,417418
1426.56,0.177701,621375,412717
1429.8,0.180284,621616,410429
1433.04,0.183155,622129,408061
1436.27,0.185734,621526,405252
1439.5,0.187772,621113,403087
1442.72,0.190979,620921,399998
1445.94,0.193016,620270,397708
1450.23,0.196349,618860,393771
1453.44,0.199172,617697,390484
1456.64,0.201972,616264,387075
1459.85,0.205555,614413,382741
1463.04,0.207380,612307,379830
1466.24,0.210636,610032,375592
1469.43,0.214010,607345,371044
1473.67,0.219758,603789,364022
1476.85,0.224449,601175,358552
1480.02,0.229685,597737,352229
1483.19,0.235817,594479,345398
1486.36,0.241087,591232,339368
1489.52,0.246047,587853,333597
1492.68,0.249028,583875,329073
1496.89,0.251295,578062,324100
1500.03,0.252698,574159,320874
1503.18,0.252055,570285,319181
1506.32,0.251694,565444,316735
1509.45,0.250470,560571,314891
1512.58,0.249141,555821,313180
1515.71,0.246233,550344,312177
1519.87,0.243157,543983,310762
1522.99,0.239995,538764,310030
1526.1,0.237553,533692,308843
1529.21,0.234676,527902,307523
1532.32,0.231795,521886,306042
1535.42,0.228649,515888,304724
1538.51,0.225501,509987,303430
1541.6,0.223278,503936,301368
1545.72,0.218644,494694,299015
1548.8,0.215401,488378,297410
1551.88,0.213247,481832,294882
1554.95,0.210323,474989,292658
1558.02,0.209163,467818,289011
1561.08,0.207548,460730,285692
1564.15,0.206006,454170,282626
1568.22,0.205210,444181,276917
1571.27,0.204078,436947,273118
1574.32,0.202178,429598,269702
1577.36,0.201430,422039,265413
1580.4,0.200184,414375,261342
1583.43,0.198708,406354,257156
1586.46,0.196349,398475,253543
1590.49,0.194715,388982,248436
1593.51,0.192793,380708,244230
1596.53,0.190868,372727,240172
1599.54,0.188267,365060,236645
1602.55,0.185883,357543,233048
1605.55,0.183991,349495,228797
1608.55,0.181123,341154,224816
1612.54,0.178668,330877,219280
1615.53,0.176813,322904,214912
1618.51,0.175062,315116,210576
1621.49,0.174302,307217,205657
1624.47,0.172612,299481,201260
1627.44,0.172361,292112,196421
1630.41,0.170622,284245,191898
1634.36,0.169101,274079,185684
1637.32,0.168531,266916,181069
1640.27,0.167698,259612,176452
1643.22,0.166558,251804,171595
1646.16,0.165800,244348,166805
1649.1,0.164131,236703,162208
1652.04,0.163405,228171,156623
1655.95,0.161673,215408,148453
1658.88,0.158874,204937,142150
1661.8,0.154740,193395,135427
1664.72,0.149467,179728,127394
1667.63,0.142433,163642,117886
1670.54,0.133750,146312,107530
1673.44,0.122786,128451,96817
1677.31,0.110837,105080,81411
1680.21,0.106072,88906,69640
1683.1,0.106969,75033,58652
1685.99,0.108367,63520,49493
1688.87,0.112678,53714,41439
1691.75,0.122179,45653,34458
1694.62,0.125261,39137,29331
1697.49,0.125247,33776,25314
1701.31,0.135638,28175,20617

File: Column 1_050553_20150331_120108.csv
Method:,Column 1,,
Host Date-Time:,31/3/15 @ 12:1:8,,
Header Version:,1,,
System Temp (C):,33.37,,
Detector Temp (C):,32.35,,
Humidity (%):,2.74,,
Lamp PD:,3820,,
Shift Vector Coefficients:,-10.5391,0.0761263,-0.000134223,,
Pixel to Wavelength Coefficients:,1775.68,-0.916766,-0.000235065,,
Serial Number:,5510004,,
Scan Config Name:,Column 1,,
Scan Config Type:,Slew,,
Section 1,,
Start wavelength (nm):,900,,
End wavelength (nm):,1700,,
Pattern Pixel Width (nm):,   7.03,,,,
Exposure (ms):,  0.635,,,,
Digital Resolution:,228,,
Num Repeats:,6,,
PGA Gain:,64,,
Total Measurement Time in sec:,  2.725,,
Wavelength (nm),Absorbance (AU),Reference Signal (unitless),Sample Signal (unitless)
901.51,0.034056,108485,100303
905.376,0.038524,121306,111009
909.237,0.041448,131909,119902
913.095,0.041906,143299,130118
916.948,0.040964,156982,142852
922.079,0.043237,179937,162886
925.923,0.044889,200504,180815
929.762,0.046558,222660,200025
933.597,0.046159,244426,219780
937.427,0.045783,263972,237561
941.254,0.046692,281845,253115
945.076,0.045679,297271,267592
950.165,0.044814,315605,284662
953.978,0.045394,328029,295473
957.786,0.045400,340470,306675
961.59,0.045851,352317,317017
965.389,0.046301,363056,326342
969.185,0.046490,373162,335280
972.976,0.046777,382632,343561
976.763,0.047467,391202,350699
981.806,0.048626,400190,357800
985.583,0.048810,406088,362919
989.355,0.049056,410162,366353
993.124,0.049685,412868,368236
996.888,0.050761,414263,368566
1000.65,0.051355,415476,369140
1004.4,0.052178,415479,368444
1009.41,0.053893,414358,366001
1013.15,0.054869,412923,363915
1016.89,0.055125,411526,362470
1020.63,0.054830,409066,360548
1024.36,0.054548,406777,358764
1028.09,0.054473,404427,356753
1031.82,0.053954,401911,354957
1036.78,0.053894,398410,351914
1040.49,0.053943,396204,349926
1044.2,0.053227,394236,348762
1047.91,0.052653,392042,347280
1051.61,0.052598,389823,345358
1055.31,0.051482,388234,344835
1059,0.050980,387599,344669
1063.92,0.050120,386688,344541
1067.61,0.050062,386598,344507
1071.29,0.048965,387377,346074
1074.96,0.048378,388536,347579
1078.63,0.047630,389855,349360
1082.3,0.046758,391215,351283
1085.96,0.046321,393215,353435
1090.84,0.045687,396270,356701
1094.49,0.045368,398760,359206
1098.14,0.045157,400987,361388
1101.79,0.045093,403477,363685
1105.43,0.045109,406116,366051
1109.06,0.044187,407701,368260
1112.7,0.043754,409859,370579
1117.53,0.045234,412494,371692
1121.15,0.045120,414909,373967
1124.77,0.045663,416559,374985
1128.38,0.047193,418532,375436
1131.99,0.048287,419956,375765
1135.6,0.049537,421946,376461
1139.2,0.052047,423881,376008
1143.99,0.054925,426786,376084
1147.58,0.055693,428617,377030
1151.17,0.057364,431169,377819
1154.75,0.058444,433579,378987
1158.33,0.059660,436264,380268
1161.91,0.062181,439132,380552
1165.48,0.064697,442389,381160
1169.04,0.067164,446101,382181
1173.79,0.071090,451929,383690
1177.34,0.073280,456026,385221
1180.9,0.075795,461306,387431
1184.44,0.077543,467657,391187
1187.99,0.077997,473969,396053
1191.52,0.078149,479856,400832
1195.06,0.078171,487372,407089
1199.76,0.076935,497347,416605
1203.29,0.075401,504311,423933
1206.81,0.075227,511507,430155
1210.33,0.074417,519078,437336
1213.84,0.073343,527163,445248
1217.35,0.073135,534208,451414
1220.85,0.071712,540472,458206
1225.51,0.071062,549929,466922
1229.01,0.070482,556888,473463
1232.5,0.069597,562180,478937
1235.98,0.069254,567975,484256
1239.46,0.068143,574815,491343
1242.94,0.067097,582782,499355
1246.41,0.066549,591476,507444
1251.03,0.066451,604016,518319
1254.5,0.066691,612289,525128
1257.96,0.067026,619125,530582
1261.41,0.067605,624551,534519
1264.86,0.068572,629900,537897
1268.31,0.068647,634345,541600
1271.75,0.069504,638574,544136
1276.33,0.069864,642499,547026
1279.76,0.069363,645905,550561
1283.19,0.069228,648307,552781
1286.61,0.068716,650446,555258
1290.03,0.068832,652132,556549
1293.44,0.068339,653907,558698
1296.85,0.067949,655963,560958
1301.39,0.067623,657349,562565
1304.8,0.067499,657558,562905
1308.19,0.068007,658515,563065
1311.58,0.068477,658804,562703
1314.97,0.069069,659011,562113
1318.36,0.069667,658272,560710
1321.73,0.069658,658022,560509
1326.23,0.070891,657870,558791
1329.6,0.071678,656482,556602
1332.97,0.073235,654926,553296
1336.33,0.074242,653727,551003
1339.69,0.075891,652497,547882
1343.04,0.077781,649913,543343
1346.39,0.080337,647671,538291
1349.73,0.082840,645338,533270
1354.18,0.085563,641175,526519
1357.52,0.087858,638376,521457
1360.85,0.089954,635805,516856
1364.17,0.092315,633413,512120
1367.49,0.094960,631026,507093
1370.81,0.097235,628050,502064
1374.12,0.099910,625034,496585
1378.54,0.103581,620272,488654
1381.84,0.107385,616892,481753
1385.14,0.111146,613613,475060
1388.43,0.116188,611526,467980
1391.72,0.121591,610663,461541
1395.01,0.126986,610634,455822
1398.29,0.132617,611700,450735
1402.66,0.140797,614051,444025
1405.93,0.146987,616268,439322
1409.2,0.152975,617795,434380
1412.46,0.158452,618872,429684
1415.72,0.164163,619795,424703
1418.98,0.168291,620495,421160
1422.23,0.172381,621087,417611
1426.56,0.176739,621375,413633
1429.8,0.180333,621616,410383
1433.04,0.182912,622129,408290
1436.27,0.185370,621526,405592
1439.5,0.187503,621113,403337
1442.72,0.190155,620921,400757
1445.94,0.192738,620270,397963
1450.23,0.196452,618860,393677
1453.44,0.199177,617697,390480
1456.64,0.201744,616264,387278
1459.85,0.205124,614413,383121
1463.04,0.207730,612307,379524
1466.24,0.210489,610032,375719
1469.43,0.213657,607345,371346
1473.67,0.218702,603789,364908
1476.85,0.224170,601175,358782
1480.02,0.229369,597737,352485
1483.19,0.236087,594479,345183
1486.36,0.241079,591232,339374
1489.52,0.246258,587853,333435
1492.68,0.249757,583875,328521
1496.89,0.251451,578062,323984
1500.03,0.252257,574159,321200
1503.18,0.252545,570285,318821
1506.32,0.251040,565444,317212
1509.45,0.250297,560571,315017
1512.58,0.248564,555821,313596
1515.71,0.245912,550344,312408
1519.87,0.243074,543983,310822
1522.99,0.239922,538764,310082
1526.1,0.237376,533692,308969
1529.21,0.234741,527902,307477
1532.32,0.232027,521886,305878
1535.42,0.228602,515888,304757
1538.51,0.225021,509987,303765
1541.6,0.222691,503936,301776
1545.72,0.217731,494694,299644
1548.8,0.214519,488378,298014
1551.88,0.212476,481832,295406
1554.95,0.209902,474989,292942
1558.02,0.208238,467818,289627
1561.08,0.206608,460730,286311
1564.15,0.206375,454170,282386
1568.22,0.205176,444181,276939
1571.27,0.204032,436947,273147
1574.32,0.203045,429598,269164
1577.36,0.201424,422039,265417
1580.4,0.200223,414375,261319
1583.43,0.198269,406354,257416
1586.46,0.196675,398475,253353
1590.49,0.194076,388982,248802
1593.51,0.191855,380708,244758
1596.53,0.189687,372727,240826
1599.54,0.188052,365060,236762
1602.55,0.186019,357543,232975
1605.55,0.182984,349495,229328
1608.55,0.181438,341154,224653
1612.54,0.179635,330877,218792
1615.53,0.176805,322904,214916
1618.51,0.175427,315116,210399
1621.49,0.173761,307217,205913
1624.47,0.173281,299481,200950
1627.44,0.171341,292112,196883
1630.41,0.169854,284245,192238
1634.36,0.168627,274079,185887
1637.32,0.167438,266916,181525
1640.27,0.167563,259612,176507
1643.22,0.166381,251804,171665
1646.16,0.166735,244348,166446
1649.1,0.163944,236703,162278
1652.04,0.163535,228171,156576
1655.95,0.161053,215408,148665
1658.88,0.159204,204937,142042
1661.8,0.155848,193395,135082
1664.72,0.149753,179728,127310
1667.63,0.142116,163642,117972
1670.54,0.132263,146312,107899
1673.44,0.124381,128451,96462
1677.31,0.111574,105080,81273
1680.21,0.107409,88906,69426
1683.1,0.104209,75033,59026
1685.99,0.105803,63520,49786
1688.87,0.114948,53714,41223
1691.75,0.120531,45653,34589
1694.62,0.122942,39137,29488
1697.49,0.126570,33776,25237
1701.31,0.137200,28175,20543

File: Column 1_050553_20150331_120111.csv
Method:,Column 1,,
Host Date-Time:,31/3/15 @ 12:1:11,,
Header Version:,1,,
System Temp (C):,33.36,,
Detector Temp (C):,32.4,,
Humidity (%):,2.69,,
Lamp PD:,3820,,
Shift Vector Coefficients:,-10.5391,0.0761263,-0.000134223,,
Pixel to Wavelength Coefficients:,1775.68,-0.916766,-0.000235065,,
Serial Number:,5510004,,
Scan Config Name:,Column 1,,
Scan Config Type:,Slew,,
Section 1,,
Start wavelength (nm):,900,,
End wavelength (nm):,1700,,
Pattern Pixel Width (nm):,   7.03,,,,
Exposure (ms):,  0.635,,,,
Digital Resolution:,228,,
Num Repeats:,6,,
PGA Gain:,64,,
Total Measurement Time in sec:,  2.680,,
Wavelength (nm),Absorbance (AU),Reference Signal (unitless),Sample Signal (unitless)
901.51,0.032884,108485,100574
905.376,0.040434,121306,110522
909.237,0.039908,131909,120328
913.095,0.042343,143299,129987
916.948,0.042297,156982,142414
922.079,0.043754,179937,162692
925.923,0.045052,200504,180747
929.762,0.046352,222660,200120
933.597,0.046495,244426,219610
937.427,0.045909,263972,237492
941.254,0.046818,281845,253042
945.076,0.045449,297271,267734
950.165,0.045176,315605,284425
953.978,0.044830,328029,295857
957.786,0.045054,340470,306920
961.59,0.046340,352317,316660
965.389,0.046279,363056,326358
969.185,0.046121,373162,335565
972.976,0.047150,382632,343266
976.763,0.047256,391202,350869
981.806,0.047949,400190,358358
985.583,0.048955,406088,362798
989.355,0.049832,410162,365699
993.124,0.050418,412868,367615
996.888,0.050803,414263,368530
1000.65,0.051646,415476,368893
1004.4,0.052681,415479,368017
1009.41,0.054147,414358,365787
1013.15,0.053696,412923,364899
1016.89,0.054749,411526,362784
1020.63,0.054756,409066,360610
1024.36,0.054426,406777,358864
1028.09,0.054128,404427,357036
1031.82,0.054467,401911,354538
1036.78,0.053773,398410,352012
1040.49,0.053398,396204,350365
1044.2,0.053272,394236,348726
1047.91,0.053011,392042,346994
1051.61,0.052281,389823,345610
1055.31,0.051633,388234,344715
1059,0.050865,387599,344761
1063.92,0.050079,386688,344573
1067.61,0.049401,386598,345031
1071.29,0.049208,387377,345880
1074.96,0.048418,388536,347547
1078.63,0.047821,389855,349206
1082.3,0.047713,391215,350512
1085.96,0.046399,393215,353371
1090.84,0.045272,396270,357042
1094.49,0.045877,398760,358785
1098.14,0.045392,400987,361192
1101.79,0.044898,403477,363849
1105.43,0.044613,406116,366469
1109.06,0.043992,407701,368426
1112.7,0.044021,409859,370351
1117.53,0.044897,412494,371981
1121.15,0.045180,414909,373915
1124.77,0.045403,416559,375209
1128.38,0.047030,418532,375577
1131.99,0.048467,419956,375610
1135.6,0.050807,421946,375362
1139.2,0.052019,423881,376032
1143.99,0.054597,426786,376368
1147.58,0.055398,428617,377287
1151.17,0.057022,431169,378116
1154.75,0.058021,433579,379356
1158.33,0.059596,436264,380324
1161.91,0.061590,439132,381070
1165.48,0.064879,442389,381000
1169.04,0.066966,446101,382355
1173.79,0.071177,451929,383613
1177.34,0.073493,456026,385032
1180.9,0.075253,461306,387915
1184.44,0.077055,467657,391627
1187.99,0.078079,473969,395978
1191.52,0.077844,479856,401113
1195.06,0.077609,487372,407616
1199.76,0.076317,497347,417198
1203.29,0.076131,504311,423221
1206.81,0.074909,511507,430470
1210.33,0.074223,519078,437532
1213.84,0.073583,527163,445002
1217.35,0.072501,534208,452074
1220.85,0.071711,540472,458208
1225.51,0.070953,549929,467040
1229.01,0.070612,556888,473321
1232.5,0.069538,562180,479002
1235.98,0.069198,567975,484319
1239.46,0.068161,574815,491323
1242.94,0.066900,582782,499581
1246.41,0.066570,591476,507419
1251.03,0.066388,604016,518395
1254.5,0.066405,612289,525474
1257.96,0.066930,619125,530699
1261.41,0.067142,624551,535089
1264.86,0.068222,629900,538331
1268.31,0.068584,634345,541679
1271.75,0.069595,638574,544022
1276.33,0.069741,642499,547182
1279.76,0.069705,645905,550128
1283.19,0.069282,648307,552712
1286.61,0.068749,650446,555216
1290.03,0.068193,652132,557369
1293.44,0.067777,653907,559421
1296.85,0.067816,655963,561130
1301.39,0.067985,657349,562097
1304.8,0.067666,657558,562688
1308.19,0.067989,658515,563088
1311.58,0.067841,658804,563527
1314.97,0.068970,659011,562241
1318.36,0.069479,658272,560953
1321.73,0.069643,658022,560528
1326.23,0.071011,657870,558636
1329.6,0.071649,656482,556639
1332.97,0.073040,654926,553544
1336.33,0.074126,653727,551151
1339.69,0.075783,652497,548019
1343.04,0.077748,649913,543385
1346.39,0.080239,647671,538413
1349.73,0.082245,645338,534001
1354.18,0.085473,641175,526628
1357.52,0.087835,638376,521485
1360.85,0.090320,635805,516421
1364.17,0.092325,633413,512108
1367.49,0.094716,631026,507378
1370.81,0.097241,628050,502057
1374.12,0.099732,625034,496789
1378.54,0.103673,620272,488550
1381.84,0.106875,616892,482319
1385.14,0.111237,613613,474961
1388.43,0.116054,611526,468124
1391.72,0.121819,610663,461299
1395.01,0.126967,610634,455842
1398.29,0.132469,611700,450889
1402.66,0.140527,614051,444301
1405.93,0.147156,616268,439151
1409.2,0.152819,617795,434536
1412.46,0.158641,618872,429497
1415.72,0.163838,619795,425021
1418.98,0.167869,620495,421570
1422.23,0.172309,621087,417680
1426.56,0.176405,621375,413951
1429.8,0.179942,621616,410752
1433.04,0.183263,622129,407960
1436.27,0.185448,621526,405519
1439.5,0.187456,621113,403380
1442.72,0.189983,620921,400916
1445.94,0.193121,620270,397612
1450.23,0.196256,618860,393855
1453.44,0.198743,617697,390870
1456.64,0.202096,616264,386964
1459.85,0.205021,614413,383212
1463.04,0.207149,612307,380032
1466.24,0.210302,610032,375881
1469.43,0.213831,607345,371197
1473.67,0.218995,603789,364662
1476.85,0.223672,601175,359194
1480.02,0.228706,597737,353024
1483.19,0.235636,594479,345542
1486.36,0.241442,591232,339091
1489.52,0.245620,587853,333925
1492.68,0.248772,583875,329267
1496.89,0.250982,578062,324334
1500.03,0.252280,574159,321183
1503.18,0.251537,570285,319562
1506.32,0.251076,565444,317186
1509.45,0.250721,560571,314709
1512.58,0.248243,555821,313828
1515.71,0.245891,550344,312423
1519.87,0.242699,543983,311090
1522.99,0.240110,538764,309948
1526.1,0.237432,533692,308929
1529.21,0.234677,527902,307522
1532.32,0.232008,521886,305892
1535.42,0.228940,515888,304520
1538.51,0.225036,509987,303755
1541.6,0.221739,503936,302438
1545.72,0.218377,494694,299199
1548.8,0.215266,488378,297502
1551.88,0.212600,481832,295322
1554.95,0.209743,474989,293049
1558.02,0.207734,467818,289963
1561.08,0.206393,460730,286453
1564.15,0.206155,454170,282529
1568.22,0.204475,444181,277386
1571.27,0.203137,436947,273711
1574.32,0.203412,429598,268937
1577.36,0.201301,422039,265492
1580.4,0.199786,414375,261582
1583.43,0.198488,406354,257286
1586.46,0.196106,398475,253685
1590.49,0.194565,388982,248522
1593.51,0.192406,380708,244448
1596.53,0.189642,372727,240851
1599.54,0.188140,365060,236714
1602.55,0.185652,357543,233172
1605.55,0.182770,349495,229441
1608.55,0.180421,341154,225180
1612.54,0.179774,330877,218722
1615.53,0.176643,322904,214996
1618.51,0.176305,315116,209974
1621.49,0.174521,307217,205553
1624.47,0.173143,299481,201014
1627.44,0.171606,292112,196763
1630.41,0.170584,284245,191915
1634.36,0.168737,274079,185840
1637.32,0.167668,266916,181429
1640.27,0.167568,259612,176505
1643.22,0.166512,251804,171613
1646.16,0.165542,244348,166904
1649.1,0.165623,236703,161652
1652.04,0.163009,228171,156766
1655.95,0.161562,215408,148491
1658.88,0.158696,204937,142208
1661.8,0.154913,193395,135373
1664.72,0.150357,179728,127133
1667.63,0.142267,163642,117931
1670.54,0.132444,146312,107854
1673.44,0.123024,128451,96764
1677.31,0.112928,105080,81020
1680.21,0.106091,88906,69637
1683.1,0.103430,75033,59132
1685.99,0.109412,63520,49374
1688.87,0.113549,53714,41356
1691.75,0.118340,45653,34764
1694.62,0.121149,39137,29610
1697.49,0.128018,33776,25153
1701.31,0.132281,28175,20777