Folder: textile_sorting_NIRSCAN_/samples/wool/wool-000811 (part 51)

File: Column 1_050558_20150331_120353.csv
Method:,Column 1,,
Host Date-Time:,31/3/15 @ 12:3:53,,
Header Version:,1,,
System Temp (C):,33.61,,
Detector Temp (C):,33.01,,
Humidity (%):,2.25,,
Lamp PD:,3819,,
Shift Vector Coefficients:,-10.5391,0.0761263,-0.000134223,,
Pixel to Wavelength Coefficients:,1775.68,-0.916766,-0.000235065,,
Serial Number:,5510004,,
Scan Config Name:,Column 1,,
Scan Config Type:,Slew,,
Section 1,,
Start wavelength (nm):,900,,
End wavelength (nm):,1700,,
Pattern Pixel Width (nm):,   7.03,,,,
Exposure (ms):,  0.635,,,,
Digital Resolution:,228,,
Num Repeats:,6,,
PGA Gain:,64,,
Total Measurement Time in sec:,  2.726,,
Wavelength (nm),Absorbance (AU),Reference Signal (unitless),Sample Signal (unitless)
901.51,0.033415,108485,100451
905.376,0.039950,121306,110645
909.237,0.042264,131909,119677
913.095,0.043678,143299,129588
916.948,0.043476,156982,142028
922.079,0.044508,179937,162410
925.923,0.045935,200504,180380
929.762,0.047195,222660,199732
933.597,0.046691,244426,219511
937.427,0.046778,263972,237017
941.254,0.046584,281845,253178
945.076,0.046275,297271,267225
950.165,0.045625,315605,284131
953.978,0.044827,328029,295859
957.786,0.046291,340470,306047
961.59,0.045636,352317,317174
965.389,0.046105,363056,326489
969.185,0.046419,373162,335335
972.976,0.047383,382632,343082
976.763,0.047649,391202,350552
981.806,0.047709,400190,358556
985.583,0.048428,406088,363239
989.355,0.049185,410162,366244
993.124,0.050113,412868,367873
996.888,0.050119,414263,369111
1000.65,0.051291,415476,369194
1004.4,0.052730,415479,367976
1009.41,0.054090,414358,365835
1013.15,0.054051,412923,364601
1016.89,0.054936,411526,362628
1020.63,0.054629,409066,360715
1024.36,0.055028,406777,358367
1028.09,0.054206,404427,356972
1031.82,0.054265,401911,354703
1036.78,0.054146,398410,351710
1040.49,0.053244,396204,350489
1044.2,0.052768,394236,349131
1047.91,0.053111,392042,346914
1051.61,0.051844,389823,345958
1055.31,0.051948,388234,344465
1059,0.050848,387599,344774
1063.92,0.050643,386688,344126
1067.61,0.049652,386598,344832
1071.29,0.049303,387377,345805
1074.96,0.048272,388536,347664
1078.63,0.047702,389855,349302
1082.3,0.046215,391215,351723
1085.96,0.046937,393215,352934
1090.84,0.045701,396270,356689
1094.49,0.045704,398760,358928
1098.14,0.045221,400987,361334
1101.79,0.044138,403477,364486
1105.43,0.044606,406116,366475
1109.06,0.044192,407701,368256
1112.7,0.043962,409859,370401
1117.53,0.043811,412494,372912
1121.15,0.045038,414909,374037
1124.77,0.045700,416559,374953
1128.38,0.046782,418532,375791
1131.99,0.047919,419956,376084
1135.6,0.050194,421946,375892
1139.2,0.051624,423881,376374
1143.99,0.054369,426786,376566
1147.58,0.055090,428617,377554
1151.17,0.056680,431169,378414
1154.75,0.058049,433579,379332
1158.33,0.059338,436264,380550
1161.91,0.061457,439132,381187
1165.48,0.064007,442389,381766
1169.04,0.066395,446101,382858
1173.79,0.070482,451929,384227
1177.34,0.072419,456026,385985
1180.9,0.075068,461306,388080
1184.44,0.076636,467657,392005
1187.99,0.077547,473969,396463
1191.52,0.077352,479856,401568
1195.06,0.076740,487372,408433
1199.76,0.076011,497347,417492
1203.29,0.075011,504311,424314
1206.81,0.074815,511507,430563
1210.33,0.073528,519078,438233
1213.84,0.072898,527163,445704
1217.35,0.072088,534208,452504
1220.85,0.071019,540472,458938
1225.51,0.070527,549929,467498
1229.01,0.069896,556888,474102
1232.5,0.069558,562180,478980
1235.98,0.068595,567975,484992
1239.46,0.067229,574815,492379
1242.94,0.066913,582782,499566
1246.41,0.066167,591476,507890
1251.03,0.065833,604016,519057
1254.5,0.066208,612289,525713
1257.96,0.066700,619125,530980
1261.41,0.067014,624551,535247
1264.86,0.067828,629900,538820
1268.31,0.068398,634345,541910
1271.75,0.068878,638574,544920
1276.33,0.068859,642499,548294
1279.76,0.069339,645905,550592
1283.19,0.068671,648307,553490
1286.61,0.068280,650446,555816
1290.03,0.068213,652132,557343
1293.44,0.067886,653907,559281
1296.85,0.067492,655963,561548
1301.39,0.067254,657349,563044
1304.8,0.067006,657558,563544
1308.19,0.067668,658515,563505
1311.58,0.067561,658804,563891
1314.97,0.068150,659011,563304
1318.36,0.068475,658272,562251
1321.73,0.069143,658022,561174
1326.23,0.069566,657870,560498
1329.6,0.071257,656482,557142
1332.97,0.072155,654926,554673
1336.33,0.073424,653727,552042
1339.69,0.075191,652497,548766
1343.04,0.076812,649913,544557
1346.39,0.079350,647671,539516
1349.73,0.081490,645338,534930
1354.18,0.084657,641175,527618
1357.52,0.086547,638376,523033
1360.85,0.089327,635805,517603
1364.17,0.091341,633413,513270
1367.49,0.094028,631026,508182
1370.81,0.096079,628050,503402
1374.12,0.098392,625034,498324
1378.54,0.102499,620272,489873
1381.84,0.105635,616892,483698
1385.14,0.109747,613613,476593
1388.43,0.114371,611526,469942
1391.72,0.119691,610663,463565
1395.01,0.124355,610634,458591
1398.29,0.129753,611700,453717
1402.66,0.137684,614051,447219
1405.93,0.143797,616268,442560
1409.2,0.149136,617795,438236
1412.46,0.155012,618872,433101
1415.72,0.159445,619795,429342
1418.98,0.163957,620495,425384
1422.23,0.167253,621087,422571
1426.56,0.171920,621375,418248
1429.8,0.175376,621616,415094
1433.04,0.177659,622129,413258
1436.27,0.180334,621526,410322
1439.5,0.182167,621113,408323
1442.72,0.184659,620921,405861
1445.94,0.187936,620270,402388
1450.23,0.190842,618860,398796
1453.44,0.194167,617697,395010
1456.64,0.197065,616264,391473
1459.85,0.199685,614413,387950
1463.04,0.202007,612307,384558
1466.24,0.205861,610032,379745
1469.43,0.209108,607345,375256
1473.67,0.214806,603789,368196
1476.85,0.220261,601175,362026
1480.02,0.226266,597737,355013
1483.19,0.232517,594479,348032
1486.36,0.238731,591232,341214
1489.52,0.243325,587853,335694
1492.68,0.246666,583875,330867
1496.89,0.249322,578062,325576
1500.03,0.250368,574159,322600
1503.18,0.250517,570285,320313
1506.32,0.249141,565444,318602
1509.45,0.247389,560571,317133
1512.58,0.246183,555821,315320
1515.71,0.243947,550344,313825
1519.87,0.240017,543983,313017
1522.99,0.237712,538764,311664
1526.1,0.234986,533692,310674
1529.21,0.231737,527902,309611
1532.32,0.229647,521886,307559
1535.42,0.226077,515888,306534
1538.51,0.222222,509987,305729
1541.6,0.220208,503936,303506
1545.72,0.214908,494694,301598
1548.8,0.212256,488378,299571
1551.88,0.209952,481832,297128
1554.95,0.207358,474989,294663
1558.02,0.206130,467818,291036
1561.08,0.204114,460730,287960
1564.15,0.203871,454170,284019
1568.22,0.201825,444181,279084
1571.27,0.201406,436947,274804
1574.32,0.200088,429598,271003
1577.36,0.199277,422039,266732
1580.4,0.197747,414375,262813
1583.43,0.195816,406354,258874
1586.46,0.193878,398475,254990
1590.49,0.191889,388982,250058
1593.51,0.189680,380708,245987
1596.53,0.187434,372727,242079
1599.54,0.185775,365060,238007
1602.55,0.183406,357543,234381
1605.55,0.180930,349495,230415
1608.55,0.178606,341154,226123
1612.54,0.176396,330877,220430
1615.53,0.174057,322904,216280
1618.51,0.173133,315116,211513
1621.49,0.171397,307217,207037
1624.47,0.170809,299481,202097
1627.44,0.169567,292112,197689
1630.41,0.167776,284245,193160
1634.36,0.166594,274079,186759
1637.32,0.167503,266916,181498
1640.27,0.165273,259612,177440
1643.22,0.164513,251804,172405
1646.16,0.163300,244348,167768
1649.1,0.162131,236703,162957
1652.04,0.161239,228171,157406
1655.95,0.158760,215408,149452
1658.88,0.156470,204937,142939
1661.8,0.151873,193395,136324
1664.72,0.146260,179728,128338
1667.63,0.137939,163642,119112
1670.54,0.126648,146312,109303
1673.44,0.113893,128451,98820
1677.31,0.101371,105080,83205
1680.21,0.098818,88906,70813
1683.1,0.093318,75033,60525
1685.99,0.100170,63520,50436
1688.87,0.101688,53714,42501
1691.75,0.109192,45653,35504
1694.62,0.111532,39137,30273
1697.49,0.111751,33776,26113
1701.31,0.121729,28175,21288

File: Column 1_050559_20150331_120356.csv
Method:,Column 1,,
Host Date-Time:,31/3/15 @ 12:3:56,,
Header Version:,1,,
System Temp (C):,33.62,,
Detector Temp (C):,32.99,,
Humidity (%):,2.25,,
Lamp PD:,3819,,
Shift Vector Coefficients:,-10.5391,0.0761263,-0.000134223,,
Pixel to Wavelength Coefficients:,1775.68,-0.916766,-0.000235065,,
Serial Number:,5510004,,
Scan Config Name:,Column 1,,
Scan Config Type:,Slew,,
Section 1,,
Start wavelength (nm):,900,,
End wavelength (nm):,1700,,
Pattern Pixel Width (nm):,   7.03,,,,
Exposure (ms):,  0.635,,,,
Digital Resolution:,228,,
Num Repeats:,6,,
PGA Gain:,64,,
Total Measurement Time in sec:,  2.739,,
Wavelength (nm),Absorbance (AU),Reference Signal (unitless),Sample Signal (unitless)
901.51,0.032880,108485,100575
905.376,0.039888,121306,110661
909.237,0.041865,131909,119787
913.095,0.042905,143299,129819
916.948,0.042996,156982,142185
922.079,0.044617,179937,162369
925.923,0.045874,200504,180405
929.762,0.046743,222660,199940
933.597,0.047461,244426,219122
937.427,0.046784,263972,237014
941.254,0.046313,281845,253336
945.076,0.046370,297271,267167
950.165,0.046315,315605,283680
953.978,0.045136,328029,295649
957.786,0.046031,340470,306230
961.59,0.046089,352317,316843
965.389,0.046580,363056,326132
969.185,0.046855,373162,334998
972.976,0.047504,382632,342987
976.763,0.048008,391202,350262
981.806,0.048173,400190,358173
985.583,0.049535,406088,362314
989.355,0.049154,410162,366270
993.124,0.050113,412868,367873
996.888,0.050548,414263,368747
1000.65,0.051522,415476,368998
1004.4,0.052983,415479,367761
1009.41,0.053577,414358,366268
1013.15,0.054718,412923,364042
1016.89,0.054479,411526,363010
1020.63,0.054847,409066,360534
1024.36,0.055199,406777,358226
1028.09,0.054603,404427,356646
1031.82,0.054494,401911,354516
1036.78,0.053746,398410,352034
1040.49,0.053743,396204,350087
1044.2,0.053487,394236,348553
1047.91,0.053320,392042,346747
1051.61,0.052551,389823,345395
1055.31,0.051535,388234,344793
1059,0.051376,387599,344355
1063.92,0.050135,386688,344529
1067.61,0.049505,386598,344949
1071.29,0.048812,387377,346196
1074.96,0.048298,388536,347643
1078.63,0.047719,389855,349288
1082.3,0.047079,391215,351024
1085.96,0.046255,393215,353488
1090.84,0.045840,396270,356575
1094.49,0.045025,398760,359490
1098.14,0.045392,400987,361192
1101.79,0.044968,403477,363790
1105.43,0.044762,406116,366343
1109.06,0.044295,407701,368169
1112.7,0.043816,409859,370526
1117.53,0.044351,412494,372449
1121.15,0.045419,414909,373709
1124.77,0.045050,416559,375514
1128.38,0.046728,418532,375838
1131.99,0.048079,419956,375945
1135.6,0.049818,421946,376217
1139.2,0.051375,423881,376590
1143.99,0.054215,426786,376700
1147.58,0.055127,428617,377522
1151.17,0.056397,431169,378661
1154.75,0.057954,433579,379415
1158.33,0.059727,436264,380209
1161.91,0.061409,439132,381229
1165.48,0.064624,442389,381224
1169.04,0.066266,446101,382972
1173.79,0.070156,451929,384516
1177.34,0.072713,456026,385724
1180.9,0.075163,461306,387995
1184.44,0.077359,467657,391353
1187.99,0.077737,473969,396290
1191.52,0.078007,479856,400963
1195.06,0.077550,487372,407672
1199.76,0.076073,497347,417433
1203.29,0.075495,504311,423841
1206.81,0.074884,511507,430494
1210.33,0.073964,519078,437793
1213.84,0.073166,527163,445429
1217.35,0.072284,534208,452300
1220.85,0.071521,540472,458408
1225.51,0.070606,549929,467413
1229.01,0.070541,556888,473398
1232.5,0.069234,562180,479338
1235.98,0.068820,567975,484740
1239.46,0.067834,574815,491693
1242.94,0.066801,582782,499695
1246.41,0.065895,591476,508209
1251.03,0.065760,604016,519145
1254.5,0.066138,612289,525797
1257.96,0.066482,619125,531247
1261.41,0.067355,624551,534827
1264.86,0.067750,629900,538917
1268.31,0.068345,634345,541977
1271.75,0.068820,638574,544994
1276.33,0.069588,642499,547374
1279.76,0.069631,645905,550221
1283.19,0.068961,648307,553120
1286.61,0.068523,650446,555505
1290.03,0.068133,652132,557446
1293.44,0.068064,653907,559052
1296.85,0.067502,655963,561536
1301.39,0.067408,657349,562844
1304.8,0.067213,657558,563276
1308.19,0.067411,658515,563838
1311.58,0.067827,658804,563546
1314.97,0.068495,659011,562856
1318.36,0.068823,658272,561801
1321.73,0.069551,658022,560647
1326.23,0.070161,657870,559730
1329.6,0.071240,656482,557164
1332.97,0.072154,654926,554674
1336.33,0.073497,653727,551949
1339.69,0.075332,652497,548588
1343.04,0.076622,649913,544795
1346.39,0.079378,647671,539481
1349.73,0.081511,645338,534905
1354.18,0.084813,641175,527429
1357.52,0.086899,638376,522610
1360.85,0.089168,635805,517793
1364.17,0.091269,633413,513355
1367.49,0.093932,631026,508294
1370.81,0.096192,628050,503271
1374.12,0.098741,625034,497924
1378.54,0.102005,620272,490430
1381.84,0.105803,616892,483511
1385.14,0.109969,613613,476349
1388.43,0.114537,611526,469762
1391.72,0.119070,610663,464228
1395.01,0.124879,610634,458038
1398.29,0.129943,611700,453519
1402.66,0.137721,614051,447181
1405.93,0.143340,616268,443026
1409.2,0.149155,617795,438217
1412.46,0.155033,618872,433080
1415.72,0.159859,619795,428933
1418.98,0.163764,620495,425573
1422.23,0.167824,621087,422016
1426.56,0.171701,621375,418459
1429.8,0.174841,621616,415605
1433.04,0.177643,622129,413273
1436.27,0.180141,621526,410505
1439.5,0.181964,621113,408514
1442.72,0.184961,620921,405579
1445.94,0.187409,620270,402876
1450.23,0.191100,618860,398559
1453.44,0.194085,617697,395085
1456.64,0.196731,616264,391774
1459.85,0.200011,614413,387659
1463.04,0.202372,612307,384235
1466.24,0.206084,610032,379550
1469.43,0.208909,607345,375428
1473.67,0.214760,603789,368235
1476.85,0.220478,601175,361845
1480.02,0.225890,597737,355320
1483.19,0.232859,594479,347758
1486.36,0.238285,591232,341565
1489.52,0.243742,587853,335372
1492.68,0.246829,583875,330743
1496.89,0.249219,578062,325653
1500.03,0.250029,574159,322852
1503.18,0.250204,570285,320544
1506.32,0.248890,565444,318786
1509.45,0.247951,560571,316723
1512.58,0.246000,555821,315453
1515.71,0.244045,550344,313754
1519.87,0.240738,543983,312498
1522.99,0.237733,538764,311649
1526.1,0.235375,533692,310396
1529.21,0.231632,527902,309686
1532.32,0.229331,521886,307783
1535.42,0.226932,515888,305931
1538.51,0.222640,509987,305435
1541.6,0.220109,503936,303575
1545.72,0.215672,494694,301068
1548.8,0.212191,488378,299616
1551.88,0.209324,481832,297558
1554.95,0.207626,474989,294481
1558.02,0.205103,467818,291725
1561.08,0.203894,460730,288106
1564.15,0.203822,454170,284051
1568.22,0.202744,444181,278494
1571.27,0.201814,436947,274546
1574.32,0.200598,429598,270685
1577.36,0.199245,422039,266752
1580.4,0.198387,414375,262426
1583.43,0.196234,406354,258625
1586.46,0.194737,398475,254486
1590.49,0.191840,388982,250086
1593.51,0.190284,380708,245645
1596.53,0.187581,372727,241997
1599.54,0.185525,365060,238144
1602.55,0.183460,357543,234352
1605.55,0.181232,349495,230255
1608.55,0.179609,341154,225601
1612.54,0.176741,330877,220255
1615.53,0.174378,322904,216120
1618.51,0.173912,315116,211134
1621.49,0.172298,307217,206608
1624.47,0.170650,299481,202171
1627.44,0.169525,292112,197708
1630.41,0.168064,284245,193032
1634.36,0.167691,274079,186288
1637.32,0.165922,266916,182160
1640.27,0.164987,259612,177557
1643.22,0.164823,251804,172282
1646.16,0.162539,244348,168062
1649.1,0.162168,236703,162943
1652.04,0.161399,228171,157348
1655.95,0.158069,215408,149690
1658.88,0.155486,204937,143263
1661.8,0.152549,193395,136112
1664.72,0.145236,179728,128641
1667.63,0.136774,163642,119432
1670.54,0.128140,146312,108928
1673.44,0.116003,128451,98341
1677.31,0.101277,105080,83223
1680.21,0.096372,88906,71213
1683.1,0.092622,75033,60622
1685.99,0.100170,63520,50436
1688.87,0.102404,53714,42431
1691.75,0.107361,45653,35654
1694.62,0.113733,39137,30120
1697.49,0.116568,33776,25825
1701.31,0.125993,28175,21080

File: Column 1_050559_20150331_120408.csv
Method:,Column 1,,
Host Date-Time:,31/3/15 @ 12:4:8,,
Header Version:,1,,
System Temp (C):,33.64,,
Detector Temp (C):,33.06,,
Humidity (%):,2.15,,
Lamp PD:,3819,,
Shift Vector Coefficients:,-10.5391,0.0761263,-0.000134223,,
Pixel to Wavelength Coefficients:,1775.68,-0.916766,-0.000235065,,
Serial Number:,5510004,,
Scan Config Name:,Column 1,,
Scan Config Type:,Slew,,
Section 1,,
Start wavelength (nm):,900,,
End wavelength (nm):,1700,,
Pattern Pixel Width (nm):,   7.03,,,,
Exposure (ms):,  0.635,,,,
Digital Resolution:,228,,
Num Repeats:,6,,
PGA Gain:,64,,
Total Measurement Time in sec:,  2.683,,
Wavelength (nm),Absorbance (AU),Reference Signal (unitless),Sample Signal (unitless)
901.51,0.034910,108485,100106
905.376,0.041669,121306,110208
909.237,0.044056,131909,119184
913.095,0.044826,143299,129246
916.948,0.044168,156982,141802
922.079,0.045514,179937,162034
925.923,0.045867,200504,180408
929.762,0.046849,222660,199891
933.597,0.048215,244426,218742
937.427,0.047354,263972,236703
941.254,0.048066,281845,252316
945.076,0.047173,297271,266673
950.165,0.046308,315605,283685
953.978,0.045821,328029,295183
957.786,0.046103,340470,306179
961.59,0.046682,352317,316411
965.389,0.046776,363056,325985
969.185,0.046868,373162,334988
972.976,0.047324,382632,343129
976.763,0.047903,391202,350347
981.806,0.048312,400190,358059
985.583,0.049107,406088,362671
989.355,0.049645,410162,365856
993.124,0.049908,412868,368047
996.888,0.050728,414263,368594
1000.65,0.051770,415476,368787
1004.4,0.052563,415479,368117
1009.41,0.053746,414358,366125
1013.15,0.054435,412923,364279
1016.89,0.054635,411526,362879
1020.63,0.055099,409066,360325
1024.36,0.055150,406777,358267
1028.09,0.054689,404427,356575
1031.82,0.054613,401911,354419
1036.78,0.054043,398410,351793
1040.49,0.053904,396204,349957
1044.2,0.053588,394236,348472
1047.91,0.052932,392042,347057
1051.61,0.052404,389823,345512
1055.31,0.052048,388234,344386
1059,0.051972,387599,343883
1063.92,0.050564,386688,344189
1067.61,0.049946,386598,344599
1071.29,0.049260,387377,345839
1074.96,0.048763,388536,347271
1078.63,0.048198,389855,348903
1082.3,0.047409,391215,350757
1085.96,0.046264,393215,353481
1090.84,0.046300,396270,356198
1094.49,0.045946,398760,358728
1098.14,0.045607,400987,361013
1101.79,0.045050,403477,363721
1105.43,0.045020,406116,366126
1109.06,0.044914,407701,367644
1112.7,0.044799,409859,369688
1117.53,0.044847,412494,372024
1121.15,0.045240,414909,373863
1124.77,0.045860,416559,374815
1128.38,0.047066,418532,375546
1131.99,0.048508,419956,375574
1135.6,0.050367,421946,375742
1139.2,0.052076,423881,375983
1143.99,0.054637,426786,376334
1147.58,0.055376,428617,377306
1151.17,0.056956,431169,378174
1154.75,0.057877,433579,379482
1158.33,0.059758,436264,380182
1161.91,0.062024,439132,380690
1165.48,0.064253,442389,381550
1169.04,0.067262,446101,382095
1173.79,0.071012,451929,383759
1177.34,0.073668,456026,384877
1180.9,0.075420,461306,387765
1184.44,0.077042,467657,391639
1187.99,0.077890,473969,396150
1191.52,0.078107,479856,400870
1195.06,0.077428,487372,407786
1199.76,0.076105,497347,417402
1203.29,0.075480,504311,423856
1206.81,0.074908,511507,430471
1210.33,0.073919,519078,437838
1213.84,0.073558,527163,445028
1217.35,0.072658,534208,451910
1220.85,0.071804,540472,458109
1225.51,0.070800,549929,467204
1229.01,0.069990,556888,474000
1232.5,0.069790,562180,478724
1235.98,0.069008,567975,484531
1239.46,0.067495,574815,492077
1242.94,0.066543,582782,499992
1246.41,0.066088,591476,507983
1251.03,0.066174,604016,518650
1254.5,0.066480,612289,525384
1257.96,0.066830,619125,530821
1261.41,0.067132,624551,535101
1264.86,0.067796,629900,538860
1268.31,0.068527,634345,541750
1271.75,0.069754,638574,543822
1276.33,0.069716,642499,547213
1279.76,0.069743,645905,550080
1283.19,0.068888,648307,553214
1286.61,0.068719,650446,555255
1290.03,0.068208,652132,557349
1293.44,0.067704,653907,559515
1296.85,0.067755,655963,561208
1301.39,0.067473,657349,562760
1304.8,0.067305,657558,563156
1308.19,0.067750,658515,563399
1311.58,0.067956,658804,563378
1314.97,0.068504,659011,562845
1318.36,0.068760,658272,561882
1321.73,0.069252,658022,561033
1326.23,0.070387,657870,559440
1329.6,0.071254,656482,557146
1332.97,0.072129,654926,554706
1336.33,0.073485,653727,551965
1339.69,0.075555,652497,548307
1343.04,0.077038,649913,544273
1346.39,0.079654,647671,539139
1349.73,0.082002,645338,534300
1354.18,0.084974,641175,527233
1357.52,0.086958,638376,522539
1360.85,0.089008,635805,517984
1364.17,0.091040,633413,513626
1367.49,0.094091,631026,508108
1370.81,0.096381,628050,503052
1374.12,0.098592,625034,498094
1378.54,0.102177,620272,490236
1381.84,0.106071,616892,483212
1385.14,0.110075,613613,476233
1388.43,0.114441,611526,469866
1391.72,0.119236,610663,464051
1395.01,0.124583,610634,458351
1398.29,0.129954,611700,453507
1402.66,0.137684,614051,447219
1405.93,0.143499,616268,442864
1409.2,0.149284,617795,438087
1412.46,0.154944,618872,433168
1415.72,0.159021,619795,429761
1418.98,0.163635,620495,425700
1422.23,0.167462,621087,422367
1426.56,0.172063,621375,418110
1429.8,0.174876,621616,415572
1433.04,0.177899,622129,413030
1436.27,0.179913,621526,410720
1439.5,0.182764,621113,407762
1442.72,0.185017,620921,405527
1445.94,0.187256,620270,403018
1450.23,0.190683,618860,398942
1453.44,0.194049,617697,395118
1456.64,0.197217,616264,391336
1459.85,0.199707,614413,387930
1463.04,0.202064,612307,384508
1466.24,0.205638,610032,379940
1469.43,0.209412,607345,374993
1473.67,0.215096,603789,367950
1476.85,0.220415,601175,361898
1480.02,0.225878,597737,355330
1483.19,0.232638,594479,347935
1486.36,0.238624,591232,341298
1489.52,0.243095,587853,335872
1492.68,0.246853,583875,330725
1496.89,0.248668,578062,326067
1500.03,0.249979,574159,322889
1503.18,0.250254,570285,320507
1506.32,0.248751,565444,318888
1509.45,0.247669,560571,316929
1512.58,0.246269,555821,315258
1515.71,0.244326,550344,313551
1519.87,0.240770,543983,312475
1522.99,0.238529,538764,311078
1526.1,0.235783,533692,310104
1529.21,0.232664,527902,308951
1532.32,0.229668,521886,307544
1535.42,0.226838,515888,305997
1538.51,0.222838,509987,305296
1541.6,0.220097,503936,303584
1545.72,0.216072,494694,300791
1548.8,0.212326,488378,299523
1551.88,0.210062,481832,297053
1554.95,0.207614,474989,294489
1558.02,0.205641,467818,291364
1561.08,0.204573,460730,287656
1564.15,0.204044,454170,283906
1568.22,0.202986,444181,278339
1571.27,0.202239,436947,274277
1574.32,0.200600,429598,270684
1577.36,0.198952,422039,266932
1580.4,0.198094,414375,262603
1583.43,0.196896,406354,258231
1586.46,0.194509,398475,254620
1590.49,0.191792,388982,250114
1593.51,0.189369,380708,246163
1596.53,0.188103,372727,241706
1599.54,0.185647,365060,238077
1602.55,0.183680,357543,234233
1605.55,0.181339,349495,230198
1608.55,0.179259,341154,225783
1612.54,0.177354,330877,219944
1615.53,0.174433,322904,216093
1618.51,0.173224,315116,211469
1621.49,0.172559,307217,206484
1624.47,0.171377,299481,201833
1627.44,0.170607,292112,197216
1630.41,0.168617,284245,192786
1634.36,0.167157,274079,186517
1637.32,0.167115,266916,181660
1640.27,0.165932,259612,177171
1643.22,0.164480,251804,172418
1646.16,0.163654,244348,167631
1649.1,0.163484,236703,162450
1652.04,0.162001,228171,157130
1655.95,0.159688,215408,149133
1658.88,0.157002,204937,142764
1661.8,0.153328,193395,135868
1664.72,0.146098,179728,128386
1667.63,0.137943,163642,119111
1670.54,0.127185,146312,109168
1673.44,0.114671,128451,98643
1677.31,0.103259,105080,82844
1680.21,0.095634,88906,71334
1683.1,0.095576,75033,60211
1685.99,0.099628,63520,50499
1688.87,0.102722,53714,42400
1691.75,0.110711,45653,35380
1694.62,0.113675,39137,30124
1697.49,0.117359,33776,25778
1701.31,0.133348,28175,20726