Folder: textile_sorting_NIRSCAN_/samples/wool/wool-000811 (part 148)

File: Column 1_050613_20150331_122949.csv
Method:,Column 1,,
Host Date-Time:,31/3/15 @ 12:29:49,,
Header Version:,1,,
System Temp (C):,34.09,,
Detector Temp (C):,34.95,,
Humidity (%):,1.66,,
Lamp PD:,3818,,
Shift Vector Coefficients:,-10.5391,0.0761263,-0.000134223,,
Pixel to Wavelength Coefficients:,1775.68,-0.916766,-0.000235065,,
Serial Number:,5510004,,
Scan Config Name:,Column 1,,
Scan Config Type:,Slew,,
Section 1,,
Start wavelength (nm):,900,,
End wavelength (nm):,1700,,
Pattern Pixel Width (nm):,   7.03,,,,
Exposure (ms):,  0.635,,,,
Digital Resolution:,228,,
Num Repeats:,6,,
PGA Gain:,64,,
Total Measurement Time in sec:,  2.676,,
Wavelength (nm),Absorbance (AU),Reference Signal (unitless),Sample Signal (unitless)
901.51,0.069007,108485,92547
905.376,0.076066,121306,101816
909.237,0.076413,131909,110627
913.095,0.078029,143299,119733
916.948,0.078970,156982,130882
922.079,0.080790,179937,149393
925.923,0.081631,200504,166147
929.762,0.082409,222660,184176
933.597,0.081611,244426,202552
937.427,0.080624,263972,219247
941.254,0.080290,281845,234272
945.076,0.078934,297271,247867
950.165,0.077881,315605,263793
953.978,0.077201,328029,274607
957.786,0.078016,340470,284487
961.59,0.077624,352317,294652
965.389,0.077517,363056,303708
969.185,0.077902,373162,311886
972.976,0.078150,382632,319618
976.763,0.078631,391202,326415
981.806,0.078967,400190,333656
985.583,0.079278,406088,338331
989.355,0.080322,410162,340905
993.124,0.079959,412868,343441
996.888,0.080614,414263,344082
1000.65,0.081845,415476,344113
1004.4,0.082233,415479,343808
1009.41,0.084191,414358,341338
1013.15,0.084284,412923,340083
1016.89,0.084676,411526,338627
1020.63,0.084227,409066,336951
1024.36,0.085250,406777,334277
1028.09,0.084063,404427,333255
1031.82,0.084012,401911,331221
1036.78,0.084169,398410,328217
1040.49,0.083698,396204,326754
1044.2,0.084025,394236,324886
1047.91,0.083289,392042,323626
1051.61,0.082983,389823,322021
1055.31,0.083683,388234,320192
1059,0.081878,387599,321000
1063.92,0.081656,386688,320409
1067.61,0.080772,386598,320987
1071.29,0.080069,387377,322155
1074.96,0.079412,388536,323608
1078.63,0.079215,389855,324854
1082.3,0.078659,391215,326405
1085.96,0.077879,393215,328663
1090.84,0.076694,396270,332122
1094.49,0.076643,398760,334248
1098.14,0.075677,400987,336863
1101.79,0.075284,403477,339262
1105.43,0.075134,406116,341599
1109.06,0.073864,407701,343936
1112.7,0.073509,409859,346039
1117.53,0.073283,412494,348445
1121.15,0.073619,414909,350214
1124.77,0.074288,416559,351066
1128.38,0.074307,418532,352713
1131.99,0.076210,419956,352366
1135.6,0.077162,421946,353260
1139.2,0.079028,423881,353359
1143.99,0.080834,426786,354304
1147.58,0.081559,428617,355231
1151.17,0.082649,431169,356450
1154.75,0.083240,433579,357955
1158.33,0.084767,436264,358907
1161.91,0.085965,439132,360272
1165.48,0.088745,442389,360628
1169.04,0.090575,446101,362125
1173.79,0.094077,451929,363909
1177.34,0.096125,456026,365481
1180.9,0.098212,461306,367940
1184.44,0.100048,467657,371432
1187.99,0.101264,473969,375393
1191.52,0.100963,479856,380319
1195.06,0.101163,487372,386098
1199.76,0.100310,497347,394775
1203.29,0.099466,504311,401081
1206.81,0.099295,511507,406965
1210.33,0.098877,519078,413386
1213.84,0.098021,527163,420653
1217.35,0.097558,534208,426729
1220.85,0.097022,540472,432266
1225.51,0.096222,549929,440641
1229.01,0.095542,556888,446916
1232.5,0.094623,562180,452119
1235.98,0.094037,567975,457396
1239.46,0.093004,574815,464007
1242.94,0.092235,582782,471271
1246.41,0.092043,591476,478513
1251.03,0.091567,604016,489194
1254.5,0.091767,612289,495666
1257.96,0.092053,619125,500870
1261.41,0.092520,624551,504717
1264.86,0.092896,629900,508599
1268.31,0.093691,634345,511252
1271.75,0.094045,638574,514240
1276.33,0.094737,642499,516577
1279.76,0.094554,645905,519535
1283.19,0.094003,648307,522129
1286.61,0.093426,650446,524548
1290.03,0.093399,652132,525940
1293.44,0.092739,653907,528174
1296.85,0.092501,655963,530125
1301.39,0.092342,657349,531440
1304.8,0.092095,657558,531911
1308.19,0.092316,658515,532414
1311.58,0.092370,658804,532582
1314.97,0.092875,659011,532130
1318.36,0.092898,658272,531505
1321.73,0.093704,658022,530318
1326.23,0.094488,657870,529239
1329.6,0.095408,656482,527005
1332.97,0.095327,654926,525854
1336.33,0.096711,653727,523221
1339.69,0.098232,652497,520411
1343.04,0.099666,649913,516641
1346.39,0.101646,647671,512517
1349.73,0.103333,645338,508691
1354.18,0.106591,641175,501632
1357.52,0.108329,638376,497448
1360.85,0.110055,635805,493479
1364.17,0.112514,633413,488847
1367.49,0.114544,631026,484734
1370.81,0.116817,628050,479929
1374.12,0.118579,625034,475691
1378.54,0.121133,620272,469298
1381.84,0.124488,616892,463149
1385.14,0.127549,613613,457452
1388.43,0.131123,611526,452160
1391.72,0.135088,610663,447418
1395.01,0.138939,610634,443447
1398.29,0.143356,611700,439726
1402.66,0.149530,614051,435186
1405.93,0.154188,616268,432097
1409.2,0.158723,617795,428668
1412.46,0.163266,618872,424947
1415.72,0.167501,619795,421451
1418.98,0.170421,620495,419100
1422.23,0.173320,621087,416709
1426.56,0.177515,621375,412894
1429.8,0.179785,621616,410901
1433.04,0.182214,622129,408946
1436.27,0.184865,621526,406064
1439.5,0.186716,621113,404068
1442.72,0.189976,620921,400922
1445.94,0.191508,620270,399092
1450.23,0.195576,618860,394472
1453.44,0.198381,617697,391196
1456.64,0.201035,616264,387911
1459.85,0.203692,614413,384387
1463.04,0.206602,612307,380511
1466.24,0.210380,610032,375814
1469.43,0.214556,607345,370578
1473.67,0.220025,603789,363798
1476.85,0.226138,601175,357160
1480.02,0.232298,597737,350116
1483.19,0.238726,594479,343092
1486.36,0.244661,591232,336587
1489.52,0.249106,587853,331255
1492.68,0.253201,583875,325926
1496.89,0.254436,578062,321765
1500.03,0.255254,574159,318991
1503.18,0.255430,570285,316710
1506.32,0.254177,565444,314929
1509.45,0.252765,560571,313232
1512.58,0.251127,555821,311751
1515.71,0.249184,550344,310063
1519.87,0.245925,543983,308788
1522.99,0.243844,538764,307294
1526.1,0.240900,533692,306472
1529.21,0.238120,527902,305094
1532.32,0.235118,521886,303709
1535.42,0.232283,515888,302185
1538.51,0.229603,509987,300577
1541.6,0.226156,503936,299378
1545.72,0.223400,494694,295758
1548.8,0.220196,488378,294144
1551.88,0.217468,481832,292030
1554.95,0.215619,474989,289111
1558.02,0.214424,467818,285531
1561.08,0.213510,460730,281797
1564.15,0.212682,454170,278315
1568.22,0.211119,444181,273175
1571.27,0.210265,436947,269255
1574.32,0.209844,429598,264983
1577.36,0.209025,422039,260812
1580.4,0.207778,414375,256812
1583.43,0.205533,406354,253146
1586.46,0.204710,398475,248709
1590.49,0.202805,388982,243851
1593.51,0.200708,380708,239819
1596.53,0.198659,372727,235902
1599.54,0.197073,365060,231895
1602.55,0.195268,357543,228066
1605.55,0.193544,349495,223819
1608.55,0.191817,341154,219348
1612.54,0.188942,330877,214153
1615.53,0.187123,322904,209870
1618.51,0.187440,315116,204659
1621.49,0.186587,307217,199921
1624.47,0.184781,299481,195699
1627.44,0.182506,292112,191886
1630.41,0.182355,284245,186783
1634.36,0.181045,274079,180647
1637.32,0.180677,266916,176075
1640.27,0.180248,259612,171426
1643.22,0.180082,251804,166334
1646.16,0.178298,244348,162073
1649.1,0.178124,236703,157065
1652.04,0.175418,228171,152350
1655.95,0.173556,215408,144446
1658.88,0.168937,204937,138894
1661.8,0.163136,193395,132834
1664.72,0.155339,179728,125683
1667.63,0.144034,163642,117452
1670.54,0.130728,146312,108281
1673.44,0.112248,128451,99195
1677.31,0.092776,105080,84868
1680.21,0.080663,88906,73836
1683.1,0.076788,75033,62873
1685.99,0.076526,63520,53258
1688.87,0.081893,53714,44483
1691.75,0.086749,45653,37387
1694.62,0.088593,39137,31915
1697.49,0.090414,33776,27428
1701.31,0.094412,28175,22670

File: Column 1_050613_20150331_122951.csv
Method:,Column 1,,
Host Date-Time:,31/3/15 @ 12:29:51,,
Header Version:,1,,
System Temp (C):,34.06,,
Detector Temp (C):,34.95,,
Humidity (%):,1.66,,
Lamp PD:,3818,,
Shift Vector Coefficients:,-10.5391,0.0761263,-0.000134223,,
Pixel to Wavelength Coefficients:,1775.68,-0.916766,-0.000235065,,
Serial Number:,5510004,,
Scan Config Name:,Column 1,,
Scan Config Type:,Slew,,
Section 1,,
Start wavelength (nm):,900,,
End wavelength (nm):,1700,,
Pattern Pixel Width (nm):,   7.03,,,,
Exposure (ms):,  0.635,,,,
Digital Resolution:,228,,
Num Repeats:,6,,
PGA Gain:,64,,
Total Measurement Time in sec:,  2.667,,
Wavelength (nm),Absorbance (AU),Reference Signal (unitless),Sample Signal (unitless)
901.51,0.068182,108485,92723
905.376,0.073629,121306,102389
909.237,0.074553,131909,111102
913.095,0.077272,143299,119942
916.948,0.079156,156982,130826
922.079,0.080058,179937,149645
925.923,0.080964,200504,166402
929.762,0.082938,222660,183952
933.597,0.081358,244426,202670
937.427,0.080438,263972,219341
941.254,0.079647,281845,234619
945.076,0.078703,297271,247999
950.165,0.078146,315605,263632
953.978,0.076627,328029,274970
957.786,0.076916,340470,285209
961.59,0.076551,352317,295381
965.389,0.077093,363056,304005
969.185,0.077153,373162,312424
972.976,0.077576,382632,320041
976.763,0.078212,391202,326730
981.806,0.078152,400190,334283
985.583,0.078988,406088,338557
989.355,0.079646,410162,341436
993.124,0.080231,412868,343226
996.888,0.080478,414263,344190
1000.65,0.080884,415476,344875
1004.4,0.082005,415479,343989
1009.41,0.083933,414358,341541
1013.15,0.083899,412923,340385
1016.89,0.084608,411526,338680
1020.63,0.084389,409066,336825
1024.36,0.084472,406777,334876
1028.09,0.084836,404427,332663
1031.82,0.084504,401911,330846
1036.78,0.083811,398410,328488
1040.49,0.083042,396204,327248
1044.2,0.083149,394236,325542
1047.91,0.082449,392042,324253
1051.61,0.082816,389823,322145
1055.31,0.082521,388234,321050
1059,0.082062,387599,320864
1063.92,0.081217,386688,320733
1067.61,0.080650,386598,321077
1071.29,0.080175,387377,322076
1074.96,0.078921,388536,323974
1078.63,0.079393,389855,324721
1082.3,0.077163,391215,327531
1085.96,0.077515,393215,328939
1090.84,0.076087,396270,332586
1094.49,0.075933,398760,334795
1098.14,0.075651,400987,336883
1101.79,0.074746,403477,339682
1105.43,0.074163,406116,342363
1109.06,0.074049,407701,343790
1112.7,0.073016,409859,346432
1117.53,0.072643,412494,348959
1121.15,0.073515,414909,350298
1124.77,0.074011,416559,351290
1128.38,0.074414,418532,352626
1131.99,0.075712,419956,352770
1135.6,0.077155,421946,353266
1139.2,0.078400,423881,353870
1143.99,0.080142,426786,354869
1147.58,0.081439,428617,355329
1151.17,0.082335,431169,356708
1154.75,0.082635,433579,358454
1158.33,0.084743,436264,358927
1161.91,0.086277,439132,360013
1165.48,0.088582,442389,360763
1169.04,0.090210,446101,362429
1173.79,0.093938,451929,364026
1177.34,0.095988,456026,365596
1180.9,0.097837,461306,368258
1184.44,0.099565,467657,371845
1187.99,0.100853,473969,375748
1191.52,0.100558,479856,380674
1195.06,0.100868,487372,386360
1199.76,0.100169,497347,394903
1203.29,0.098961,504311,401548
1206.81,0.098300,511507,407898
1210.33,0.097976,519078,414244
1213.84,0.097912,527163,420759
1217.35,0.097498,534208,426788
1220.85,0.096804,540472,432483
1225.51,0.095634,549929,441238
1229.01,0.095043,556888,447430
1232.5,0.094482,562180,452265
1235.98,0.093693,567975,457758
1239.46,0.092637,574815,464399
1242.94,0.091832,582782,471709
1246.41,0.091547,591476,479060
1251.03,0.090766,604016,490098
1254.5,0.091701,612289,495742
1257.96,0.091552,619125,501448
1261.41,0.092190,624551,505101
1264.86,0.092883,629900,508614
1268.31,0.093436,634345,511552
1271.75,0.093735,638574,514608
1276.33,0.094375,642499,517008
1279.76,0.094109,645905,520067
1283.19,0.093611,648307,522600
1286.61,0.093087,650446,524958
1290.03,0.092785,652132,526684
1293.44,0.092398,653907,528589
1296.85,0.092393,655963,530257
1301.39,0.091657,657349,532278
1304.8,0.091942,657558,532098
1308.19,0.092505,658515,532182
1311.58,0.092178,658804,532817
1314.97,0.092580,659011,532491
1318.36,0.092627,658272,531837
1321.73,0.093022,658022,531152
1326.23,0.093935,657870,529914
1329.6,0.095014,656482,527483
1332.97,0.095687,654926,525418
1336.33,0.096408,653727,523586
1339.69,0.098095,652497,520575
1343.04,0.099367,649913,516997
1346.39,0.101321,647671,512901
1349.73,0.103127,645338,508933
1354.18,0.106126,641175,502170
1357.52,0.108276,638376,497508
1360.85,0.110149,635805,493372
1364.17,0.111527,633413,489959
1367.49,0.114234,631026,485080
1370.81,0.116606,628050,480163
1374.12,0.118549,625034,475724
1378.54,0.120957,620272,469489
1381.84,0.123590,616892,464108
1385.14,0.127434,613613,457573
1388.43,0.130893,611526,452399
1391.72,0.135052,610663,447455
1395.01,0.138697,610634,443694
1398.29,0.143315,611700,439768
1402.66,0.149333,614051,435383
1405.93,0.153816,616268,432468
1409.2,0.158392,617795,428995
1412.46,0.162934,618872,425272
1415.72,0.166604,619795,422322
1418.98,0.170181,620495,419331
1422.23,0.173694,621087,416350
1426.56,0.177000,621375,413384
1429.8,0.179518,621616,411154
1433.04,0.182005,622129,409143
1436.27,0.184609,621526,406303
1439.5,0.186247,621113,404505
1442.72,0.188951,620921,401870
1445.94,0.191473,620270,399124
1450.23,0.194760,618860,395214
1453.44,0.197725,617697,391787
1456.64,0.200807,616264,388114
1459.85,0.203097,614413,384914
1463.04,0.206437,612307,380656
1466.24,0.209070,610032,376949
1469.43,0.213014,607345,371896
1473.67,0.219322,603789,364387
1476.85,0.225507,601175,357679
1480.02,0.231415,597737,350829
1483.19,0.237911,594479,343736
1486.36,0.244645,591232,336599
1489.52,0.249028,587853,331315
1492.68,0.252620,583875,326362
1496.89,0.253717,578062,322298
1500.03,0.254844,574159,319292
1503.18,0.255034,570285,316999
1506.32,0.254668,565444,314573
1509.45,0.252932,560571,313111
1512.58,0.250875,555821,311932
1515.71,0.249095,550344,310127
1519.87,0.246564,543983,308334
1522.99,0.243044,538764,307861
1526.1,0.240423,533692,306809
1529.21,0.237475,527902,305547
1532.32,0.234546,521886,304109
1535.42,0.231734,515888,302567
1538.51,0.229231,509987,300835
1541.6,0.225623,503936,299745
1545.72,0.222371,494694,296460
1548.8,0.219517,488378,294604
1551.88,0.216750,481832,292513
1554.95,0.214807,474989,289652
1558.02,0.213215,467818,286327
1561.08,0.212217,460730,282637
1564.15,0.211983,454170,278763
1568.22,0.210338,444181,273667
1571.27,0.210371,436947,269189
1574.32,0.209875,429598,264964
1577.36,0.208413,422039,261180
1580.4,0.206972,414375,257289
1583.43,0.206054,406354,252843
1586.46,0.203632,398475,249327
1590.49,0.202369,388982,244096
1593.51,0.200117,380708,240146
1596.53,0.197955,372727,236285
1599.54,0.196871,365060,232003
1602.55,0.193910,357543,228780
1605.55,0.190836,349495,225219
1608.55,0.190707,341154,219909
1612.54,0.188632,330877,214306
1615.53,0.186869,322904,209993
1618.51,0.185435,315116,205606
1621.49,0.184621,307217,200828
1624.47,0.183445,299481,196302
1627.44,0.183612,292112,191398
1630.41,0.181457,284245,187170
1634.36,0.181038,274079,180650
1637.32,0.181121,266916,175895
1640.27,0.178557,259612,172095
1643.22,0.178559,251804,166918
1646.16,0.178119,244348,162140
1649.1,0.177014,236703,157467
1652.04,0.174299,228171,152743
1655.95,0.171645,215408,145083
1658.88,0.168162,204937,139142
1661.8,0.162195,193395,133122
1664.72,0.154118,179728,126037
1667.63,0.142377,163642,117901
1670.54,0.129214,146312,108659
1673.44,0.112699,128451,99092
1677.31,0.092285,105080,84964
1680.21,0.077872,88906,74312
1683.1,0.073088,75033,63411
1685.99,0.072548,63520,53748
1688.87,0.075228,53714,45171
1691.75,0.083381,45653,37678
1694.62,0.081694,39137,32426
1697.49,0.087086,33776,27639
1701.31,0.092482,28175,22771

File: Column 1_050613_20150331_122954.csv
Method:,Column 1,,
Host Date-Time:,31/3/15 @ 12:29:54,,
Header Version:,1,,
System Temp (C):,34.09,,
Detector Temp (C):,34.95,,
Humidity (%):,1.66,,
Lamp PD:,3818,,
Shift Vector Coefficients:,-10.5391,0.0761263,-0.000134223,,
Pixel to Wavelength Coefficients:,1775.68,-0.916766,-0.000235065,,
Serial Number:,5510004,,
Scan Config Name:,Column 1,,
Scan Config Type:,Slew,,
Section 1,,
Start wavelength (nm):,900,,
End wavelength (nm):,1700,,
Pattern Pixel Width (nm):,   7.03,,,,
Exposure (ms):,  0.635,,,,
Digital Resolution:,228,,
Num Repeats:,6,,
PGA Gain:,64,,
Total Measurement Time in sec:,  2.671,,
Wavelength (nm),Absorbance (AU),Reference Signal (unitless),Sample Signal (unitless)
901.51,0.069430,108485,92457
905.376,0.075955,121306,101842
909.237,0.077254,131909,110413
913.095,0.077409,143299,119904
916.948,0.079687,156982,130666
922.079,0.080436,179937,149515
925.923,0.082025,200504,165996
929.762,0.082987,222660,183931
933.597,0.083052,244426,201881
937.427,0.080474,263972,219323
941.254,0.080889,281845,233949
945.076,0.079428,297271,247585
950.165,0.078248,315605,263570
953.978,0.077152,328029,274638
957.786,0.078032,340470,284477
961.59,0.077791,352317,294539
965.389,0.077699,363056,303581
969.185,0.077675,373162,312049
972.976,0.077793,382632,319881
976.763,0.077487,391202,327276
981.806,0.078490,400190,334023
985.583,0.079871,406088,337870
989.355,0.080514,410162,340754
993.124,0.080327,412868,343150
996.888,0.080469,414263,344197
1000.65,0.081357,415476,344500
1004.4,0.082399,415479,343677
1009.41,0.083934,414358,341540
1013.15,0.084752,412923,339717
1016.89,0.084568,411526,338711
1020.63,0.084286,409066,336905
1024.36,0.084602,406777,334776
1028.09,0.084716,404427,332755
1031.82,0.084803,401911,330618
1036.78,0.084479,398410,327983
1040.49,0.083770,396204,326700
1044.2,0.084180,394236,324770
1047.91,0.083174,392042,323712
1051.61,0.083205,389823,321857
1055.31,0.082877,388234,320787
1059,0.081941,387599,320953
1063.92,0.081464,386688,320551
1067.61,0.081027,386598,320799
1071.29,0.080897,387377,321541
1074.96,0.079260,388536,323721
1078.63,0.079758,389855,324448
1082.3,0.078467,391215,326549
1085.96,0.078104,393215,328493
1090.84,0.076742,396270,332085
1094.49,0.076645,398760,334246
1098.14,0.075298,400987,337157
1101.79,0.075645,403477,338980
1105.43,0.074849,406116,341823
1109.06,0.074449,407701,343473
1112.7,0.073516,409859,346034
1117.53,0.073714,412494,348100
1121.15,0.073798,414909,350070
1124.77,0.074253,416559,351094
1128.38,0.075244,418532,351953
1131.99,0.076364,419956,352241
1135.6,0.077116,421946,353298
1139.2,0.078880,423881,353479
1143.99,0.080960,426786,354201
1147.58,0.081497,428617,355281
1151.17,0.082486,431169,356584
1154.75,0.082870,433579,358260
1158.33,0.084264,436264,359323
1161.91,0.086440,439132,359878
1165.48,0.088272,442389,361021
1169.04,0.090615,446101,362091
1173.79,0.094002,451929,363972
1177.34,0.095880,456026,365687
1180.9,0.098065,461306,368065
1184.44,0.100179,467657,371320
1187.99,0.101126,473969,375512
1191.52,0.100717,479856,380534
1195.06,0.100977,487372,386263
1199.76,0.100616,497347,394497
1203.29,0.099400,504311,401142
1206.81,0.099011,511507,407231
1210.33,0.098533,519078,413713
1213.84,0.097837,527163,420831
1217.35,0.097626,534208,426662
1220.85,0.095949,540472,433335
1225.51,0.096176,549929,440687
1229.01,0.095261,556888,447205
1232.5,0.094694,562180,452045
1235.98,0.094231,567975,457192
1239.46,0.093065,574815,463941
1242.94,0.092504,582782,470980
1246.41,0.091972,591476,478592
1251.03,0.091497,604016,489273
1254.5,0.091582,612289,495877
1257.96,0.092137,619125,500774
1261.41,0.092708,624551,504499
1264.86,0.093165,629900,508284
1268.31,0.093579,634345,511383
1271.75,0.093784,638574,514550
1276.33,0.094568,642499,516778
1279.76,0.094161,645905,520005
1283.19,0.093561,648307,522660
1286.61,0.093659,650446,524267
1290.03,0.093336,652132,526017
1293.44,0.092390,653907,528598
1296.85,0.092527,655963,530093
1301.39,0.092456,657349,531300
1304.8,0.092423,657558,531509
1308.19,0.092278,658515,532461
1311.58,0.092422,658804,532518
1314.97,0.092736,659011,532300
1318.36,0.092929,658272,531467
1321.73,0.093265,658022,530855
1326.23,0.094276,657870,529498
1329.6,0.094725,656482,527834
1332.97,0.095696,654926,525408
1336.33,0.096714,653727,523218
1339.69,0.098176,652497,520478
1343.04,0.099502,649913,516836
1346.39,0.101516,647671,512671
1349.73,0.103630,645338,508344
1354.18,0.106352,641175,501908
1357.52,0.108516,638376,497234
1360.85,0.110243,635805,493266
1364.17,0.112371,633413,489008
1367.49,0.114271,631026,485038
1370.81,0.116815,628050,479931
1374.12,0.118804,625034,475444
1378.54,0.121797,620272,468582
1381.84,0.124469,616892,463170
1385.14,0.127391,613613,457618
1388.43,0.131110,611526,452173
1391.72,0.134830,610663,447684
1395.01,0.138829,610634,443560
1398.29,0.143288,611700,439795
1402.66,0.149483,614051,435233
1405.93,0.154188,616268,432097
1409.2,0.158629,617795,428761
1412.46,0.163653,618872,424569
1415.72,0.167228,619795,421716
1418.98,0.170677,620495,418853
1422.23,0.173927,621087,416127
1426.56,0.177938,621375,412492
1429.8,0.179704,621616,410978
1433.04,0.182646,622129,408540
1436.27,0.184949,621526,405985
1439.5,0.186985,621113,403818
1442.72,0.189192,620921,401647
1445.94,0.192108,620270,398541
1450.23,0.195175,618860,394837
1453.44,0.198057,617697,391488
1456.64,0.200688,616264,388221
1459.85,0.203739,614413,384345
1463.04,0.206520,612307,380583
1466.24,0.209942,610032,376193
1469.43,0.213573,607345,371418
1473.67,0.220240,603789,363618
1476.85,0.226263,601175,357057
1480.02,0.231791,597737,350525
1483.19,0.238885,594479,342966
1486.36,0.244376,591232,336808
1489.52,0.248728,587853,331544
1492.68,0.252788,583875,326236
1496.89,0.254881,578062,321435
1500.03,0.254669,574159,319421
1503.18,0.255344,570285,316773
1506.32,0.254835,565444,314452
1509.45,0.253231,560571,312896
1512.58,0.252046,555821,311092
1515.71,0.249142,550344,310093
1519.87,0.246547,543983,308346
1522.99,0.243893,538764,307260
1526.1,0.240779,533692,306557
1529.21,0.238514,527902,304817
1532.32,0.235124,521886,303705
1535.42,0.232497,515888,302036
1538.51,0.229517,509987,300637
1541.6,0.226784,503936,298945
1545.72,0.222664,494694,296260
1548.8,0.219601,488378,294547
1551.88,0.217275,481832,292160
1554.95,0.215464,474989,289214
1558.02,0.213403,467818,286203
1561.08,0.212997,460730,282130
1564.15,0.212765,454170,278262
1568.22,0.211724,444181,272795
1571.27,0.211098,436947,268739
1574.32,0.209664,429598,265093
1577.36,0.209035,422039,260806
1580.4,0.207234,414375,257134
1583.43,0.206686,406354,252475
1586.46,0.204538,398475,248807
1590.49,0.202914,388982,243790
1593.51,0.200899,380708,239714
1596.53,0.199337,372727,235534
1599.54,0.197039,365060,231913
1602.55,0.195213,357543,228095
1605.55,0.192517,349495,224349
1608.55,0.192025,341154,219243
1612.54,0.188347,330877,214447
1615.53,0.186910,322904,209973
1618.51,0.186331,315116,205182
1621.49,0.186100,307217,200145
1624.47,0.184741,299481,195717
1627.44,0.183285,292112,191542
1630.41,0.182704,284245,186633
1634.36,0.181586,274079,180422
1637.32,0.180872,266916,175996
1640.27,0.179567,259612,171695
1643.22,0.180131,251804,166315
1646.16,0.178451,244348,162016
1649.1,0.177318,236703,157357
1652.04,0.176320,228171,152034
1655.95,0.172724,215408,144723
1658.88,0.169779,204937,138625
1661.8,0.164351,193395,132463
1664.72,0.155412,179728,125662
1667.63,0.143565,163642,117579
1670.54,0.128448,146312,108851
1673.44,0.110858,128451,99513
1677.31,0.092628,105080,84897
1680.21,0.081511,88906,73692
1683.1,0.075306,75033,63088
1685.99,0.076379,63520,53276
1688.87,0.081727,53714,44500
1691.75,0.082184,45653,37782
1694.62,0.090311,39137,31789
1697.49,0.097969,33776,26955
1701.31,0.112305,28175,21755