Folder: textile_sorting_NIRSCAN_/samples/wool/wool-000811 (part 39)

File: Column 1_050552_20150331_120051.csv
Method:,Column 1,,
Host Date-Time:,31/3/15 @ 12:0:51,,
Header Version:,1,,
System Temp (C):,33.37,,
Detector Temp (C):,32.4,,
Humidity (%):,3.03,,
Lamp PD:,3820,,
Shift Vector Coefficients:,-10.5391,0.0761263,-0.000134223,,
Pixel to Wavelength Coefficients:,1775.68,-0.916766,-0.000235065,,
Serial Number:,5510004,,
Scan Config Name:,Column 1,,
Scan Config Type:,Slew,,
Section 1,,
Start wavelength (nm):,900,,
End wavelength (nm):,1700,,
Pattern Pixel Width (nm):,   7.03,,,,
Exposure (ms):,  0.635,,,,
Digital Resolution:,228,,
Num Repeats:,6,,
PGA Gain:,64,,
Total Measurement Time in sec:,  2.729,,
Wavelength (nm),Absorbance (AU),Reference Signal (unitless),Sample Signal (unitless)
901.51,0.032306,108485,100708
905.376,0.037387,121306,111300
909.237,0.042554,131909,119597
913.095,0.041936,143299,130109
916.948,0.042373,156982,142389
922.079,0.043642,179937,162734
925.923,0.044850,200504,180831
929.762,0.045697,222660,200422
933.597,0.045843,244426,219940
937.427,0.046304,263972,237276
941.254,0.045213,281845,253979
945.076,0.045452,297271,267732
950.165,0.045373,315605,284296
953.978,0.044876,328029,295826
957.786,0.046186,340470,306121
961.59,0.046162,352317,316790
965.389,0.045902,363056,326642
969.185,0.046540,373162,335241
972.976,0.046996,382632,343388
976.763,0.047528,391202,350649
981.806,0.048531,400190,357878
985.583,0.049188,406088,362604
989.355,0.049288,410162,366157
993.124,0.049974,412868,367991
996.888,0.050488,414263,368798
1000.65,0.051750,415476,368804
1004.4,0.052360,415479,368289
1009.41,0.053739,414358,366131
1013.15,0.053569,412923,365006
1016.89,0.054971,411526,362599
1020.63,0.054192,409066,361078
1024.36,0.054993,406777,358396
1028.09,0.054465,404427,356759
1031.82,0.054177,401911,354775
1036.78,0.053397,398410,352317
1040.49,0.053928,396204,349938
1044.2,0.053332,394236,348678
1047.91,0.052589,392042,347331
1051.61,0.052313,389823,345585
1055.31,0.051297,388234,344982
1059,0.051456,387599,344292
1063.92,0.050004,386688,344633
1067.61,0.049663,386598,344823
1071.29,0.048512,387377,346435
1074.96,0.048153,388536,347759
1078.63,0.048141,389855,348949
1082.3,0.046774,391215,351270
1085.96,0.046788,393215,353055
1090.84,0.045605,396270,356768
1094.49,0.045125,398760,359407
1098.14,0.045409,400987,361178
1101.79,0.044721,403477,363997
1105.43,0.044513,406116,366553
1109.06,0.044162,407701,368281
1112.7,0.044379,409859,370046
1117.53,0.044414,412494,372395
1121.15,0.045272,414909,373836
1124.77,0.045672,416559,374977
1128.38,0.046755,418532,375815
1131.99,0.048476,419956,375602
1135.6,0.050134,421946,375944
1139.2,0.051735,423881,376278
1143.99,0.054502,426786,376451
1147.58,0.055472,428617,377222
1151.17,0.056828,431169,378285
1154.75,0.058250,433579,379156
1158.33,0.060256,436264,379746
1161.91,0.062709,439132,380090
1165.48,0.064714,442389,381145
1169.04,0.066730,446101,382563
1173.79,0.071181,451929,383609
1177.34,0.073481,456026,385042
1180.9,0.075631,461306,387577
1184.44,0.077415,467657,391302
1187.99,0.078523,473969,395573
1191.52,0.077751,479856,401199
1195.06,0.077584,487372,407640
1199.76,0.076611,497347,416916
1203.29,0.075605,504311,423734
1206.81,0.075248,511507,430134
1210.33,0.074366,519078,437388
1213.84,0.073534,527163,445052
1217.35,0.072318,534208,452264
1220.85,0.071851,540472,458060
1225.51,0.071044,549929,466942
1229.01,0.070786,556888,473131
1232.5,0.070007,562180,478485
1235.98,0.068925,567975,484623
1239.46,0.068015,574815,491488
1242.94,0.067339,582782,499076
1246.41,0.066690,591476,507279
1251.03,0.066035,604016,518816
1254.5,0.066327,612289,525569
1257.96,0.067148,619125,530433
1261.41,0.067559,624551,534575
1264.86,0.067846,629900,538798
1268.31,0.068658,634345,541586
1271.75,0.069183,638574,544538
1276.33,0.069928,642499,546946
1279.76,0.069501,645905,550386
1283.19,0.069435,648307,552517
1286.61,0.069015,650446,554877
1290.03,0.068568,652132,556887
1293.44,0.068026,653907,559101
1296.85,0.067980,655963,560918
1301.39,0.067643,657349,562540
1304.8,0.067840,657558,562463
1308.19,0.067804,658515,563329
1311.58,0.068549,658804,562610
1314.97,0.068921,659011,562305
1318.36,0.069699,658272,560669
1321.73,0.069768,658022,560367
1326.23,0.071104,657870,558516
1329.6,0.072032,656482,556148
1332.97,0.073084,654926,553488
1336.33,0.074337,653727,550883
1339.69,0.076113,652497,547602
1343.04,0.078038,649913,543022
1346.39,0.080512,647671,538074
1349.73,0.082685,645338,533460
1354.18,0.085718,641175,526330
1357.52,0.088291,638376,520938
1360.85,0.090281,635805,516468
1364.17,0.092236,633413,512213
1367.49,0.094997,631026,507049
1370.81,0.097015,628050,502318
1374.12,0.099947,625034,496543
1378.54,0.103629,620272,488600
1381.84,0.107259,616892,481892
1385.14,0.111658,613613,474500
1388.43,0.116337,611526,467819
1391.72,0.121695,610663,461431
1395.01,0.127117,610634,455684
1398.29,0.133249,611700,450080
1402.66,0.140976,614051,443842
1405.93,0.147220,616268,439086
1409.2,0.153675,617795,433680
1412.46,0.159282,618872,428863
1415.72,0.164437,619795,424435
1418.98,0.168823,620495,420645
1422.23,0.172779,621087,417228
1426.56,0.177733,621375,412687
1429.8,0.181093,621616,409665
1433.04,0.183436,622129,407797
1436.27,0.186036,621526,404970
1439.5,0.187856,621113,403009
1442.72,0.191108,620921,399879
1445.94,0.193221,620270,397521
1450.23,0.197692,618860,392555
1453.44,0.199803,617697,389917
1456.64,0.202422,616264,386674
1459.85,0.205257,614413,383004
1463.04,0.207613,612307,379626
1466.24,0.210953,610032,375318
1469.43,0.214407,607345,370705
1473.67,0.219871,603789,363927
1476.85,0.224804,601175,358259
1480.02,0.229986,597737,351985
1483.19,0.235924,594479,345313
1486.36,0.241230,591232,339256
1489.52,0.246424,587853,333307
1492.68,0.249806,583875,328484
1496.89,0.252299,578062,323352
1500.03,0.252721,574159,320857
1503.18,0.252229,570285,319053
1506.32,0.251831,565444,316635
1509.45,0.250611,560571,314789
1512.58,0.248983,555821,313294
1515.71,0.247023,550344,311610
1519.87,0.243353,543983,310622
1522.99,0.240699,538764,309528
1526.1,0.237878,533692,308612
1529.21,0.234869,527902,307386
1532.32,0.231901,521886,305967
1535.42,0.229273,515888,304286
1538.51,0.225907,509987,303146
1541.6,0.222263,503936,302073
1545.72,0.218110,494694,299383
1548.8,0.215294,488378,297483
1551.88,0.212453,481832,295422
1554.95,0.210118,474989,292796
1558.02,0.208340,467818,289559
1561.08,0.207894,460730,285465
1564.15,0.206489,454170,282312
1568.22,0.204624,444181,277291
1571.27,0.204696,436947,272730
1574.32,0.202990,429598,269198
1577.36,0.201576,422039,265324
1580.4,0.200377,414375,261226
1583.43,0.199115,406354,256915
1586.46,0.197202,398475,253046
1590.49,0.193394,388982,249193
1593.51,0.192185,380708,244572
1596.53,0.190653,372727,240291
1599.54,0.189055,365060,236216
1602.55,0.185883,357543,233048
1605.55,0.183951,349495,228818
1608.55,0.181649,341154,224544
1612.54,0.179189,330877,219017
1615.53,0.175977,322904,215326
1618.51,0.176611,315116,209826
1621.49,0.174957,307217,205347
1624.47,0.172187,299481,201457
1627.44,0.172112,292112,196534
1630.41,0.170760,284245,191837
1634.36,0.169541,274079,185496
1637.32,0.168931,266916,180902
1640.27,0.166668,259612,176871
1643.22,0.165792,251804,171898
1646.16,0.165467,244348,166933
1649.1,0.164525,236703,162061
1652.04,0.163924,228171,156436
1655.95,0.160309,215408,148920
1658.88,0.159231,204937,142033
1661.8,0.156691,193395,134820
1664.72,0.152511,179728,126504
1667.63,0.142742,163642,117802
1670.54,0.132468,146312,107848
1673.44,0.123203,128451,96724
1677.31,0.111948,105080,81203
1680.21,0.105761,88906,69690
1683.1,0.103202,75033,59163
1685.99,0.110654,63520,49233
1688.87,0.116309,53714,41094
1691.75,0.119052,45653,34707
1694.62,0.124388,39137,29390
1697.49,0.133072,33776,24862
1701.31,0.124471,28175,21154

File: Column 1_050552_20150331_120054.csv
Method:,Column 1,,
Host Date-Time:,31/3/15 @ 12:0:54,,
Header Version:,1,,
System Temp (C):,33.35,,
Detector Temp (C):,32.35,,
Humidity (%):,2.98,,
Lamp PD:,3821,,
Shift Vector Coefficients:,-10.5391,0.0761263,-0.000134223,,
Pixel to Wavelength Coefficients:,1775.68,-0.916766,-0.000235065,,
Serial Number:,5510004,,
Scan Config Name:,Column 1,,
Scan Config Type:,Slew,,
Section 1,,
Start wavelength (nm):,900,,
End wavelength (nm):,1700,,
Pattern Pixel Width (nm):,   7.03,,,,
Exposure (ms):,  0.635,,,,
Digital Resolution:,228,,
Num Repeats:,6,,
PGA Gain:,64,,
Total Measurement Time in sec:,  2.692,,
Wavelength (nm),Absorbance (AU),Reference Signal (unitless),Sample Signal (unitless)
901.51,0.034030,108485,100309
905.376,0.038861,121306,110923
909.237,0.041807,131909,119803
913.095,0.042928,143299,129812
916.948,0.043981,156982,141863
922.079,0.043549,179937,162769
925.923,0.045501,200504,180560
929.762,0.045812,222660,200369
933.597,0.045671,244426,220027
937.427,0.045931,263972,237480
941.254,0.046658,281845,253135
945.076,0.046536,297271,267065
950.165,0.045821,315605,284003
953.978,0.045220,328029,295592
957.786,0.045865,340470,306347
961.59,0.046412,352317,316608
965.389,0.046271,363056,326364
969.185,0.046434,373162,335323
972.976,0.047030,382632,343361
976.763,0.047113,391202,350985
981.806,0.048418,400190,357971
985.583,0.048592,406088,363102
989.355,0.049984,410162,365571
993.124,0.049974,412868,367991
996.888,0.050684,414263,368631
1000.65,0.051779,415476,368780
1004.4,0.053153,415479,367617
1009.41,0.054304,414358,365655
1013.15,0.054491,412923,364232
1016.89,0.055135,411526,362462
1020.63,0.054795,409066,360577
1024.36,0.054724,406777,358618
1028.09,0.054927,404427,356380
1031.82,0.054364,401911,354622
1036.78,0.053663,398410,352101
1040.49,0.053237,396204,350495
1044.2,0.053596,394236,348466
1047.91,0.052832,392042,347137
1051.61,0.052667,389823,345303
1055.31,0.052333,388234,344160
1059,0.052034,387599,343834
1063.92,0.050795,386688,344006
1067.61,0.049570,386598,344897
1071.29,0.048650,387377,346325
1074.96,0.048351,388536,347600
1078.63,0.048313,389855,348811
1082.3,0.047056,391215,351042
1085.96,0.046470,393215,353313
1090.84,0.045954,396270,356482
1094.49,0.046170,398760,358543
1098.14,0.045545,400987,361065
1101.79,0.044998,403477,363765
1105.43,0.044695,406116,366400
1109.06,0.044567,407701,367938
1112.7,0.044400,409859,370028
1117.53,0.044006,412494,372745
1121.15,0.045713,414909,373456
1124.77,0.046080,416559,374625
1128.38,0.047492,418532,375177
1131.99,0.048448,419956,375626
1135.6,0.050133,421946,375945
1139.2,0.051840,423881,376187
1143.99,0.054382,426786,376555
1147.58,0.055556,428617,377149
1151.17,0.057000,431169,378136
1154.75,0.058273,433579,379136
1158.33,0.060367,436264,379649
1161.91,0.062299,439132,380449
1165.48,0.064642,442389,381208
1169.04,0.067371,446101,381999
1173.79,0.071482,451929,383344
1177.34,0.073377,456026,385135
1180.9,0.076168,461306,387098
1184.44,0.077300,467657,391406
1187.99,0.078866,473969,395261
1191.52,0.077900,479856,401061
1195.06,0.077815,487372,407423
1199.76,0.077258,497347,416295
1203.29,0.075598,504311,423741
1206.81,0.074786,511507,430592
1210.33,0.074570,519078,437182
1213.84,0.073917,527163,444660
1217.35,0.072735,534208,451830
1220.85,0.072146,540472,457749
1225.51,0.070940,549929,467053
1229.01,0.070585,556888,473350
1232.5,0.070229,562180,478241
1235.98,0.069466,567975,484020
1239.46,0.068045,574815,491454
1242.94,0.067284,582782,499140
1246.41,0.066362,591476,507663
1251.03,0.066730,604016,517987
1254.5,0.066509,612289,525349
1257.96,0.066865,619125,530779
1261.41,0.067744,624551,534348
1264.86,0.068333,629900,538194
1268.31,0.068679,634345,541560
1271.75,0.069849,638574,543704
1276.33,0.069879,642499,547008
1279.76,0.069753,645905,550067
1283.19,0.069144,648307,552888
1286.61,0.069073,650446,554802
1290.03,0.068484,652132,556995
1293.44,0.068040,653907,559082
1296.85,0.068350,655963,560440
1301.39,0.067867,657349,562250
1304.8,0.067688,657558,562660
1308.19,0.068143,658515,562889
1311.58,0.068563,658804,562591
1314.97,0.069005,659011,562196
1318.36,0.069546,658272,560866
1321.73,0.069796,658022,560331
1326.23,0.071050,657870,558586
1329.6,0.072225,656482,555902
1332.97,0.072947,654926,553663
1336.33,0.074256,653727,550986
1339.69,0.076325,652497,547336
1343.04,0.078195,649913,542826
1346.39,0.080262,647671,538384
1349.73,0.082879,645338,533222
1354.18,0.085943,641175,526058
1357.52,0.087892,638376,521416
1360.85,0.090181,635805,516586
1364.17,0.092695,633413,511672
1367.49,0.094787,631026,507295
1370.81,0.097660,628050,501573
1374.12,0.100203,625034,496250
1378.54,0.103415,620272,488840
1381.84,0.107394,616892,481743
1385.14,0.111640,613613,474520
1388.43,0.116676,611526,467454
1391.72,0.121557,610663,461577
1395.01,0.126816,610634,456000
1398.29,0.133300,611700,450027
1402.66,0.140853,614051,443968
1405.93,0.147453,616268,438851
1409.2,0.153191,617795,434164
1412.46,0.158880,618872,429260
1415.72,0.164018,619795,424845
1418.98,0.168669,620495,420794
1422.23,0.173055,621087,416963
1426.56,0.177572,621375,412840
1429.8,0.180695,621616,410041
1433.04,0.183641,622129,407605
1436.27,0.185726,621526,405260
1439.5,0.188304,621113,402593
1442.72,0.191139,620921,399850
1445.94,0.193134,620270,397600
1450.23,0.196575,618860,393566
1453.44,0.200068,617697,389679
1456.64,0.202496,616264,386608
1459.85,0.205257,614413,383004
1463.04,0.208317,612307,379011
1466.24,0.211559,610032,374795
1469.43,0.214446,607345,370672
1473.67,0.219598,603789,364156
1476.85,0.224324,601175,358655
1480.02,0.230222,597737,351794
1483.19,0.236384,594479,344947
1486.36,0.241316,591232,339189
1489.52,0.246036,587853,333605
1492.68,0.249763,583875,328516
1496.89,0.251690,578062,323806
1500.03,0.252887,574159,320734
1503.18,0.251983,570285,319234
1506.32,0.252150,565444,316402
1509.45,0.251025,560571,314489
1512.58,0.248970,555821,313303
1515.71,0.246630,550344,311892
1519.87,0.242965,543983,310900
1522.99,0.240937,538764,309358
1526.1,0.238531,533692,308148
1529.21,0.235108,527902,307217
1532.32,0.231986,521886,305907
1535.42,0.229388,515888,304206
1538.51,0.226006,509987,303077
1541.6,0.222090,503936,302194
1545.72,0.218336,494694,299227
1548.8,0.215384,488378,297421
1551.88,0.213091,481832,294988
1554.95,0.210777,474989,292352
1558.02,0.208742,467818,289291
1561.08,0.206791,460730,286191
1564.15,0.206494,454170,282309
1568.22,0.204815,444181,277169
1571.27,0.204419,436947,272904
1574.32,0.203459,429598,268908
1577.36,0.201434,422039,265411
1580.4,0.200382,414375,261223
1583.43,0.198694,406354,257164
1586.46,0.196490,398475,253461
1590.49,0.194722,388982,248432
1593.51,0.192532,380708,244377
1596.53,0.189884,372727,240717
1599.54,0.188313,365060,236620
1602.55,0.186209,357543,232873
1605.55,0.183528,349495,229041
1608.55,0.181850,341154,224440
1612.54,0.179018,330877,219103
1615.53,0.177237,322904,214702
1618.51,0.176551,315116,209855
1621.49,0.174946,307217,205352
1624.47,0.174097,299481,200573
1627.44,0.172399,292112,196404
1630.41,0.170351,284245,192018
1634.36,0.169237,274079,185626
1637.32,0.169162,266916,180806
1640.27,0.168691,259612,176049
1643.22,0.166869,251804,171472
1646.16,0.165615,244348,166876
1649.1,0.166424,236703,161354
1652.04,0.164282,228171,156307
1655.95,0.160525,215408,148846
1658.88,0.159283,204937,142016
1661.8,0.156070,193395,135013
1664.72,0.150969,179728,126954
1667.63,0.142930,163642,117751
1670.54,0.134187,146312,107422
1673.44,0.122382,128451,96907
1677.31,0.111841,105080,81223
1680.21,0.108681,88906,69223
1683.1,0.110232,75033,58213
1685.99,0.109377,63520,49378
1688.87,0.117420,53714,40989
1691.75,0.123126,45653,34383
1694.62,0.130309,39137,28992
1697.49,0.131381,33776,24959
1701.31,0.134881,28175,20653

File: Column 1_050552_20150331_120056.csv
Method:,Column 1,,
Host Date-Time:,31/3/15 @ 12:0:56,,
Header Version:,1,,
System Temp (C):,33.35,,
Detector Temp (C):,32.35,,
Humidity (%):,2.93,,
Lamp PD:,3820,,
Shift Vector Coefficients:,-10.5391,0.0761263,-0.000134223,,
Pixel to Wavelength Coefficients:,1775.68,-0.916766,-0.000235065,,
Serial Number:,5510004,,
Scan Config Name:,Column 1,,
Scan Config Type:,Slew,,
Section 1,,
Start wavelength (nm):,900,,
End wavelength (nm):,1700,,
Pattern Pixel Width (nm):,   7.03,,,,
Exposure (ms):,  0.635,,,,
Digital Resolution:,228,,
Num Repeats:,6,,
PGA Gain:,64,,
Total Measurement Time in sec:,  2.671,,
Wavelength (nm),Absorbance (AU),Reference Signal (unitless),Sample Signal (unitless)
901.51,0.035040,108485,100076
905.376,0.040363,121306,110540
909.237,0.042017,131909,119745
913.095,0.042507,143299,129938
916.948,0.043378,156982,142060
922.079,0.044232,179937,162513
925.923,0.044879,200504,180819
929.762,0.046547,222660,200030
933.597,0.046570,244426,219572
937.427,0.046335,263972,237259
941.254,0.045471,281845,253828
945.076,0.045619,297271,267629
950.165,0.045712,315605,284074
953.978,0.045718,328029,295253
957.786,0.045528,340470,306585
961.59,0.046495,352317,316547
965.389,0.046560,363056,326147
969.185,0.046257,373162,335460
972.976,0.047053,382632,343343
976.763,0.047542,391202,350638
981.806,0.048360,400190,358019
985.583,0.049135,406088,362648
989.355,0.049791,410162,365733
993.124,0.049828,412868,368115
996.888,0.050667,414263,368646
1000.65,0.051454,415476,369056
1004.4,0.053190,415479,367586
1009.41,0.053916,414358,365982
1013.15,0.054229,412923,364452
1016.89,0.054731,411526,362799
1020.63,0.054770,409066,360598
1024.36,0.055005,406777,358386
1028.09,0.054464,404427,356760
1031.82,0.054301,401911,354674
1036.78,0.054574,398410,351363
1040.49,0.053898,396204,349962
1044.2,0.053409,394236,348616
1047.91,0.052815,392042,347150
1051.61,0.052504,389823,345433
1055.31,0.051875,388234,344523
1059,0.051550,387599,344217
1063.92,0.049987,386688,344646
1067.61,0.049791,386598,344722
1071.29,0.049336,387377,345778
1074.96,0.048715,388536,347309
1078.63,0.048085,389855,348994
1082.3,0.047490,391215,350692
1085.96,0.047021,393215,352865
1090.84,0.045952,396270,356483
1094.49,0.046110,398760,358593
1098.14,0.045339,400987,361236
1101.79,0.044820,403477,363914
1105.43,0.044520,406116,366547
1109.06,0.044966,407701,367600
1112.7,0.044381,409859,370044
1117.53,0.044157,412494,372615
1121.15,0.045929,414909,373271
1124.77,0.045913,416559,374769
1128.38,0.046881,418532,375706
1131.99,0.048296,419956,375758
1135.6,0.050051,421946,376016
1139.2,0.051793,423881,376228
1143.99,0.054558,426786,376402
1147.58,0.055681,428617,377041
1151.17,0.057049,431169,378093
1154.75,0.058692,433579,378771
1158.33,0.060174,436264,379818
1161.91,0.062625,439132,380163
1165.48,0.065399,442389,380544
1169.04,0.067130,446101,382211
1173.79,0.071354,451929,383457
1177.34,0.073883,456026,384686
1180.9,0.075705,461306,387511
1184.44,0.077570,467657,391163
1187.99,0.078731,473969,395384
1191.52,0.077965,479856,401001
1195.06,0.078269,487372,406997
1199.76,0.076823,497347,416712
1203.29,0.076211,504311,423143
1206.81,0.075248,511507,430134
1210.33,0.074685,519078,437067
1213.84,0.073725,527163,444856
1217.35,0.073129,534208,451421
1220.85,0.072321,540472,457564
1225.51,0.070953,549929,467040
1229.01,0.070226,556888,473742
1232.5,0.069650,562180,478879
1235.98,0.069097,567975,484431
1239.46,0.068340,574815,491120
1242.94,0.067137,582782,499309
1246.41,0.066490,591476,507513
1251.03,0.066266,604016,518540
1254.5,0.066870,612289,524912
1257.96,0.067146,619125,530435
1261.41,0.067434,624551,534729
1264.86,0.068276,629900,538264
1268.31,0.068722,634345,541506
1271.75,0.069771,638574,543801
1276.33,0.069871,642499,547018
1279.76,0.069923,645905,549852
1283.19,0.069348,648307,552628
1286.61,0.069036,650446,554850
1290.03,0.068714,652132,556700
1293.44,0.068186,653907,558895
1296.85,0.068112,655963,560747
1301.39,0.068149,657349,561884
1304.8,0.068171,657558,562035
1308.19,0.067844,658515,563277
1311.58,0.068594,658804,562552
1314.97,0.068911,659011,562317
1318.36,0.069658,658272,560722
1321.73,0.069968,658022,560109
1326.23,0.071257,657870,558320
1329.6,0.072261,656482,555855
1332.97,0.073003,654926,553591
1336.33,0.074388,653727,550819
1339.69,0.076217,652497,547471
1343.04,0.078316,649913,542674
1346.39,0.080376,647671,538243
1349.73,0.082392,645338,533821
1354.18,0.086058,641175,525919
1357.52,0.087822,638376,521500
1360.85,0.090396,635805,516331
1364.17,0.092703,633413,511663
1367.49,0.095235,631026,506772
1370.81,0.097219,628050,502083
1374.12,0.099942,625034,496548
1378.54,0.103619,620272,488611
1381.84,0.107511,616892,481613
1385.14,0.111665,613613,474493
1388.43,0.116465,611526,467681
1391.72,0.121876,610663,461239
1395.01,0.126796,610634,456021
1398.29,0.132849,611700,450494
1402.66,0.140576,614051,444251
1405.93,0.146958,616268,439351
1409.2,0.153531,617795,433824
1412.46,0.159330,618872,428816
1415.72,0.164195,619795,424671
1418.98,0.168487,620495,420970
1422.23,0.172808,621087,417200
1426.56,0.177646,621375,412770
1429.8,0.180503,621616,410222
1433.04,0.183455,622129,407780
1436.27,0.185794,621526,405196
1439.5,0.188678,621113,402247
1442.72,0.190802,620921,400161
1445.94,0.193577,620270,397195
1450.23,0.196781,618860,393379
1453.44,0.199477,617697,390210
1456.64,0.202612,616264,386505
1459.85,0.205297,614413,382969
1463.04,0.207776,612307,379484
1466.24,0.210596,610032,375627
1469.43,0.213940,607345,371104
1473.67,0.219515,603789,364225
1476.85,0.224872,601175,358203
1480.02,0.230104,597737,351889
1483.19,0.236151,594479,345132
1486.36,0.241956,591232,338690
1489.52,0.246474,587853,333269
1492.68,0.249729,583875,328542
1496.89,0.251884,578062,323661
1500.03,0.252834,574159,320773
1503.18,0.253077,570285,318431
1506.32,0.252409,565444,316214
1509.45,0.250152,560571,315122
1512.58,0.248474,555821,313661
1515.71,0.246846,550344,311737
1519.87,0.243174,543983,310750
1522.99,0.241286,538764,309110
1526.1,0.237993,533692,308530
1529.21,0.235760,527902,306756
1532.32,0.232192,521886,305762
1535.42,0.229085,515888,304418
1538.51,0.226287,509987,302881
1541.6,0.222977,503936,301577
1545.72,0.218745,494694,298945
1548.8,0.215697,488378,297207
1551.88,0.213143,481832,294953
1554.95,0.211148,474989,292103
1558.02,0.208781,467818,289265
1561.08,0.207091,460730,285993
1564.15,0.206789,454170,282117
1568.22,0.205159,444181,276950
1571.27,0.204591,436947,272796
1574.32,0.203502,429598,268881
1577.36,0.202259,422039,264907
1580.4,0.200899,414375,260912
1583.43,0.198656,406354,257187
1586.46,0.197018,398475,253153
1590.49,0.194488,388982,248566
1593.51,0.192820,380708,244215
1596.53,0.190489,372727,240382
1599.54,0.188338,365060,236606
1602.55,0.186148,357543,232906
1605.55,0.184131,349495,228723
1608.55,0.181746,341154,224494
1612.54,0.179850,330877,218684
1615.53,0.176397,322904,215118
1618.51,0.175526,315116,210351
1621.49,0.175228,307217,205219
1624.47,0.173288,299481,200947
1627.44,0.171862,292112,196647
1630.41,0.171270,284245,191612
1634.36,0.169965,274079,185315
1637.32,0.169063,266916,180847
1640.27,0.167644,259612,176474
1643.22,0.166452,251804,171637
1646.16,0.165240,244348,167020
1649.1,0.164716,236703,161990
1652.04,0.163252,228171,156678
1655.95,0.161974,215408,148350
1658.88,0.160496,204937,141620
1661.8,0.157252,193395,134646
1664.72,0.151678,179728,126747
1667.63,0.142480,163642,117873
1670.54,0.134130,146312,107436
1673.44,0.122571,128451,96865
1677.31,0.111098,105080,81362
1680.21,0.108292,88906,69285
1683.1,0.108393,75033,58460
1685.99,0.114829,63520,48762
1688.87,0.119268,53714,40815
1691.75,0.118977,45653,34713
1694.62,0.125424,39137,29320
1697.49,0.128675,33776,25115
1701.31,0.139213,28175,20448