Folder: textile_sorting_NIRSCAN_/samples/wool/wool-000811 (part 146)

File: Column 1_050612_20150331_122929.csv
Method:,Column 1,,
Host Date-Time:,31/3/15 @ 12:29:29,,
Header Version:,1,,
System Temp (C):,34.07,,
Detector Temp (C):,34.92,,
Humidity (%):,1.66,,
Lamp PD:,3818,,
Shift Vector Coefficients:,-10.5391,0.0761263,-0.000134223,,
Pixel to Wavelength Coefficients:,1775.68,-0.916766,-0.000235065,,
Serial Number:,5510004,,
Scan Config Name:,Column 1,,
Scan Config Type:,Slew,,
Section 1,,
Start wavelength (nm):,900,,
End wavelength (nm):,1700,,
Pattern Pixel Width (nm):,   7.03,,,,
Exposure (ms):,  0.635,,,,
Digital Resolution:,228,,
Num Repeats:,6,,
PGA Gain:,64,,
Total Measurement Time in sec:,  2.675,,
Wavelength (nm),Absorbance (AU),Reference Signal (unitless),Sample Signal (unitless)
901.51,0.069153,108485,92516
905.376,0.075508,121306,101947
909.237,0.078128,131909,110191
913.095,0.077290,143299,119937
916.948,0.080033,156982,130562
922.079,0.080189,179937,149600
925.923,0.081610,200504,166155
929.762,0.082525,222660,184127
933.597,0.082901,244426,201951
937.427,0.080418,263972,219351
941.254,0.079873,281845,234497
945.076,0.078981,297271,247840
950.165,0.078686,315605,263304
953.978,0.077835,328029,274206
957.786,0.077472,340470,284844
961.59,0.077642,352317,294640
965.389,0.077570,363056,303671
969.185,0.077989,373162,311823
972.976,0.077310,382632,320237
976.763,0.078334,391202,326638
981.806,0.078223,400190,334228
985.583,0.078851,406088,338664
989.355,0.080034,410162,341131
993.124,0.080064,412868,343358
996.888,0.081011,414263,343768
1000.65,0.081360,415476,344497
1004.4,0.082707,415479,343433
1009.41,0.084134,414358,341383
1013.15,0.084219,412923,340134
1016.89,0.085034,411526,338348
1020.63,0.084668,409066,336609
1024.36,0.084537,406777,334826
1028.09,0.084462,404427,332949
1031.82,0.083694,401911,331464
1036.78,0.084026,398410,328325
1040.49,0.083792,396204,326683
1044.2,0.083854,394236,325014
1047.91,0.084012,392042,323088
1051.61,0.083203,389823,321858
1055.31,0.082871,388234,320791
1059,0.082228,387599,320741
1063.92,0.081976,386688,320173
1067.61,0.080675,386598,321059
1071.29,0.080358,387377,321941
1074.96,0.080456,388536,322831
1078.63,0.079464,389855,324668
1082.3,0.078542,391215,326493
1085.96,0.077273,393215,329122
1090.84,0.076885,396270,331976
1094.49,0.076454,398760,334393
1098.14,0.075208,400987,337227
1101.79,0.074988,403477,339493
1105.43,0.075467,406116,341337
1109.06,0.074104,407701,343746
1112.7,0.073630,409859,345943
1117.53,0.073771,412494,348054
1121.15,0.073736,414909,350120
1124.77,0.073943,416559,351345
1128.38,0.075040,418532,352118
1131.99,0.076096,419956,352458
1135.6,0.077237,421946,353199
1139.2,0.078249,423881,353993
1143.99,0.080531,426786,354551
1147.58,0.081402,428617,355359
1151.17,0.082689,431169,356417
1154.75,0.083098,433579,358072
1158.33,0.084610,436264,359037
1161.91,0.086246,439132,360039
1165.48,0.088582,442389,360763
1169.04,0.091093,446101,361693
1173.79,0.094161,451929,363839
1177.34,0.096292,456026,365340
1180.9,0.098304,461306,367862
1184.44,0.100531,467657,371019
1187.99,0.100737,473969,375849
1191.52,0.100947,479856,380333
1195.06,0.101204,487372,386062
1199.76,0.100764,497347,394362
1203.29,0.099407,504311,401136
1206.81,0.098939,511507,407298
1210.33,0.098342,519078,413895
1213.84,0.097724,527163,420941
1217.35,0.097617,534208,426671
1220.85,0.096769,540472,432518
1225.51,0.096085,549929,440780
1229.01,0.095380,556888,447083
1232.5,0.094857,562180,451875
1235.98,0.093988,567975,457447
1239.46,0.093124,574815,463878
1242.94,0.092113,582782,471404
1246.41,0.091574,591476,479030
1251.03,0.091657,604016,489093
1254.5,0.091567,612289,495895
1257.96,0.091853,619125,501101
1261.41,0.092668,624551,504545
1264.86,0.093242,629900,508194
1268.31,0.094229,634345,510619
1271.75,0.094261,638574,513985
1276.33,0.094678,642499,516648
1279.76,0.094660,645905,519408
1283.19,0.093666,648307,522534
1286.61,0.093347,650446,524644
1290.03,0.093037,652132,526379
1293.44,0.092512,653907,528450
1296.85,0.092839,655963,529713
1301.39,0.091963,657349,531904
1304.8,0.092260,657558,531709
1308.19,0.092461,658515,532236
1311.58,0.092045,658804,532980
1314.97,0.092866,659011,532141
1318.36,0.093486,658272,530786
1321.73,0.093451,658022,530627
1326.23,0.093932,657870,529917
1329.6,0.095228,656482,527224
1332.97,0.095832,654926,525243
1336.33,0.096772,653727,523148
1339.69,0.098222,652497,520423
1343.04,0.099793,649913,516490
1346.39,0.101813,647671,512320
1349.73,0.103638,645338,508334
1354.18,0.106334,641175,501929
1357.52,0.108543,638376,497203
1360.85,0.110544,635805,492924
1364.17,0.112399,633413,488977
1367.49,0.115000,631026,484225
1370.81,0.116921,628050,479814
1374.12,0.118872,625034,475370
1378.54,0.121735,620272,468648
1381.84,0.124816,616892,462800
1385.14,0.127831,613613,457155
1388.43,0.131068,611526,452217
1391.72,0.134995,610663,447514
1395.01,0.139176,610634,443205
1398.29,0.143417,611700,439665
1402.66,0.149946,614051,434769
1405.93,0.154286,616268,432000
1409.2,0.158473,617795,428915
1412.46,0.163321,618872,424893
1415.72,0.167547,619795,421406
1418.98,0.170362,620495,419157
1422.23,0.173650,621087,416392
1426.56,0.177937,621375,412493
1429.8,0.180140,621616,410565
1433.04,0.182202,622129,408958
1436.27,0.184890,621526,406040
1439.5,0.186751,621113,404036
1442.72,0.189493,620921,401369
1445.94,0.191183,620270,399391
1450.23,0.195136,618860,394872
1453.44,0.198802,617697,390817
1456.64,0.200989,616264,387952
1459.85,0.203747,614413,384338
1463.04,0.206648,612307,380471
1466.24,0.209784,610032,376330
1469.43,0.213629,607345,371370
1473.67,0.220065,603789,363764
1476.85,0.225876,601175,357376
1480.02,0.232327,597737,350093
1483.19,0.238836,594479,343005
1486.36,0.244764,591232,336507
1489.52,0.249600,587853,330879
1492.68,0.252587,583875,326387
1496.89,0.254733,578062,321545
1500.03,0.255425,574159,318865
1503.18,0.255179,570285,316893
1506.32,0.255018,565444,314320
1509.45,0.253183,560571,312930
1512.58,0.251955,555821,311157
1515.71,0.249536,550344,309812
1519.87,0.246220,543983,308578
1522.99,0.243910,538764,307248
1526.1,0.241371,533692,306140
1529.21,0.238148,527902,305074
1532.32,0.235333,521886,303559
1535.42,0.232067,515888,302335
1538.51,0.229911,509987,300364
1541.6,0.226770,503936,298955
1545.72,0.223123,494694,295947
1548.8,0.219669,488378,294501
1551.88,0.217682,481832,291886
1554.95,0.215765,474989,289014
1558.02,0.214291,467818,285618
1561.08,0.212480,460730,282466
1564.15,0.212460,454170,278457
1568.22,0.211268,444181,273081
1571.27,0.210507,436947,269105
1574.32,0.209861,429598,264973
1577.36,0.209078,422039,260780
1580.4,0.207141,414375,257189
1583.43,0.206088,406354,252823
1586.46,0.203606,398475,249342
1590.49,0.202994,388982,243745
1593.51,0.200832,380708,239751
1596.53,0.199684,372727,235346
1599.54,0.196794,365060,232044
1602.55,0.195656,357543,227862
1605.55,0.192823,349495,224191
1608.55,0.191429,341154,219544
1612.54,0.189364,330877,213945
1615.53,0.187169,322904,209848
1618.51,0.186943,315116,204893
1621.49,0.186708,307217,199865
1624.47,0.184390,299481,195875
1627.44,0.183378,292112,191501
1630.41,0.182753,284245,186612
1634.36,0.180639,274079,180816
1637.32,0.180578,266916,176115
1640.27,0.181032,259612,171117
1643.22,0.180160,251804,166304
1646.16,0.178488,244348,162002
1649.1,0.176548,236703,157636
1652.04,0.177530,228171,151611
1655.95,0.172583,215408,144770
1658.88,0.169231,204937,138800
1661.8,0.163437,193395,132742
1664.72,0.157199,179728,125146
1667.63,0.143211,163642,117675
1670.54,0.128603,146312,108812
1673.44,0.111421,128451,99384
1677.31,0.092955,105080,84833
1680.21,0.078902,88906,74136
1683.1,0.075072,75033,63122
1685.99,0.075036,63520,53441
1688.87,0.077039,53714,44983
1691.75,0.082644,45653,37742
1694.62,0.090311,39137,31789
1697.49,0.092684,33776,27285
1701.31,0.109519,28175,21895

File: Column 1_050612_20150331_122932.csv
Method:,Column 1,,
Host Date-Time:,31/3/15 @ 12:29:32,,
Header Version:,1,,
System Temp (C):,34.11,,
Detector Temp (C):,34.9,,
Humidity (%):,1.66,,
Lamp PD:,3818,,
Shift Vector Coefficients:,-10.5391,0.0761263,-0.000134223,,
Pixel to Wavelength Coefficients:,1775.68,-0.916766,-0.000235065,,
Serial Number:,5510004,,
Scan Config Name:,Column 1,,
Scan Config Type:,Slew,,
Section 1,,
Start wavelength (nm):,900,,
End wavelength (nm):,1700,,
Pattern Pixel Width (nm):,   7.03,,,,
Exposure (ms):,  0.635,,,,
Digital Resolution:,228,,
Num Repeats:,6,,
PGA Gain:,64,,
Total Measurement Time in sec:,  2.665,,
Wavelength (nm),Absorbance (AU),Reference Signal (unitless),Sample Signal (unitless)
901.51,0.069195,108485,92507
905.376,0.074912,121306,102087
909.237,0.076991,131909,110480
913.095,0.078748,143299,119535
916.948,0.078774,156982,130941
922.079,0.081000,179937,149321
925.923,0.082078,200504,165976
929.762,0.082662,222660,184069
933.597,0.082392,244426,202188
937.427,0.081058,263972,219028
941.254,0.079880,281845,234493
945.076,0.078951,297271,247857
950.165,0.078592,315605,263361
953.978,0.077175,328029,274623
957.786,0.077540,340470,284799
961.59,0.077362,352317,294830
965.389,0.077480,363056,303734
969.185,0.077750,373162,311995
972.976,0.077650,382632,319986
976.763,0.078463,391202,326541
981.806,0.078472,400190,334037
985.583,0.079651,406088,338041
989.355,0.079675,410162,341413
993.124,0.080149,412868,343291
996.888,0.080512,414263,344163
1000.65,0.081460,415476,344418
1004.4,0.082651,415479,343477
1009.41,0.083761,414358,341676
1013.15,0.084024,412923,340287
1016.89,0.084410,411526,338834
1020.63,0.084824,409066,336488
1024.36,0.084820,406777,334608
1028.09,0.084127,404427,333206
1031.82,0.085050,401911,330430
1036.78,0.084013,398410,328335
1040.49,0.083341,396204,327023
1044.2,0.083476,394236,325297
1047.91,0.083430,392042,323521
1051.61,0.082803,389823,322155
1055.31,0.082601,388234,320991
1059,0.082477,387599,320557
1063.92,0.080849,386688,321005
1067.61,0.080715,386598,321029
1071.29,0.079929,387377,322259
1074.96,0.080090,388536,323103
1078.63,0.079199,389855,324866
1082.3,0.078313,391215,326665
1085.96,0.077739,393215,328769
1090.84,0.076765,396270,332067
1094.49,0.075891,398760,334827
1098.14,0.075637,400987,336894
1101.79,0.075200,403477,339327
1105.43,0.075425,406116,341370
1109.06,0.074064,407701,343778
1112.7,0.074090,409859,345577
1117.53,0.073049,412494,348633
1121.15,0.073761,414909,350100
1124.77,0.073789,416559,351469
1128.38,0.074651,418532,352434
1131.99,0.075785,419956,352711
1135.6,0.077683,421946,352837
1139.2,0.078812,423881,353535
1143.99,0.080935,426786,354222
1147.58,0.081354,428617,355398
1151.17,0.082225,431169,356798
1154.75,0.083188,433579,357998
1158.33,0.084482,436264,359143
1161.91,0.085955,439132,360280
1165.48,0.088136,442389,361134
1169.04,0.090835,446101,361908
1173.79,0.094215,451929,363794
1177.34,0.096440,456026,365216
1180.9,0.098500,461306,367696
1184.44,0.099978,467657,371492
1187.99,0.100924,473969,375687
1191.52,0.100913,479856,380363
1195.06,0.101370,487372,385914
1199.76,0.100815,497347,394316
1203.29,0.099902,504311,400679
1206.81,0.099130,511507,407119
1210.33,0.098629,519078,413622
1213.84,0.097695,527163,420969
1217.35,0.097605,534208,426683
1220.85,0.097140,540472,432149
1225.51,0.095714,549929,441156
1229.01,0.094810,556888,447670
1232.5,0.094993,562180,451734
1235.98,0.094650,567975,456751
1239.46,0.093050,574815,463957
1242.94,0.092170,582782,471342
1246.41,0.091634,591476,478964
1251.03,0.091305,604016,489490
1254.5,0.091197,612289,496317
1257.96,0.092151,619125,500757
1261.41,0.092617,624551,504604
1264.86,0.093172,629900,508276
1268.31,0.093439,634345,511548
1271.75,0.094006,638574,514287
1276.33,0.094622,642499,516714
1279.76,0.094417,645905,519699
1283.19,0.094105,648307,522006
1286.61,0.093369,650446,524617
1290.03,0.093289,652132,526074
1293.44,0.093102,653907,527733
1296.85,0.092411,655963,530235
1301.39,0.091862,657349,532028
1304.8,0.092111,657558,531892
1308.19,0.092267,658515,532474
1311.58,0.092553,658804,532357
1314.97,0.092378,659011,532739
1318.36,0.092637,658272,531824
1321.73,0.092952,658022,531237
1326.23,0.094432,657870,529308
1329.6,0.094684,656482,527885
1332.97,0.095829,654926,525246
1336.33,0.097100,653727,522753
1339.69,0.098296,652497,520334
1343.04,0.099812,649913,516468
1346.39,0.101506,647671,512682
1349.73,0.103702,645338,508259
1354.18,0.106376,641175,501881
1357.52,0.108417,638376,497347
1360.85,0.110408,635805,493078
1364.17,0.112309,633413,489078
1367.49,0.114942,631026,484290
1370.81,0.116558,628050,480215
1374.12,0.118541,625034,475732
1378.54,0.121500,620272,468902
1381.84,0.124054,616892,463613
1385.14,0.127493,613613,457511
1388.43,0.131143,611526,452139
1391.72,0.135315,610663,447184
1395.01,0.138781,610634,443609
1398.29,0.143508,611700,439572
1402.66,0.149406,614051,435310
1405.93,0.154513,616268,431774
1409.2,0.159198,617795,428200
1412.46,0.163046,618872,425162
1415.72,0.167461,619795,421490
1418.98,0.170988,620495,418553
1422.23,0.174750,621087,415339
1426.56,0.177675,621375,412742
1429.8,0.180271,621616,410441
1433.04,0.182877,622129,408323
1436.27,0.184490,621526,406415
1439.5,0.186833,621113,403959
1442.72,0.188953,620921,401868
1445.94,0.191422,620270,399171
1450.23,0.195338,618860,394688
1453.44,0.197793,617697,391726
1456.64,0.200824,616264,388099
1459.85,0.203586,614413,384481
1463.04,0.205998,612307,381041
1466.24,0.210122,610032,376037
1469.43,0.213867,607345,371166
1473.67,0.220135,603789,363706
1476.85,0.225863,601175,357386
1480.02,0.231724,597737,350579
1483.19,0.238214,594479,343497
1486.36,0.244430,591232,336766
1489.52,0.249059,587853,331291
1492.68,0.252357,583875,326560
1496.89,0.254482,578062,321731
1500.03,0.255660,574159,318693
1503.18,0.255001,570285,317023
1506.32,0.253980,565444,315072
1509.45,0.252864,560571,313160
1512.58,0.251201,555821,311698
1515.71,0.249312,550344,309972
1519.87,0.245662,543983,308975
1522.99,0.243346,538764,307647
1526.1,0.241564,533692,306004
1529.21,0.238335,527902,304943
1532.32,0.235395,521886,303515
1535.42,0.232711,515888,301887
1538.51,0.229491,509987,300655
1541.6,0.226926,503936,298847
1545.72,0.222947,494694,296067
1548.8,0.220019,488378,294264
1551.88,0.217303,481832,292141
1554.95,0.215909,474989,288918
1558.02,0.213676,467818,286023
1561.08,0.212419,460730,282506
1564.15,0.212158,454170,278651
1568.22,0.211531,444181,272916
1571.27,0.211603,436947,268427
1574.32,0.209821,429598,264997
1577.36,0.207986,422039,261437
1580.4,0.207665,414375,256879
1583.43,0.206026,406354,252859
1586.46,0.203991,398475,249121
1590.49,0.202641,388982,243943
1593.51,0.200842,380708,239745
1596.53,0.198571,372727,235950
1599.54,0.197489,365060,231673
1602.55,0.194720,357543,228354
1605.55,0.192554,349495,224330
1608.55,0.190441,341154,220044
1612.54,0.190136,330877,213565
1615.53,0.187641,322904,209620
1618.51,0.186695,315116,205010
1621.49,0.186176,307217,200110
1624.47,0.184739,299481,195718
1627.44,0.183816,292112,191308
1630.41,0.183137,284245,186447
1634.36,0.180305,274079,180955
1637.32,0.180260,266916,176244
1640.27,0.180119,259612,171477
1643.22,0.178177,251804,167065
1646.16,0.178939,244348,161834
1649.1,0.176758,236703,157560
1652.04,0.175686,228171,152256
1655.95,0.173791,215408,144368
1658.88,0.169704,204937,138649
1661.8,0.163614,193395,132688
1664.72,0.157761,179728,124984
1667.63,0.142676,163642,117820
1670.54,0.130371,146312,108370
1673.44,0.113151,128451,98989
1677.31,0.092699,105080,84883
1680.21,0.080116,88906,73929
1683.1,0.074034,75033,63273
1685.99,0.074898,63520,53458
1688.87,0.078296,53714,44853
1691.75,0.082299,45653,37772
1694.62,0.092777,39137,31609
1697.49,0.092128,33776,27320
1701.31,0.095736,28175,22601

File: Column 1_050613_20150331_122934.csv
Method:,Column 1,,
Host Date-Time:,31/3/15 @ 12:29:34,,
Header Version:,1,,
System Temp (C):,34.09,,
Detector Temp (C):,34.9,,
Humidity (%):,1.66,,
Lamp PD:,3818,,
Shift Vector Coefficients:,-10.5391,0.0761263,-0.000134223,,
Pixel to Wavelength Coefficients:,1775.68,-0.916766,-0.000235065,,
Serial Number:,5510004,,
Scan Config Name:,Column 1,,
Scan Config Type:,Slew,,
Section 1,,
Start wavelength (nm):,900,,
End wavelength (nm):,1700,,
Pattern Pixel Width (nm):,   7.03,,,,
Exposure (ms):,  0.635,,,,
Digital Resolution:,228,,
Num Repeats:,6,,
PGA Gain:,64,,
Total Measurement Time in sec:,  2.674,,
Wavelength (nm),Absorbance (AU),Reference Signal (unitless),Sample Signal (unitless)
901.51,0.068028,108485,92756
905.376,0.074436,121306,102199
909.237,0.076771,131909,110536
913.095,0.079625,143299,119294
916.948,0.078174,156982,131122
922.079,0.081692,179937,149083
925.923,0.080899,200504,166427
929.762,0.081006,222660,184772
933.597,0.081720,244426,202501
937.427,0.079595,263972,219767
941.254,0.079216,281845,234852
945.076,0.078585,297271,248066
950.165,0.077823,315605,263828
953.978,0.076891,328029,274803
957.786,0.077688,340470,284702
961.59,0.077332,352317,294850
965.389,0.077430,363056,303769
969.185,0.077452,373162,312209
972.976,0.077847,382632,319841
976.763,0.078537,391202,326486
981.806,0.078809,400190,333778
985.583,0.078799,406088,338705
989.355,0.079670,410162,341417
993.124,0.080049,412868,343370
996.888,0.080251,414263,344370
1000.65,0.081344,415476,344510
1004.4,0.082521,415479,343580
1009.41,0.083688,414358,341734
1013.15,0.084007,412923,340300
1016.89,0.084712,411526,338599
1020.63,0.084617,409066,336648
1024.36,0.084577,406777,334795
1028.09,0.084332,404427,333049
1031.82,0.084061,401911,331184
1036.78,0.083692,398410,328578
1040.49,0.083585,396204,326839
1044.2,0.083507,394236,325274
1047.91,0.083231,392042,323669
1051.61,0.082208,389823,322596
1055.31,0.082517,388234,321053
1059,0.083014,387599,320161
1063.92,0.081063,386688,320847
1067.61,0.080404,386598,321259
1071.29,0.080143,387377,322100
1074.96,0.079446,388536,323583
1078.63,0.078942,389855,325058
1082.3,0.077758,391215,327083
1085.96,0.076925,393215,329386
1090.84,0.076334,396270,332397
1094.49,0.075678,398760,334991
1098.14,0.075508,400987,336994
1101.79,0.074616,403477,339784
1105.43,0.074514,406116,342087
1109.06,0.073946,407701,343871
1112.7,0.073591,409859,345974
1117.53,0.072983,412494,348686
1121.15,0.073399,414909,350392
1124.77,0.073533,416559,351677
1128.38,0.074639,418532,352444
1131.99,0.075220,419956,353170
1135.6,0.076919,421946,353458
1139.2,0.078818,423881,353530
1143.99,0.080239,426786,354790
1147.58,0.081403,428617,355358
1151.17,0.081900,431169,357065
1154.75,0.083853,433579,357450
1158.33,0.084223,436264,359357
1161.91,0.085746,439132,360453
1165.48,0.087947,442389,361291
1169.04,0.090388,446101,362281
1173.79,0.094280,451929,363739
1177.34,0.095536,456026,365977
1180.9,0.098239,461306,367917
1184.44,0.099705,467657,371726
1187.99,0.100844,473969,375756
1191.52,0.100898,479856,380376
1195.06,0.100862,487372,386366
1199.76,0.100028,497347,395031
1203.29,0.099275,504311,401258
1206.81,0.098679,511507,407542
1210.33,0.098135,519078,414093
1213.84,0.098034,527163,420640
1217.35,0.097157,534208,427123
1220.85,0.096479,540472,432807
1225.51,0.095428,549929,441447
1229.01,0.095836,556888,446614
1232.5,0.094197,562180,452562
1235.98,0.093836,567975,457608
1239.46,0.093085,574815,463920
1242.94,0.091930,582782,471603
1246.41,0.091401,591476,479221
1251.03,0.091262,604016,489538
1254.5,0.091575,612289,495885
1257.96,0.091703,619125,501274
1261.41,0.092603,624551,504621
1264.86,0.093191,629900,508254
1268.31,0.093632,634345,511321
1271.75,0.094153,638574,514113
1276.33,0.094378,642499,517005
1279.76,0.093626,645905,520646
1283.19,0.093397,648307,522858
1286.61,0.093407,650446,524571
1290.03,0.092720,652132,526763
1293.44,0.092335,653907,528665
1296.85,0.092011,655963,530723
1301.39,0.092025,657349,531828
1304.8,0.091658,657558,532446
1308.19,0.092226,658515,532524
1311.58,0.092360,658804,532594
1314.97,0.092850,659011,532161
1318.36,0.092709,658272,531736
1321.73,0.093265,658022,530855
1326.23,0.093948,657870,529898
1329.6,0.094801,656482,527742
1332.97,0.095866,654926,525202
1336.33,0.096758,653727,523165
1339.69,0.098030,652497,520653
1343.04,0.099436,649913,516915
1346.39,0.101522,647671,512664
1349.73,0.103259,645338,508778
1354.18,0.106273,641175,502000
1357.52,0.107903,638376,497936
1360.85,0.110083,635805,493448
1364.17,0.112370,633413,489009
1367.49,0.114322,631026,484982
1370.81,0.116699,628050,480060
1374.12,0.118517,625034,475759
1378.54,0.121564,620272,468833
1381.84,0.124422,616892,463220
1385.14,0.127448,613613,457558
1388.43,0.131227,611526,452051
1391.72,0.135101,610663,447405
1395.01,0.139137,610634,443245
1398.29,0.143238,611700,439846
1402.66,0.149406,614051,435310
1405.93,0.154212,616268,432073
1409.2,0.158954,617795,428440
1412.46,0.163010,618872,425198
1415.72,0.167050,619795,421889
1418.98,0.170518,620495,419006
1422.23,0.173195,621087,416829
1426.56,0.177515,621375,412894
1429.8,0.180146,621616,410560
1433.04,0.182622,622129,408562
1436.27,0.184657,621526,406258
1439.5,0.186488,621113,404280
1442.72,0.189311,620921,401537
1445.94,0.191488,620270,399110
1450.23,0.195099,618860,394906
1453.44,0.197886,617697,391642
1456.64,0.200819,616264,388104
1459.85,0.203806,614413,384286
1463.04,0.205923,612307,381106
1466.24,0.209347,610032,376709
1469.43,0.213870,607345,371164
1473.67,0.219445,603789,364284
1476.85,0.225431,601175,357742
1480.02,0.231865,597737,350465
1483.19,0.238105,594479,343583
1486.36,0.243864,591232,337205
1489.52,0.248552,587853,331678
1492.68,0.252201,583875,326677
1496.89,0.254266,578062,321891
1500.03,0.254420,574159,319604
1503.18,0.254956,570285,317056
1506.32,0.254027,565444,315038
1509.45,0.253150,560571,312954
1512.58,0.251609,555821,311405
1515.71,0.249380,550344,309923
1519.87,0.245821,543983,308862
1522.99,0.243034,538764,307868
1526.1,0.240677,533692,306629
1529.21,0.237544,527902,305499
1532.32,0.234758,521886,303961
1535.42,0.231714,515888,302581
1538.51,0.229260,509987,300815
1541.6,0.226360,503936,299237
1545.72,0.221857,494694,296811
1548.8,0.219316,488378,294741
1551.88,0.217196,481832,292213
1554.95,0.214761,474989,289683
1558.02,0.213993,467818,285814
1561.08,0.213213,460730,281990
1564.15,0.211787,454170,278889
1568.22,0.210592,444181,273507
1571.27,0.210520,436947,269097
1574.32,0.210103,429598,264825
1577.36,0.208158,422039,261333
1580.4,0.207177,414375,257168
1583.43,0.205535,406354,253145
1586.46,0.204727,398475,248699
1590.49,0.201875,388982,244374
1593.51,0.200533,380708,239916
1596.53,0.198464,372727,236008
1599.54,0.196367,365060,232272
1602.55,0.194467,357543,228487
1605.55,0.192616,349495,224298
1608.55,0.190907,341154,219808
1612.54,0.188669,330877,214288
1615.53,0.187113,322904,209875
1618.51,0.186257,315116,205217
1621.49,0.185179,307217,200570
1624.47,0.184193,299481,195964
1627.44,0.183567,292112,191418
1630.41,0.181554,284245,187128
1634.36,0.181846,274079,180314
1637.32,0.179817,266916,176424
1640.27,0.180142,259612,171468
1643.22,0.178500,251804,166941
1646.16,0.177318,244348,162439
1649.1,0.177221,236703,157392
1652.04,0.176103,228171,152110
1655.95,0.171137,215408,145253
1658.88,0.168981,204937,138880
1661.8,0.162708,193395,132965
1664.72,0.155222,179728,125717
1667.63,0.143299,163642,117651
1670.54,0.128184,146312,108917
1673.44,0.111889,128451,99277
1677.31,0.089391,105080,85532
1680.21,0.079846,88906,73975
1683.1,0.072034,75033,63565
1685.99,0.075329,63520,53405
1688.87,0.074229,53714,45275
1691.75,0.080429,45653,37935
1694.62,0.086245,39137,32088
1697.49,0.085831,33776,27719
1701.31,0.096409,28175,22566