Folder: textile_sorting_NIRSCAN_/samples/wool/wool-000811 (part 169)

File: Column 1_050624_20150331_123511.csv
Method:,Column 1,,
Host Date-Time:,31/3/15 @ 12:35:11,,
Header Version:,1,,
System Temp (C):,34.12,,
Detector Temp (C):,35.05,,
Humidity (%):,1.56,,
Lamp PD:,3818,,
Shift Vector Coefficients:,-10.5391,0.0761263,-0.000134223,,
Pixel to Wavelength Coefficients:,1775.68,-0.916766,-0.000235065,,
Serial Number:,5510004,,
Scan Config Name:,Column 1,,
Scan Config Type:,Slew,,
Section 1,,
Start wavelength (nm):,900,,
End wavelength (nm):,1700,,
Pattern Pixel Width (nm):,   7.03,,,,
Exposure (ms):,  0.635,,,,
Digital Resolution:,228,,
Num Repeats:,6,,
PGA Gain:,64,,
Total Measurement Time in sec:,  2.667,,
Wavelength (nm),Absorbance (AU),Reference Signal (unitless),Sample Signal (unitless)
901.51,0.068595,108485,92635
905.376,0.075333,121306,101988
909.237,0.075147,131909,110950
913.095,0.077859,143299,119780
916.948,0.079694,156982,130664
922.079,0.081224,179937,149244
925.923,0.081866,200504,166057
929.762,0.082485,222660,184144
933.597,0.082298,244426,202232
937.427,0.080852,263972,219132
941.254,0.079860,281845,234504
945.076,0.078997,297271,247831
950.165,0.078896,315605,263177
953.978,0.077313,328029,274536
957.786,0.077614,340470,284751
961.59,0.077618,352317,294656
965.389,0.077276,363056,303877
969.185,0.077435,373162,312221
972.976,0.077934,382632,319777
976.763,0.078447,391202,326553
981.806,0.079000,400190,333631
985.583,0.079918,406088,337833
989.355,0.079656,410162,341428
993.124,0.079661,412868,343677
996.888,0.080619,414263,344078
1000.65,0.080726,415476,345001
1004.4,0.082189,415479,343843
1009.41,0.083647,414358,341766
1013.15,0.084372,412923,340014
1016.89,0.084599,411526,338687
1020.63,0.084922,409066,336412
1024.36,0.085427,406777,334141
1028.09,0.084559,404427,332875
1031.82,0.084298,401911,331003
1036.78,0.084174,398410,328213
1040.49,0.083329,396204,327032
1044.2,0.083559,394236,325235
1047.91,0.083007,392042,323836
1051.61,0.083012,389823,322000
1055.31,0.082813,388234,320834
1059,0.081672,387599,321152
1063.92,0.081565,386688,320476
1067.61,0.080558,386598,321145
1071.29,0.079976,387377,322224
1074.96,0.080548,388536,322763
1078.63,0.078941,389855,325059
1082.3,0.078079,391215,326841
1085.96,0.076909,393215,329398
1090.84,0.076597,396270,332196
1094.49,0.075981,398760,334758
1098.14,0.075664,400987,336873
1101.79,0.075162,403477,339357
1105.43,0.074741,406116,341908
1109.06,0.073723,407701,344048
1112.7,0.073589,409859,345976
1117.53,0.072982,412494,348687
1121.15,0.073690,414909,350157
1124.77,0.073562,416559,351653
1128.38,0.074895,418532,352236
1131.99,0.075873,419956,352639
1135.6,0.077439,421946,353035
1139.2,0.078678,423881,353644
1143.99,0.080807,426786,354326
1147.58,0.080550,428617,356057
1151.17,0.081447,431169,357438
1154.75,0.083092,433579,358077
1158.33,0.084631,436264,359020
1161.91,0.085844,439132,360372
1165.48,0.087876,442389,361350
1169.04,0.090605,446101,362100
1173.79,0.093454,451929,364432
1177.34,0.096286,456026,365345
1180.9,0.097916,461306,368191
1184.44,0.100488,467657,371056
1187.99,0.100579,473969,375985
1191.52,0.100801,479856,380461
1195.06,0.100636,487372,386567
1199.76,0.100407,497347,394687
1203.29,0.098748,504311,401745
1206.81,0.099121,511507,407128
1210.33,0.098238,519078,413995
1213.84,0.097843,527163,420825
1217.35,0.097060,534208,427219
1220.85,0.096538,540472,432748
1225.51,0.095372,549929,441504
1229.01,0.095029,556888,447444
1232.5,0.094581,562180,452162
1235.98,0.093615,567975,457841
1239.46,0.093181,574815,463817
1242.94,0.091896,582782,471639
1246.41,0.091365,591476,479261
1251.03,0.090949,604016,489891
1254.5,0.091766,612289,495668
1257.96,0.091819,619125,501140
1261.41,0.092331,624551,504937
1264.86,0.092872,629900,508627
1268.31,0.093101,634345,511946
1271.75,0.094117,638574,514155
1276.33,0.094298,642499,517100
1279.76,0.094117,645905,520058
1283.19,0.093865,648307,522295
1286.61,0.092900,650446,525184
1290.03,0.093181,652132,526205
1293.44,0.092174,653907,528862
1296.85,0.092042,655963,530686
1301.39,0.091694,657349,532233
1304.8,0.092017,657558,532007
1308.19,0.091605,658515,533286
1311.58,0.091777,658804,533310
1314.97,0.092050,659011,533142
1318.36,0.092450,658272,532053
1321.73,0.092776,658022,531453
1326.23,0.093643,657870,530270
1329.6,0.094651,656482,527925
1332.97,0.095399,654926,525767
1336.33,0.096241,653727,523788
1339.69,0.097577,652497,521196
1343.04,0.098945,649913,517500
1346.39,0.100667,647671,513674
1349.73,0.102876,645338,509227
1354.18,0.105713,641175,502648
1357.52,0.107392,638376,498522
1360.85,0.109405,635805,494219
1364.17,0.111078,633413,490466
1367.49,0.113886,631026,485469
1370.81,0.115994,628050,480840
1374.12,0.118171,625034,476138
1378.54,0.120501,620272,469982
1381.84,0.123451,616892,464257
1385.14,0.126406,613613,458658
1388.43,0.129879,611526,453457
1391.72,0.133865,610663,448680
1395.01,0.137399,610634,445023
1398.29,0.141718,611700,441388
1402.66,0.148053,614051,436668
1405.93,0.152275,616268,434005
1409.2,0.156977,617795,430395
1412.46,0.161141,618872,427031
1415.72,0.164632,619795,424244
1418.98,0.168195,620495,421253
1422.23,0.171344,621087,418609
1426.56,0.174865,621375,415421
1429.8,0.177608,621616,412966
1433.04,0.180083,622129,410958
1436.27,0.182468,621526,408311
1439.5,0.184337,621113,406288
1442.72,0.186818,620921,403848
1445.94,0.189006,620270,401398
1450.23,0.192350,618860,397413
1453.44,0.195491,617697,393808
1456.64,0.198662,616264,390036
1459.85,0.200718,614413,387028
1463.04,0.204472,612307,382382
1466.24,0.208337,610032,377586
1469.43,0.212408,607345,372415
1473.67,0.218004,603789,365495
1476.85,0.224622,601175,358409
1480.02,0.230003,597737,351971
1483.19,0.237168,594479,344325
1486.36,0.242862,591232,337984
1489.52,0.247830,587853,332230
1492.68,0.251574,583875,327149
1496.89,0.253920,578062,322147
1500.03,0.254298,574159,319694
1503.18,0.254863,570285,317124
1506.32,0.253364,565444,315519
1509.45,0.252338,560571,313540
1512.58,0.249958,555821,312591
1515.71,0.248206,550344,310762
1519.87,0.245269,543983,309255
1522.99,0.242835,538764,308009
1526.1,0.239946,533692,307146
1529.21,0.236684,527902,306104
1532.32,0.234043,521886,304462
1535.42,0.230749,515888,303254
1538.51,0.229895,509987,300375
1541.6,0.225188,503936,300046
1545.72,0.220734,494694,297579
1548.8,0.218401,488378,295362
1551.88,0.216147,481832,292920
1554.95,0.214280,474989,290004
1558.02,0.212091,467818,287069
1561.08,0.211451,460730,283136
1564.15,0.211527,454170,279056
1568.22,0.209916,444181,273933
1571.27,0.208517,436947,270341
1574.32,0.207812,429598,266226
1577.36,0.207778,422039,261562
1580.4,0.206252,414375,257716
1583.43,0.205283,406354,253292
1586.46,0.203393,398475,249464
1590.49,0.201876,388982,244373
1593.51,0.199583,380708,240441
1596.53,0.198082,372727,236216
1599.54,0.196281,365060,232318
1602.55,0.194155,357543,228651
1605.55,0.192420,349495,224399
1608.55,0.189989,341154,220273
1612.54,0.188527,330877,214358
1615.53,0.186924,322904,209966
1618.51,0.186084,315116,205299
1621.49,0.184565,307217,200854
1624.47,0.183522,299481,196267
1627.44,0.182504,292112,191887
1630.41,0.182104,284245,186891
1634.36,0.181454,274079,180477
1637.32,0.181225,266916,175853
1640.27,0.179256,259612,171818
1643.22,0.177292,251804,167406
1646.16,0.177939,244348,162207
1649.1,0.176846,236703,157528
1652.04,0.175598,228171,152287
1655.95,0.172160,215408,144911
1658.88,0.168862,204937,138918
1661.8,0.163077,193395,132852
1664.72,0.154480,179728,125932
1667.63,0.142318,163642,117917
1670.54,0.128276,146312,108894
1673.44,0.112033,128451,99244
1677.31,0.091162,105080,85184
1680.21,0.076600,88906,74530
1683.1,0.071024,75033,63713
1685.99,0.073219,63520,53665
1688.87,0.078441,53714,44838
1691.75,0.081002,45653,37885
1694.62,0.085501,39137,32143
1697.49,0.089623,33776,27478
1701.31,0.095314,28175,22623

File: Column 1_050625_20150331_123520.csv
Method:,Column 1,,
Host Date-Time:,31/3/15 @ 12:35:20,,
Header Version:,1,,
System Temp (C):,34.15,,
Detector Temp (C):,35.05,,
Humidity (%):,1.56,,
Lamp PD:,3818,,
Shift Vector Coefficients:,-10.5391,0.0761263,-0.000134223,,
Pixel to Wavelength Coefficients:,1775.68,-0.916766,-0.000235065,,
Serial Number:,5510004,,
Scan Config Name:,Column 1,,
Scan Config Type:,Slew,,
Section 1,,
Start wavelength (nm):,900,,
End wavelength (nm):,1700,,
Pattern Pixel Width (nm):,   7.03,,,,
Exposure (ms):,  0.635,,,,
Digital Resolution:,228,,
Num Repeats:,6,,
PGA Gain:,64,,
Total Measurement Time in sec:,  2.721,,
Wavelength (nm),Absorbance (AU),Reference Signal (unitless),Sample Signal (unitless)
901.51,0.070017,108485,92332
905.376,0.074644,121306,102150
909.237,0.077979,131909,110229
913.095,0.077823,143299,119790
916.948,0.080466,156982,130432
922.079,0.080395,179937,149529
925.923,0.081398,200504,166236
929.762,0.082572,222660,184107
933.597,0.083028,244426,201892
937.427,0.081225,263972,218944
941.254,0.080624,281845,234092
945.076,0.079783,297271,247383
950.165,0.078049,315605,263691
953.978,0.077305,328029,274541
957.786,0.077862,340470,284588
961.59,0.078111,352317,294322
965.389,0.076893,363056,304145
969.185,0.077654,373162,312064
972.976,0.077911,382632,319794
976.763,0.078330,391202,326641
981.806,0.079131,400190,333530
985.583,0.079396,406088,338239
989.355,0.079717,410162,341380
993.124,0.080227,412868,343229
996.888,0.080564,414263,344122
1000.65,0.081458,415476,344420
1004.4,0.083094,415479,343127
1009.41,0.084247,414358,341294
1013.15,0.084361,412923,340023
1016.89,0.084676,411526,338627
1020.63,0.084158,409066,337004
1024.36,0.084938,406777,334517
1028.09,0.084551,404427,332881
1031.82,0.083927,401911,331286
1036.78,0.083708,398410,328566
1040.49,0.083889,396204,326610
1044.2,0.083483,394236,325292
1047.91,0.083676,392042,323338
1051.61,0.083568,389823,321588
1055.31,0.082275,388234,321232
1059,0.082479,387599,320556
1063.92,0.081328,386688,320651
1067.61,0.080767,386598,320991
1071.29,0.080178,387377,322074
1074.96,0.080278,388536,322963
1078.63,0.079361,389855,324745
1082.3,0.077724,391215,327108
1085.96,0.078031,393215,328548
1090.84,0.076431,396270,332323
1094.49,0.076453,398760,334394
1098.14,0.075397,400987,337080
1101.79,0.075062,403477,339435
1105.43,0.074517,406116,342084
1109.06,0.074428,407701,343490
1112.7,0.073183,409859,346299
1117.53,0.072700,412494,348913
1121.15,0.074055,414909,349863
1124.77,0.074049,416559,351259
1128.38,0.074640,418532,352443
1131.99,0.075540,419956,352910
1135.6,0.077373,421946,353089
1139.2,0.078851,423881,353503
1143.99,0.080973,426786,354191
1147.58,0.081422,428617,355343
1151.17,0.082178,431169,356837
1154.75,0.082969,433579,358178
1158.33,0.083817,436264,359693
1161.91,0.085789,439132,360418
1165.48,0.087989,442389,361256
1169.04,0.089862,446101,362720
1173.79,0.093860,451929,364091
1177.34,0.095850,456026,365712
1180.9,0.097923,461306,368185
1184.44,0.099406,467657,371982
1187.99,0.101326,473969,375339
1191.52,0.100884,479856,380388
1195.06,0.100552,487372,386642
1199.76,0.099832,497347,395210
1203.29,0.099146,504311,401377
1206.81,0.098957,511507,407281
1210.33,0.097617,519078,414587
1213.84,0.098167,527163,420512
1217.35,0.096876,534208,427400
1220.85,0.096574,540472,432712
1225.51,0.095711,549929,441159
1229.01,0.094884,556888,447594
1232.5,0.094629,562180,452112
1235.98,0.093407,567975,458060
1239.46,0.092526,574815,464517
1242.94,0.091705,582782,471847
1246.41,0.091477,591476,479137
1251.03,0.091044,604016,489784
1254.5,0.091479,612289,495995
1257.96,0.091583,619125,501413
1261.41,0.092024,624551,505294
1264.86,0.092938,629900,508550
1268.31,0.093231,634345,511793
1271.75,0.093944,638574,514360
1276.33,0.094112,642499,517322
1279.76,0.094357,645905,519770
1283.19,0.093278,648307,523001
1286.61,0.093136,650446,524898
1290.03,0.092569,652132,526946
1293.44,0.092326,653907,528676
1296.85,0.092037,655963,530692
1301.39,0.091665,657349,532269
1304.8,0.092009,657558,532016
1308.19,0.091887,658515,532940
1311.58,0.091885,658804,533177
1314.97,0.091814,659011,533432
1318.36,0.092834,658272,531583
1321.73,0.092673,658022,531579
1326.23,0.093724,657870,530171
1329.6,0.094267,656482,528391
1332.97,0.095237,654926,525963
1336.33,0.096115,653727,523940
1339.69,0.097541,652497,521240
1343.04,0.098942,649913,517503
1346.39,0.101295,647671,512932
1349.73,0.102980,645338,509105
1354.18,0.105701,641175,502662
1357.52,0.107782,638376,498075
1360.85,0.109859,635805,493702
1364.17,0.111524,633413,489963
1367.49,0.113355,631026,486063
1370.81,0.115990,628050,480844
1374.12,0.118130,625034,476183
1378.54,0.120615,620272,469859
1381.84,0.123338,616892,464377
1385.14,0.126818,613613,458223
1388.43,0.130012,611526,453318
1391.72,0.133712,610663,448838
1395.01,0.138045,610634,444361
1398.29,0.141609,611700,441499
1402.66,0.147506,614051,437218
1405.93,0.152164,616268,434116
1409.2,0.156539,617795,430829
1412.46,0.161073,618872,427098
1415.72,0.164680,619795,424197
1418.98,0.168399,620495,421055
1422.23,0.171053,621087,418889
1426.56,0.175182,621375,415118
1429.8,0.177788,621616,412795
1433.04,0.180144,622129,410900
1436.27,0.182202,621526,408561
1439.5,0.184083,621113,406525
1442.72,0.186869,620921,403801
1445.94,0.188914,620270,401483
1450.23,0.192646,618860,397143
1453.44,0.195597,617697,393712
1456.64,0.198059,616264,390578
1459.85,0.201440,614413,386385
1463.04,0.203861,612307,382920
1466.24,0.208186,610032,377717
1469.43,0.211460,607345,373229
1473.67,0.218456,603789,365115
1476.85,0.224318,601175,358660
1480.02,0.230332,597737,351705
1483.19,0.237106,594479,344374
1486.36,0.243267,591232,337669
1489.52,0.248752,587853,331525
1492.68,0.251546,583875,327170
1496.89,0.253416,578062,322521
1500.03,0.253805,574159,320057
1503.18,0.254333,570285,317511
1506.32,0.253147,565444,315677
1509.45,0.251969,560571,313806
1512.58,0.250601,555821,312129
1515.71,0.248160,550344,310795
1519.87,0.245020,543983,309432
1522.99,0.242176,538764,308477
1526.1,0.239742,533692,307290
1529.21,0.235903,527902,306655
1532.32,0.234182,521886,304364
1535.42,0.231018,515888,303066
1538.51,0.228053,509987,301652
1541.6,0.225597,503936,299763
1545.72,0.220692,494694,297608
1548.8,0.219214,488378,294810
1551.88,0.216973,481832,292363
1554.95,0.214558,474989,289818
1558.02,0.213377,467818,286220
1561.08,0.211737,460730,282950
1564.15,0.210990,454170,279401
1568.22,0.210498,444181,273566
1571.27,0.209852,436947,269511
1574.32,0.208831,429598,265602
1577.36,0.207869,422039,261507
1580.4,0.206650,414375,257480
1583.43,0.205307,406354,253278
1586.46,0.203501,398475,249402
1590.49,0.201983,388982,244313
1593.51,0.200408,380708,239985
1596.53,0.197850,372727,236342
1599.54,0.196545,365060,232177
1602.55,0.194001,357543,228732
1605.55,0.192496,349495,224360
1608.55,0.189948,341154,220294
1612.54,0.187612,330877,214810
1615.53,0.186199,322904,210317
1618.51,0.186249,315116,205221
1621.49,0.184915,307217,200692
1624.47,0.182360,299481,196793
1627.44,0.182977,292112,191678
1630.41,0.181378,284245,187204
1634.36,0.179859,274079,181141
1637.32,0.180443,266916,176170
1640.27,0.179565,259612,171696
1643.22,0.178820,251804,166818
1646.16,0.178365,244348,162048
1649.1,0.174962,236703,158213
1652.04,0.174760,228171,152581
1655.95,0.171564,215408,145110
1658.88,0.167950,204937,139210
1661.8,0.163853,193395,132615
1664.72,0.155042,179728,125769
1667.63,0.142679,163642,117819
1670.54,0.126529,146312,109333
1673.44,0.112449,128451,99149
1677.31,0.091642,105080,85090
1680.21,0.078135,88906,74267
1683.1,0.070316,75033,63817
1685.99,0.073843,63520,53588
1688.87,0.076354,53714,45054
1691.75,0.080509,45653,37928
1694.62,0.092379,39137,31638
1697.49,0.092987,33776,27266
1701.31,0.102632,28175,22245

File: Column 1_050625_20150331_123523.csv
Method:,Column 1,,
Host Date-Time:,31/3/15 @ 12:35:23,,
Header Version:,1,,
System Temp (C):,34.14,,
Detector Temp (C):,35.06,,
Humidity (%):,1.56,,
Lamp PD:,3818,,
Shift Vector Coefficients:,-10.5391,0.0761263,-0.000134223,,
Pixel to Wavelength Coefficients:,1775.68,-0.916766,-0.000235065,,
Serial Number:,5510004,,
Scan Config Name:,Column 1,,
Scan Config Type:,Slew,,
Section 1,,
Start wavelength (nm):,900,,
End wavelength (nm):,1700,,
Pattern Pixel Width (nm):,   7.03,,,,
Exposure (ms):,  0.635,,,,
Digital Resolution:,228,,
Num Repeats:,6,,
PGA Gain:,64,,
Total Measurement Time in sec:,  2.720,,
Wavelength (nm),Absorbance (AU),Reference Signal (unitless),Sample Signal (unitless)
901.51,0.067822,108485,92800
905.376,0.075108,121306,102041
909.237,0.078187,131909,110176
913.095,0.075963,143299,120304
916.948,0.079076,156982,130850
922.079,0.079812,179937,149730
925.923,0.080584,200504,166548
929.762,0.082574,222660,184106
933.597,0.082027,244426,202358
937.427,0.081215,263972,218949
941.254,0.079251,281845,234833
945.076,0.078901,297271,247886
950.165,0.077649,315605,263934
953.978,0.076520,328029,275038
957.786,0.077431,340470,284871
961.59,0.077409,352317,294798
965.389,0.077658,363056,303610
969.185,0.077590,373162,312110
972.976,0.077398,382632,320172
976.763,0.078237,391202,326711
981.806,0.078286,400190,334180
985.583,0.079135,406088,338443
989.355,0.079761,410162,341346
993.124,0.079701,412868,343645
996.888,0.080469,414263,344197
1000.65,0.081366,415476,344493
1004.4,0.082521,415479,343580
1009.41,0.083362,414358,341990
1013.15,0.083604,412923,340616
1016.89,0.084078,411526,339093
1020.63,0.084250,409066,336933
1024.36,0.084273,406777,335030
1028.09,0.084281,404427,333088
1031.82,0.083766,401911,331409
1036.78,0.083601,398410,328647
1040.49,0.083718,396204,326739
1044.2,0.083755,394236,325088
1047.91,0.082755,392042,324024
1051.61,0.082766,389823,322182
1055.31,0.082510,388234,321058
1059,0.082483,387599,320553
1063.92,0.080854,386688,321001
1067.61,0.080585,386598,321125
1071.29,0.080140,387377,322102
1074.96,0.079400,388536,323617
1078.63,0.078651,389855,325276
1082.3,0.077525,391215,327258
1085.96,0.076895,393215,329409
1090.84,0.076313,396270,332413
1094.49,0.075890,398760,334828
1098.14,0.075495,400987,337004
1101.79,0.074484,403477,339887
1105.43,0.074343,406116,342221
1109.06,0.074242,407701,343637
1112.7,0.073267,409859,346232
1117.53,0.072524,412494,349055
1121.15,0.072768,414909,350901
1124.77,0.073441,416559,351751
1128.38,0.074392,418532,352644
1131.99,0.075045,419956,353312
1135.6,0.076984,421946,353405
1139.2,0.078085,423881,354127
1143.99,0.080609,426786,354488
1147.58,0.080110,428617,356418
1151.17,0.081630,431169,357287
1154.75,0.082419,433579,358632
1158.33,0.084240,436264,359343
1161.91,0.085705,439132,360487
1165.48,0.087828,442389,361390
1169.04,0.090082,446101,362536
1173.79,0.093215,451929,364632
1177.34,0.095763,456026,365786
1180.9,0.097681,461306,368390
1184.44,0.099694,467657,371735
1187.99,0.100577,473969,375987
1191.52,0.100221,479856,380969
1195.06,0.100644,487372,386560
1199.76,0.099603,497347,395418
1203.29,0.098810,504311,401688
1206.81,0.098972,511507,407267
1210.33,0.097854,519078,414361
1213.84,0.097469,527163,421188
1217.35,0.096977,534208,427300
1220.85,0.096103,540472,433182
1225.51,0.095233,549929,441645
1229.01,0.095046,556888,447427
1232.5,0.094331,562180,452423
1235.98,0.093353,567975,458117
1239.46,0.092541,574815,464502
1242.94,0.091817,582782,471725
1246.41,0.090997,591476,479667
1251.03,0.090638,604016,490242
1254.5,0.091488,612289,495985
1257.96,0.091192,619125,501864
1261.41,0.092221,624551,505064
1264.86,0.092299,629900,509299
1268.31,0.092965,634345,512107
1271.75,0.093644,638574,514716
1276.33,0.093825,642499,517663
1279.76,0.093835,645905,520396
1283.19,0.093540,648307,522686
1286.61,0.092604,650446,525542
1290.03,0.092333,652132,527233
1293.44,0.092172,653907,528864
1296.85,0.091781,655963,531005
1301.39,0.091271,657349,532752
1304.8,0.091862,657558,532196
1308.19,0.091848,658515,532988
1311.58,0.091256,658804,533949
1314.97,0.092453,659011,532647
1318.36,0.092682,658272,531770
1321.73,0.092746,658022,531489
1326.23,0.093834,657870,530037
1329.6,0.094070,656482,528631
1332.97,0.095252,654926,525945
1336.33,0.095667,653727,524481
1339.69,0.097467,652497,521328
1343.04,0.099093,649913,517324
1346.39,0.100988,647671,513294
1349.73,0.102599,645338,509552
1354.18,0.105482,641175,502915
1357.52,0.107614,638376,498267
1360.85,0.109476,635805,494138
1364.17,0.111144,633413,490392
1367.49,0.113528,631026,485869
1370.81,0.115380,628050,481520
1374.12,0.117869,625034,476469
1378.54,0.120637,620272,469835
1381.84,0.123580,616892,464119
1385.14,0.126193,613613,458883
1388.43,0.129628,611526,453719
1391.72,0.133656,610663,448896
1395.01,0.137583,610634,444834
1398.29,0.141489,611700,441621
1402.66,0.147226,614051,437500
1405.93,0.152187,616268,434093
1409.2,0.156241,617795,431125
1412.46,0.160546,618872,427617
1415.72,0.164517,619795,424357
1418.98,0.168344,620495,421109
1422.23,0.171008,621087,418933
1426.56,0.174867,621375,415419
1429.8,0.177239,621616,413317
1433.04,0.180238,622129,410811
1436.27,0.182096,621526,408661
1439.5,0.183852,621113,406742
1442.72,0.186362,620921,404273
1445.94,0.188902,620270,401494
1450.23,0.191970,618860,397761
1453.44,0.195435,617697,393859
1456.64,0.198037,616264,390598
1459.85,0.201184,614413,386613
1463.04,0.204435,612307,382414
1466.24,0.207986,610032,377891
1469.43,0.211272,607345,373391
1473.67,0.218294,603789,365251
1476.85,0.223453,601175,359375
1480.02,0.230314,597737,351719
1483.19,0.237396,594479,344144
1486.36,0.242628,591232,338166
1489.52,0.247883,587853,332189
1492.68,0.251412,583875,327271
1496.89,0.253303,578062,322605
1500.03,0.254112,574159,319831
1503.18,0.253672,570285,317995
1506.32,0.252812,565444,315920
1509.45,0.251633,560571,314049
1512.58,0.250380,555821,312288
1515.71,0.247588,550344,311205
1519.87,0.244723,543983,309644
1522.99,0.241972,538764,308622
1526.1,0.240138,533692,307010
1529.21,0.237059,527902,305840
1532.32,0.233819,521886,304619
1535.42,0.231282,515888,302882
1538.51,0.228360,509987,301439
1541.6,0.225148,503936,300073
1545.72,0.221026,494694,297379
1548.8,0.217868,488378,295725
1551.88,0.215834,481832,293131
1554.95,0.214289,474989,289998
1558.02,0.212722,467818,286652
1561.08,0.211577,460730,283054
1564.15,0.211197,454170,279268
1568.22,0.210165,444181,273776
1571.27,0.209384,436947,269802
1574.32,0.208746,429598,265654
1577.36,0.206722,422039,262199
1580.4,0.206276,414375,257702
1583.43,0.204223,406354,253911
1586.46,0.202963,398475,249711
1590.49,0.202063,388982,244268
1593.51,0.199614,380708,240424
1596.53,0.197666,372727,236442
1599.54,0.196050,365060,232442
1602.55,0.194030,357543,228717
1605.55,0.191349,349495,224953
1608.55,0.189461,341154,220541
1612.54,0.187456,330877,214887
1615.53,0.185279,322904,210763
1618.51,0.186014,315116,205332
1621.49,0.184001,307217,201115
1624.47,0.182172,299481,196878
1627.44,0.181550,292112,192309
1630.41,0.181422,284245,187185
1634.36,0.180569,274079,180845
1637.32,0.179239,266916,176659
1640.27,0.178993,259612,171922
1643.22,0.178097,251804,167096
1646.16,0.177059,244348,162536
1649.1,0.175472,236703,158027
1652.04,0.173518,228171,153018
1655.95,0.172059,215408,144945
1658.88,0.166635,204937,139632
1661.8,0.163198,193395,132815
1664.72,0.152879,179728,126397
1667.63,0.141248,163642,118208
1670.54,0.126414,146312,109362
1673.44,0.107965,128451,100178
1677.31,0.089432,105080,85524
1680.21,0.077895,88906,74308
1683.1,0.069018,75033,64008
1685.99,0.071459,63520,53883
1688.87,0.074056,53714,45293
1691.75,0.078966,45653,38063
1694.62,0.083076,39137,32323
1697.49,0.083705,33776,27855
1701.31,0.098474,28175,22459