Folder: textile_sorting_NIRSCAN_/samples/wool/wool-000811 (part 50)

File: Column 1_050558_20150331_120339.csv
Method:,Column 1,,
Host Date-Time:,31/3/15 @ 12:3:39,,
Header Version:,1,,
System Temp (C):,33.6,,
Detector Temp (C):,32.94,,
Humidity (%):,2.25,,
Lamp PD:,3819,,
Shift Vector Coefficients:,-10.5391,0.0761263,-0.000134223,,
Pixel to Wavelength Coefficients:,1775.68,-0.916766,-0.000235065,,
Serial Number:,5510004,,
Scan Config Name:,Column 1,,
Scan Config Type:,Slew,,
Section 1,,
Start wavelength (nm):,900,,
End wavelength (nm):,1700,,
Pattern Pixel Width (nm):,   7.03,,,,
Exposure (ms):,  0.635,,,,
Digital Resolution:,228,,
Num Repeats:,6,,
PGA Gain:,64,,
Total Measurement Time in sec:,  2.679,,
Wavelength (nm),Absorbance (AU),Reference Signal (unitless),Sample Signal (unitless)
901.51,0.033359,108485,100464
905.376,0.040343,121306,110545
909.237,0.042790,131909,119532
913.095,0.043256,143299,129714
916.948,0.043867,156982,141900
922.079,0.044818,179937,162294
925.923,0.047331,200504,179801
929.762,0.047197,222660,199731
933.597,0.046938,244426,219386
937.427,0.046659,263972,237082
941.254,0.046928,281845,252978
945.076,0.045915,297271,267447
950.165,0.046862,315605,283323
953.978,0.045156,328029,295635
957.786,0.045932,340470,306300
961.59,0.045984,352317,316920
965.389,0.046603,363056,326115
969.185,0.046714,373162,335107
972.976,0.046479,382632,343797
976.763,0.047397,391202,350755
981.806,0.047882,400190,358413
985.583,0.049233,406088,362566
989.355,0.049568,410162,365921
993.124,0.050041,412868,367934
996.888,0.050610,414263,368694
1000.65,0.050943,415476,369490
1004.4,0.052947,415479,367792
1009.41,0.054096,414358,365830
1013.15,0.054063,412923,364591
1016.89,0.055461,411526,362190
1020.63,0.054787,409066,360584
1024.36,0.054419,406777,358870
1028.09,0.054678,404427,356584
1031.82,0.055068,401911,354048
1036.78,0.053548,398410,352194
1040.49,0.053025,396204,350666
1044.2,0.053251,394236,348743
1047.91,0.052988,392042,347012
1051.61,0.052706,389823,345272
1055.31,0.051462,388234,344851
1059,0.051444,387599,344301
1063.92,0.050602,386688,344159
1067.61,0.048960,386598,345382
1071.29,0.048572,387377,346387
1074.96,0.048594,388536,347406
1078.63,0.047931,389855,349118
1082.3,0.047181,391215,350941
1085.96,0.046774,393215,353066
1090.84,0.045697,396270,356693
1094.49,0.045473,398760,359119
1098.14,0.045173,400987,361374
1101.79,0.044470,403477,364207
1105.43,0.044515,406116,366552
1109.06,0.044243,407701,368213
1112.7,0.044609,409859,369850
1117.53,0.044430,412494,372381
1121.15,0.045065,414909,374014
1124.77,0.045374,416559,375234
1128.38,0.046418,418532,376106
1131.99,0.048462,419956,375614
1135.6,0.049799,421946,376234
1139.2,0.051706,423881,376303
1143.99,0.054398,426786,376541
1147.58,0.055407,428617,377279
1151.17,0.056616,431169,378470
1154.75,0.058295,433579,379117
1158.33,0.059418,436264,380480
1161.91,0.061826,439132,380863
1165.48,0.064131,442389,381657
1169.04,0.066897,446101,382416
1173.79,0.071034,451929,383739
1177.34,0.072585,456026,385838
1180.9,0.075207,461306,387956
1184.44,0.076803,467657,391854
1187.99,0.078387,473969,395697
1191.52,0.077830,479856,401126
1195.06,0.077309,487372,407898
1199.76,0.076455,497347,417066
1203.29,0.075543,504311,423795
1206.81,0.075074,511507,430306
1210.33,0.073999,519078,437758
1213.84,0.073802,527163,444778
1217.35,0.072440,534208,452137
1220.85,0.071499,540472,458431
1225.51,0.070754,549929,467254
1229.01,0.070670,556888,473258
1232.5,0.069668,562180,478859
1235.98,0.069049,567975,484485
1239.46,0.067691,574815,491855
1242.94,0.066514,582782,500025
1246.41,0.066576,591476,507412
1251.03,0.066337,604016,518456
1254.5,0.066225,612289,525692
1257.96,0.066288,619125,531484
1261.41,0.067202,624551,535015
1264.86,0.067643,629900,539049
1268.31,0.068239,634345,542109
1271.75,0.069201,638574,544516
1276.33,0.069621,642499,547333
1279.76,0.069685,645905,550153
1283.19,0.069215,648307,552797
1286.61,0.068486,650446,555553
1290.03,0.068104,652132,557483
1293.44,0.067523,653907,559749
1296.85,0.067509,655963,561527
1301.39,0.067328,657349,562947
1304.8,0.067508,657558,562893
1308.19,0.067305,658515,563976
1311.58,0.067697,658804,563714
1314.97,0.068437,659011,562932
1318.36,0.069015,658272,561552
1321.73,0.068947,658022,561427
1326.23,0.070179,657870,559707
1329.6,0.071450,656482,556895
1332.97,0.072169,654926,554655
1336.33,0.073426,653727,552040
1339.69,0.075435,652497,548458
1343.04,0.077198,649913,544073
1346.39,0.079187,647671,539719
1349.73,0.081550,645338,534856
1354.18,0.084899,641175,527324
1357.52,0.086964,638376,522531
1360.85,0.089266,635805,517676
1364.17,0.091361,633413,513247
1367.49,0.094038,631026,508170
1370.81,0.096316,628050,503128
1374.12,0.098687,625034,497985
1378.54,0.102547,620272,489819
1381.84,0.105438,616892,483917
1385.14,0.110157,613613,476143
1388.43,0.114480,611526,469824
1391.72,0.119626,610663,463634
1395.01,0.124630,610634,458301
1398.29,0.130317,611700,453129
1402.66,0.137767,614051,447134
1405.93,0.143851,616268,442505
1409.2,0.149668,617795,437700
1412.46,0.154827,618872,433285
1415.72,0.159964,619795,428829
1418.98,0.164124,620495,425221
1422.23,0.168007,621087,421838
1426.56,0.172323,621375,417860
1429.8,0.175521,621616,414955
1433.04,0.178935,622129,412046
1436.27,0.180309,621526,410346
1439.5,0.182984,621113,407555
1442.72,0.185436,620921,405136
1445.94,0.187998,620270,402330
1450.23,0.191349,618860,398330
1453.44,0.194642,617697,394579
1456.64,0.197294,616264,391267
1459.85,0.200401,614413,387311
1463.04,0.203650,612307,383106
1466.24,0.206362,610032,379307
1469.43,0.209797,607345,374661
1473.67,0.215092,603789,367954
1476.85,0.220158,601175,362112
1480.02,0.226803,597737,354574
1483.19,0.232395,594479,348130
1486.36,0.238748,591232,341201
1489.52,0.243622,587853,335465
1492.68,0.247130,583875,330514
1496.89,0.249257,578062,325625
1500.03,0.249859,574159,322978
1503.18,0.250433,570285,320375
1506.32,0.248879,565444,318794
1509.45,0.248043,560571,316656
1512.58,0.246630,555821,314996
1515.71,0.244372,550344,313518
1519.87,0.239959,543983,313059
1522.99,0.238309,538764,311236
1526.1,0.236253,533692,309769
1529.21,0.232511,527902,309060
1532.32,0.229124,521886,307930
1535.42,0.226302,515888,306375
1538.51,0.222639,509987,305436
1541.6,0.220386,503936,303382
1545.72,0.215659,494694,301077
1548.8,0.212580,488378,299348
1551.88,0.210168,481832,296980
1554.95,0.208011,474989,294220
1558.02,0.206341,467818,290895
1561.08,0.204623,460730,287623
1564.15,0.204168,454170,283825
1568.22,0.202771,444181,278477
1571.27,0.202372,436947,274193
1574.32,0.201253,429598,270277
1577.36,0.199131,422039,266822
1580.4,0.197360,414375,263047
1583.43,0.195954,406354,258792
1586.46,0.195077,398475,254287
1590.49,0.192205,388982,249876
1593.51,0.190038,380708,245784
1596.53,0.187739,372727,241909
1599.54,0.185282,365060,238277
1602.55,0.183058,357543,234569
1605.55,0.181460,349495,230134
1608.55,0.179679,341154,225565
1612.54,0.176792,330877,220229
1615.53,0.175787,322904,215420
1618.51,0.173271,315116,211446
1621.49,0.172999,307217,206275
1624.47,0.171308,299481,201865
1627.44,0.169310,292112,197806
1630.41,0.167843,284245,193130
1634.36,0.166794,274079,186673
1637.32,0.165960,266916,182144
1640.27,0.165844,259612,177207
1643.22,0.164659,251804,172347
1646.16,0.163636,244348,167638
1649.1,0.162232,236703,162919
1652.04,0.162225,228171,157049
1655.95,0.159688,215408,149133
1658.88,0.157078,204937,142739
1661.8,0.152383,193395,136164
1664.72,0.147969,179728,127834
1667.63,0.136800,163642,119425
1670.54,0.128376,146312,108869
1673.44,0.116462,128451,98237
1677.31,0.102871,105080,82918
1680.21,0.098726,88906,70828
1683.1,0.097630,75033,59927
1685.99,0.103012,63520,50107
1688.87,0.104343,53714,42242
1691.75,0.113285,45653,35171
1694.62,0.116365,39137,29938
1697.49,0.123176,33776,25435
1701.31,0.128390,28175,20964

File: Column 1_050558_20150331_120345.csv
Method:,Column 1,,
Host Date-Time:,31/3/15 @ 12:3:45,,
Header Version:,1,,
System Temp (C):,33.62,,
Detector Temp (C):,32.98,,
Humidity (%):,2.25,,
Lamp PD:,3819,,
Shift Vector Coefficients:,-10.5391,0.0761263,-0.000134223,,
Pixel to Wavelength Coefficients:,1775.68,-0.916766,-0.000235065,,
Serial Number:,5510004,,
Scan Config Name:,Column 1,,
Scan Config Type:,Slew,,
Section 1,,
Start wavelength (nm):,900,,
End wavelength (nm):,1700,,
Pattern Pixel Width (nm):,   7.03,,,,
Exposure (ms):,  0.635,,,,
Digital Resolution:,228,,
Num Repeats:,6,,
PGA Gain:,64,,
Total Measurement Time in sec:,  2.664,,
Wavelength (nm),Absorbance (AU),Reference Signal (unitless),Sample Signal (unitless)
901.51,0.033939,108485,100330
905.376,0.039060,121306,110872
909.237,0.042816,131909,119525
913.095,0.042437,143299,129959
916.948,0.041718,156982,142604
922.079,0.045091,179937,162192
925.923,0.045964,200504,180368
929.762,0.046488,222660,200057
933.597,0.047335,244426,219186
937.427,0.047923,263972,236393
941.254,0.046399,281845,253286
945.076,0.045553,297271,267670
950.165,0.045952,315605,283917
953.978,0.045421,328029,295455
957.786,0.046225,340470,306093
961.59,0.046169,352317,316785
965.389,0.046137,363056,326465
969.185,0.046647,373162,335159
972.976,0.046977,382632,343403
976.763,0.047254,391202,350871
981.806,0.047985,400190,358328
985.583,0.049166,406088,362622
989.355,0.048905,410162,366480
993.124,0.049773,412868,368161
996.888,0.050596,414263,368706
1000.65,0.051165,415476,369301
1004.4,0.052508,415479,368164
1009.41,0.053789,414358,366089
1013.15,0.054487,412923,364235
1016.89,0.055122,411526,362473
1020.63,0.054521,409066,360805
1024.36,0.054729,406777,358614
1028.09,0.054230,404427,356952
1031.82,0.054563,401911,354460
1036.78,0.053800,398410,351990
1040.49,0.053227,396204,350503
1044.2,0.053284,394236,348716
1047.91,0.052865,392042,347110
1051.61,0.052487,389823,345446
1055.31,0.051902,388234,344502
1059,0.051129,387599,344551
1063.92,0.049403,386688,345110
1067.61,0.049245,386598,345155
1071.29,0.049212,387377,345877
1074.96,0.048731,388536,347296
1078.63,0.047943,389855,349108
1082.3,0.046574,391215,351432
1085.96,0.046541,393215,353256
1090.84,0.045249,396270,357061
1094.49,0.045311,398760,359253
1098.14,0.045308,400987,361262
1101.79,0.044592,403477,364105
1105.43,0.044633,406116,366452
1109.06,0.044068,407701,368361
1112.7,0.044082,409859,370299
1117.53,0.044083,412494,372679
1121.15,0.045341,414909,373776
1124.77,0.045404,416559,375208
1128.38,0.046882,418532,375705
1131.99,0.048107,419956,375921
1135.6,0.050352,421946,375755
1139.2,0.051330,423881,376629
1143.99,0.054526,426786,376430
1147.58,0.054941,428617,377684
1151.17,0.056483,431169,378586
1154.75,0.057771,433579,379575
1158.33,0.059513,436264,380396
1161.91,0.061668,439132,381002
1165.48,0.064497,442389,381336
1169.04,0.067003,446101,382323
1173.79,0.070721,451929,384016
1177.34,0.072581,456026,385841
1180.9,0.074827,461306,388295
1184.44,0.076483,467657,392143
1187.99,0.078163,473969,395901
1191.52,0.077790,479856,401163
1195.06,0.077400,487372,407813
1199.76,0.076492,497347,417030
1203.29,0.075060,504311,424266
1206.81,0.074652,511507,430725
1210.33,0.073994,519078,437763
1213.84,0.073234,527163,445360
1217.35,0.072714,534208,451852
1220.85,0.071371,540472,458566
1225.51,0.070814,549929,467189
1229.01,0.069837,556888,474167
1232.5,0.069341,562180,479219
1235.98,0.068934,567975,484613
1239.46,0.067705,574815,491839
1242.94,0.067082,582782,499372
1246.41,0.066053,591476,508024
1251.03,0.065827,604016,519065
1254.5,0.065863,612289,526131
1257.96,0.066474,619125,531257
1261.41,0.067015,624551,535245
1264.86,0.068118,629900,538460
1268.31,0.068130,634345,542245
1271.75,0.069363,638574,544313
1276.33,0.069621,642499,547333
1279.76,0.069605,645905,550255
1283.19,0.068884,648307,553218
1286.61,0.068183,650446,555941
1290.03,0.068180,652132,557385
1293.44,0.067637,653907,559602
1296.85,0.067284,655963,561817
1301.39,0.067234,657349,563070
1304.8,0.067256,657558,563220
1308.19,0.067745,658515,563405
1311.58,0.067749,658804,563647
1314.97,0.068434,659011,562936
1318.36,0.068459,658272,562272
1321.73,0.068953,658022,561420
1326.23,0.070235,657870,559635
1329.6,0.070800,656482,557729
1332.97,0.071938,654926,554950
1336.33,0.073574,653727,551852
1339.69,0.075317,652497,548607
1343.04,0.076858,649913,544499
1346.39,0.078881,647671,540099
1349.73,0.081281,645338,535188
1354.18,0.084719,641175,527543
1357.52,0.086783,638376,522749
1360.85,0.089122,635805,517848
1364.17,0.091196,633413,513441
1367.49,0.093924,631026,508304
1370.81,0.096380,628050,503053
1374.12,0.098760,625034,497902
1378.54,0.102457,620272,489920
1381.84,0.105969,616892,483326
1385.14,0.110102,613613,476203
1388.43,0.114672,611526,469616
1391.72,0.119074,610663,464224
1395.01,0.124866,610634,458052
1398.29,0.130028,611700,453430
1402.66,0.137631,614051,447274
1405.93,0.143588,616268,442774
1409.2,0.149685,617795,437683
1412.46,0.154863,618872,433249
1415.72,0.159829,619795,428962
1418.98,0.164129,620495,425216
1422.23,0.167830,621087,422010
1426.56,0.172187,621375,417991
1429.8,0.175552,621616,414926
1433.04,0.177864,622129,413063
1436.27,0.180548,621526,410120
1439.5,0.182721,621113,407802
1442.72,0.185102,620921,405447
1445.94,0.187853,620270,402465
1450.23,0.191255,618860,398417
1453.44,0.194216,617697,394966
1456.64,0.196763,616264,391745
1459.85,0.199987,614413,387680
1463.04,0.203210,612307,383495
1466.24,0.206542,610032,379150
1469.43,0.209280,607345,375107
1473.67,0.215459,603789,367643
1476.85,0.220002,601175,362242
1480.02,0.226237,597737,355037
1483.19,0.232733,594479,347859
1486.36,0.238168,591232,341657
1489.52,0.243443,587853,335603
1492.68,0.246954,583875,330648
1496.89,0.249275,578062,325611
1500.03,0.249999,574159,322874
1503.18,0.249787,570285,320852
1506.32,0.249234,565444,318534
1509.45,0.247704,560571,316903
1512.58,0.246449,555821,315127
1515.71,0.243380,550344,314235
1519.87,0.240780,543983,312468
1522.99,0.238203,538764,311312
1526.1,0.235397,533692,310380
1529.21,0.232086,527902,309362
1532.32,0.229565,521886,307617
1535.42,0.226180,515888,306461
1538.51,0.223012,509987,305174
1541.6,0.220072,503936,303601
1545.72,0.215323,494694,301310
1548.8,0.211904,488378,299814
1551.88,0.209727,481832,297282
1554.95,0.208109,474989,294154
1558.02,0.205878,467818,291205
1561.08,0.204034,460730,288013
1564.15,0.204045,454170,283905
1568.22,0.202591,444181,278592
1571.27,0.202078,436947,274379
1574.32,0.201327,429598,270231
1577.36,0.199657,422039,266499
1580.4,0.198337,414375,262456
1583.43,0.196192,406354,258650
1586.46,0.194515,398475,254616
1590.49,0.192452,388982,249734
1593.51,0.190003,380708,245804
1596.53,0.187150,372727,242237
1599.54,0.185610,365060,238097
1602.55,0.184103,357543,234005
1605.55,0.181211,349495,230266
1608.55,0.179203,341154,225812
1612.54,0.176089,330877,220586
1615.53,0.174320,322904,216149
1618.51,0.172782,315116,211684
1621.49,0.171937,307217,206780
1624.47,0.171237,299481,201898
1627.44,0.170698,292112,197175
1630.41,0.168244,284245,192952
1634.36,0.166764,274079,186686
1637.32,0.165950,266916,182148
1640.27,0.165704,259612,177264
1643.22,0.164309,251804,172486
1646.16,0.164663,244348,167242
1649.1,0.163599,236703,162407
1652.04,0.162037,228171,157117
1655.95,0.157869,215408,149759
1658.88,0.155371,204937,143301
1661.8,0.152188,193395,136225
1664.72,0.147358,179728,128014
1667.63,0.138078,163642,119074
1670.54,0.126533,146312,109332
1673.44,0.116069,128451,98326
1677.31,0.103348,105080,82827
1680.21,0.095050,88906,71430
1683.1,0.094215,75033,60400
1685.99,0.099507,63520,50513
1688.87,0.100423,53714,42625
1691.75,0.107593,45653,35635
1694.62,0.109814,39137,30393
1697.49,0.111186,33776,26147
1701.31,0.116235,28175,21559

File: Column 1_050558_20150331_120348.csv
Method:,Column 1,,
Host Date-Time:,31/3/15 @ 12:3:48,,
Header Version:,1,,
System Temp (C):,33.61,,
Detector Temp (C):,32.99,,
Humidity (%):,2.25,,
Lamp PD:,3819,,
Shift Vector Coefficients:,-10.5391,0.0761263,-0.000134223,,
Pixel to Wavelength Coefficients:,1775.68,-0.916766,-0.000235065,,
Serial Number:,5510004,,
Scan Config Name:,Column 1,,
Scan Config Type:,Slew,,
Section 1,,
Start wavelength (nm):,900,,
End wavelength (nm):,1700,,
Pattern Pixel Width (nm):,   7.03,,,,
Exposure (ms):,  0.635,,,,
Digital Resolution:,228,,
Num Repeats:,6,,
PGA Gain:,64,,
Total Measurement Time in sec:,  2.681,,
Wavelength (nm),Absorbance (AU),Reference Signal (unitless),Sample Signal (unitless)
901.51,0.033723,108485,100380
905.376,0.040131,121306,110599
909.237,0.042739,131909,119546
913.095,0.042387,143299,129974
916.948,0.041380,156982,142715
922.079,0.044783,179937,162307
925.923,0.046356,200504,180205
929.762,0.047084,222660,199783
933.597,0.047781,244426,218961
937.427,0.045454,263972,237741
941.254,0.046017,281845,253509
945.076,0.046048,297271,267365
950.165,0.045453,315605,284244
953.978,0.044788,328029,295886
957.786,0.045443,340470,306645
961.59,0.046530,352317,316522
965.389,0.046446,363056,326233
969.185,0.046368,373162,335374
972.976,0.046729,382632,343599
976.763,0.047857,391202,350384
981.806,0.048102,400190,358232
985.583,0.049164,406088,362624
989.355,0.049330,410162,366122
993.124,0.049733,412868,368195
996.888,0.050285,414263,368970
1000.65,0.051496,415476,369020
1004.4,0.052461,415479,368204
1009.41,0.053997,414358,365914
1013.15,0.053905,412923,364724
1016.89,0.054985,411526,362587
1020.63,0.054452,409066,360862
1024.36,0.054383,406777,358900
1028.09,0.054242,404427,356942
1031.82,0.054642,401911,354395
1036.78,0.053493,398410,352239
1040.49,0.053559,396204,350235
1044.2,0.053123,394236,348846
1047.91,0.052883,392042,347096
1051.61,0.052388,389823,345525
1055.31,0.051139,388234,345108
1059,0.051280,387599,344431
1063.92,0.050266,386688,344425
1067.61,0.049213,386598,345181
1071.29,0.048941,387377,346093
1074.96,0.048249,388536,347682
1078.63,0.047304,389855,349622
1082.3,0.047110,391215,350999
1085.96,0.046439,393215,353339
1090.84,0.045919,396270,356510
1094.49,0.044765,398760,359705
1098.14,0.044887,400987,361612
1101.79,0.044482,403477,364197
1105.43,0.044661,406116,366428
1109.06,0.044164,407701,368280
1112.7,0.043651,409859,370667
1117.53,0.044052,412494,372705
1121.15,0.044572,414909,374439
1124.77,0.046106,416559,374602
1128.38,0.046593,418532,375955
1131.99,0.048058,419956,375964
1135.6,0.050030,421946,376034
1139.2,0.051876,423881,376156
1143.99,0.053650,426786,377190
1147.58,0.055638,428617,377078
1151.17,0.056387,431169,378670
1154.75,0.057548,433579,379770
1158.33,0.059398,436264,380497
1161.91,0.061296,439132,381328
1165.48,0.064135,442389,381654
1169.04,0.066459,446101,382802
1173.79,0.070365,451929,384331
1177.34,0.072543,456026,385875
1180.9,0.075201,461306,387961
1184.44,0.076894,467657,391772
1187.99,0.077909,473969,396133
1191.52,0.077329,479856,401589
1195.06,0.077253,487372,407951
1199.76,0.076123,497347,417385
1203.29,0.074964,504311,424360
1206.81,0.074541,511507,430835
1210.33,0.073998,519078,437759
1213.84,0.073202,527163,445393
1217.35,0.072080,534208,452512
1220.85,0.071622,540472,458301
1225.51,0.070613,549929,467405
1229.01,0.069880,556888,474119
1232.5,0.069206,562180,479368
1235.98,0.068803,567975,484759
1239.46,0.068002,574815,491503
1242.94,0.066569,582782,499962
1246.41,0.065838,591476,508276
1251.03,0.066007,604016,518849
1254.5,0.066329,612289,525566
1257.96,0.066403,619125,531343
1261.41,0.067277,624551,534922
1264.86,0.067466,629900,539269
1268.31,0.068088,634345,542297
1271.75,0.069049,638574,544706
1276.33,0.069673,642499,547267
1279.76,0.069054,645905,550953
1283.19,0.068588,648307,553596
1286.61,0.068535,650446,555490
1290.03,0.068169,652132,557399
1293.44,0.067247,653907,560105
1296.85,0.067336,655963,561750
1301.39,0.066691,657349,563774
1304.8,0.067278,657558,563191
1308.19,0.067639,658515,563543
1311.58,0.067496,658804,563976
1314.97,0.068336,659011,563062
1318.36,0.068638,658272,562040
1321.73,0.069335,658022,560926
1326.23,0.069924,657870,560036
1329.6,0.070884,656482,557621
1332.97,0.071873,654926,555034
1336.33,0.073217,653727,552305
1339.69,0.075105,652497,548875
1343.04,0.076868,649913,544487
1346.39,0.079431,647671,539416
1349.73,0.081616,645338,534775
1354.18,0.084641,641175,527638
1357.52,0.087083,638376,522388
1360.85,0.089108,635805,517864
1364.17,0.091004,633413,513668
1367.49,0.094007,631026,508207
1370.81,0.096153,628050,503317
1374.12,0.098775,625034,497884
1378.54,0.102267,620272,490134
1381.84,0.105766,616892,483552
1385.14,0.109779,613613,476558
1388.43,0.114637,611526,469654
1391.72,0.119322,610663,463959
1395.01,0.124392,610634,458552
1398.29,0.130125,611700,453329
1402.66,0.137586,614051,447320
1405.93,0.143973,616268,442381
1409.2,0.149518,617795,437851
1412.46,0.154805,618872,433307
1415.72,0.159921,619795,428871
1418.98,0.164065,620495,425278
1422.23,0.167975,621087,421869
1426.56,0.171794,621375,418369
1429.8,0.174803,621616,415642
1433.04,0.178134,622129,412806
1436.27,0.179935,621526,410700
1439.5,0.182517,621113,407994
1442.72,0.185386,620921,405182
1445.94,0.187280,620270,402996
1450.23,0.191541,618860,398154
1453.44,0.194274,617697,394913
1456.64,0.196972,616264,391557
1459.85,0.199626,614413,388002
1463.04,0.202502,612307,384120
1466.24,0.205499,610032,380061
1469.43,0.209312,607345,375080
1473.67,0.215139,603789,367914
1476.85,0.220007,601175,362238
1480.02,0.225921,597737,355295
1483.19,0.232671,594479,347909
1486.36,0.238038,591232,341759
1489.52,0.243326,587853,335693
1492.68,0.246393,583875,331075
1496.89,0.249081,578062,325757
1500.03,0.249291,574159,323401
1503.18,0.250049,570285,320659
1506.32,0.249310,565444,318478
1509.45,0.248029,560571,316666
1512.58,0.246409,555821,315156
1515.71,0.243997,550344,313789
1519.87,0.240023,543983,313013
1522.99,0.237844,538764,311569
1526.1,0.235379,533692,310393
1529.21,0.232075,527902,309370
1532.32,0.228870,521886,308110
1535.42,0.226352,515888,306340
1538.51,0.222763,509987,305349
1541.6,0.219268,503936,304164
1545.72,0.215529,494694,301167
1548.8,0.211959,488378,299776
1551.88,0.209956,481832,297125
1554.95,0.207473,474989,294585
1558.02,0.205710,467818,291318
1561.08,0.204261,460730,287863
1564.15,0.203631,454170,284176
1568.22,0.202769,444181,278478
1571.27,0.201496,436947,274747
1574.32,0.200523,429598,270732
1577.36,0.199126,422039,266825
1580.4,0.197327,414375,263067
1583.43,0.195756,406354,258910
1586.46,0.193949,398475,254948
1590.49,0.191418,388982,250329
1593.51,0.189788,380708,245926
1596.53,0.187541,372727,242019
1599.54,0.185716,365060,238039
1602.55,0.183078,357543,234558
1605.55,0.180830,349495,230468
1608.55,0.178147,341154,226362
1612.54,0.176148,330877,220556
1615.53,0.173447,322904,216584
1618.51,0.172391,315116,211875
1621.49,0.172004,307217,206748
1624.47,0.171194,299481,201918
1627.44,0.169626,292112,197662
1630.41,0.168023,284245,193050
1634.36,0.166887,274079,186633
1637.32,0.165931,266916,182156
1640.27,0.165141,259612,177494
1643.22,0.163886,251804,172654
1646.16,0.164030,244348,167486
1649.1,0.163244,236703,162540
1652.04,0.162377,228171,156994
1655.95,0.160035,215408,149014
1658.88,0.155571,204937,143235
1661.8,0.152259,193395,136203
1664.72,0.147039,179728,128108
1667.63,0.137724,163642,119171
1670.54,0.125806,146312,109515
1673.44,0.115262,128451,98509
1677.31,0.102212,105080,83044
1680.21,0.096110,88906,71256
1683.1,0.092493,75033,60640
1685.99,0.099052,63520,50566
1688.87,0.102701,53714,42402
1691.75,0.106108,45653,35757
1694.62,0.109771,39137,30396
1697.49,0.116383,33776,25836
1701.31,0.118781,28175,21433