Folder: textile_sorting_NIRSCAN_/samples/wool/wool-000811 (part 171)

File: Column 1_050625_20150331_123540.csv
Method:,Column 1,,
Host Date-Time:,31/3/15 @ 12:35:40,,
Header Version:,1,,
System Temp (C):,34.12,,
Detector Temp (C):,35.05,,
Humidity (%):,1.56,,
Lamp PD:,3818,,
Shift Vector Coefficients:,-10.5391,0.0761263,-0.000134223,,
Pixel to Wavelength Coefficients:,1775.68,-0.916766,-0.000235065,,
Serial Number:,5510004,,
Scan Config Name:,Column 1,,
Scan Config Type:,Slew,,
Section 1,,
Start wavelength (nm):,900,,
End wavelength (nm):,1700,,
Pattern Pixel Width (nm):,   7.03,,,,
Exposure (ms):,  0.635,,,,
Digital Resolution:,228,,
Num Repeats:,6,,
PGA Gain:,64,,
Total Measurement Time in sec:,  2.671,,
Wavelength (nm),Absorbance (AU),Reference Signal (unitless),Sample Signal (unitless)
901.51,0.067564,108485,92855
905.376,0.073260,121306,102476
909.237,0.076409,131909,110628
913.095,0.077848,143299,119783
916.948,0.078602,156982,130993
922.079,0.080726,179937,149415
925.923,0.081382,200504,166242
929.762,0.082303,222660,184221
933.597,0.082248,244426,202255
937.427,0.080937,263972,219089
941.254,0.080253,281845,234292
945.076,0.079642,297271,247463
950.165,0.078147,315605,263631
953.978,0.077216,328029,274597
957.786,0.077303,340470,284955
961.59,0.077747,352317,294569
965.389,0.077432,363056,303768
969.185,0.077281,373162,312332
972.976,0.077359,382632,320201
976.763,0.079016,391202,326126
981.806,0.078658,400190,333894
985.583,0.078937,406088,338597
989.355,0.079831,410162,341291
993.124,0.080388,412868,343102
996.888,0.080530,414263,344149
1000.65,0.081318,415476,344531
1004.4,0.082281,415479,343770
1009.41,0.083672,414358,341746
1013.15,0.084130,412923,340204
1016.89,0.084530,411526,338741
1020.63,0.084212,409066,336962
1024.36,0.084030,406777,335217
1028.09,0.084090,404427,333235
1031.82,0.084335,401911,330975
1036.78,0.083548,398410,328687
1040.49,0.083337,396204,327026
1044.2,0.083486,394236,325290
1047.91,0.082892,392042,323922
1051.61,0.083695,389823,321494
1055.31,0.082870,388234,320792
1059,0.082269,387599,320711
1063.92,0.080927,386688,320947
1067.61,0.080838,386598,320938
1071.29,0.080228,387377,322037
1074.96,0.079459,388536,323573
1078.63,0.079457,389855,324673
1082.3,0.077994,391215,326905
1085.96,0.077693,393215,328804
1090.84,0.076249,396270,332462
1094.49,0.076666,398760,334230
1098.14,0.075396,400987,337081
1101.79,0.074598,403477,339798
1105.43,0.074552,406116,342057
1109.06,0.073845,407701,343951
1112.7,0.072927,409859,346503
1117.53,0.072887,412494,348763
1121.15,0.073519,414909,350295
1124.77,0.073349,416559,351826
1128.38,0.075013,418532,352140
1131.99,0.075622,419956,352843
1135.6,0.076845,421946,353518
1139.2,0.078551,423881,353747
1143.99,0.080182,426786,354836
1147.58,0.080872,428617,355793
1151.17,0.081838,431169,357116
1154.75,0.082545,433579,358528
1158.33,0.083522,436264,359938
1161.91,0.085769,439132,360434
1165.48,0.087773,442389,361436
1169.04,0.089826,446101,362750
1173.79,0.093399,451929,364478
1177.34,0.096080,456026,365519
1180.9,0.097222,461306,368780
1184.44,0.098892,467657,372422
1187.99,0.100906,473969,375702
1191.52,0.100356,479856,380851
1195.06,0.100177,487372,386976
1199.76,0.100020,497347,395039
1203.29,0.099160,504311,401364
1206.81,0.098901,511507,407334
1210.33,0.097886,519078,414330
1213.84,0.097295,527163,421357
1217.35,0.096668,534208,427605
1220.85,0.096267,540472,433018
1225.51,0.095154,549929,441726
1229.01,0.094871,556888,447607
1232.5,0.094245,562180,452512
1235.98,0.093577,567975,457881
1239.46,0.092679,574815,464354
1242.94,0.091821,582782,471721
1246.41,0.091045,591476,479614
1251.03,0.091300,604016,489495
1254.5,0.091049,612289,496487
1257.96,0.091914,619125,501031
1261.41,0.091934,624551,505399
1264.86,0.092413,629900,509165
1268.31,0.093385,634345,511612
1271.75,0.094137,638574,514132
1276.33,0.093989,642499,517468
1279.76,0.093777,645905,520465
1283.19,0.093092,648307,523225
1286.61,0.093193,650446,524830
1290.03,0.092740,652132,526739
1293.44,0.092030,653907,529037
1296.85,0.091875,655963,530890
1301.39,0.091436,657349,532549
1304.8,0.091583,657558,532539
1308.19,0.091557,658515,533346
1311.58,0.091802,658804,533279
1314.97,0.092238,659011,532911
1318.36,0.092473,658272,532025
1321.73,0.092517,658022,531770
1326.23,0.093657,657870,530253
1329.6,0.094104,656482,528590
1332.97,0.095032,654926,526211
1336.33,0.096111,653727,523945
1339.69,0.097502,652497,521287
1343.04,0.098697,649913,517795
1346.39,0.101062,647671,513207
1349.73,0.102359,645338,509833
1354.18,0.105716,641175,502644
1357.52,0.107022,638376,498947
1360.85,0.109298,635805,494340
1364.17,0.111243,633413,490280
1367.49,0.113677,631026,485702
1370.81,0.115929,628050,480912
1374.12,0.117650,625034,476709
1378.54,0.120486,620272,469998
1381.84,0.123360,616892,464354
1385.14,0.126508,613613,458550
1388.43,0.129823,611526,453515
1391.72,0.133514,610663,449043
1395.01,0.137450,610634,444970
1398.29,0.141170,611700,441945
1402.66,0.147443,614051,437282
1405.93,0.152131,616268,434149
1409.2,0.156305,617795,431062
1412.46,0.160523,618872,427640
1415.72,0.164539,619795,424335
1418.98,0.168056,620495,421388
1422.23,0.171220,621087,418728
1426.56,0.174540,621375,415732
1429.8,0.177379,621616,413184
1433.04,0.179331,622129,411670
1436.27,0.182180,621526,408582
1439.5,0.184254,621113,406365
1442.72,0.186909,620921,403764
1445.94,0.188535,620270,401833
1450.23,0.192181,618860,397568
1453.44,0.194835,617697,394403
1456.64,0.198010,616264,390622
1459.85,0.200616,614413,387119
1463.04,0.204002,612307,382796
1466.24,0.207583,610032,378242
1469.43,0.211316,607345,373353
1473.67,0.217927,603789,365560
1476.85,0.224002,601175,358921
1480.02,0.229897,597737,352057
1483.19,0.236637,594479,344746
1486.36,0.243309,591232,337636
1489.52,0.247520,587853,332467
1492.68,0.251317,583875,327343
1496.89,0.253550,578062,322422
1500.03,0.253668,574159,320158
1503.18,0.254054,570285,317715
1506.32,0.253239,565444,315610
1509.45,0.252010,560571,313777
1512.58,0.250295,555821,312349
1515.71,0.248159,550344,310796
1519.87,0.245218,543983,309291
1522.99,0.242322,538764,308373
1526.1,0.239516,533692,307450
1529.21,0.237015,527902,305871
1532.32,0.234033,521886,304469
1535.42,0.230971,515888,303099
1538.51,0.227831,509987,301806
1541.6,0.225373,503936,299918
1545.72,0.221691,494694,296924
1548.8,0.218413,488378,295354
1551.88,0.216102,481832,292950
1554.95,0.213720,474989,290378
1558.02,0.212218,467818,286985
1561.08,0.211853,460730,282874
1564.15,0.211424,454170,279122
1568.22,0.210019,444181,273868
1571.27,0.209279,436947,269867
1574.32,0.209066,429598,265458
1577.36,0.206801,422039,262151
1580.4,0.206844,414375,257365
1583.43,0.203934,406354,254080
1586.46,0.202451,398475,250006
1590.49,0.201212,388982,244747
1593.51,0.199537,380708,240467
1596.53,0.196998,372727,236806
1599.54,0.196177,365060,232374
1602.55,0.193734,357543,228873
1605.55,0.191685,349495,224779
1608.55,0.189739,341154,220400
1612.54,0.188146,330877,214546
1615.53,0.185650,322904,210583
1618.51,0.185116,315116,205757
1621.49,0.184868,307217,200714
1624.47,0.182386,299481,196781
1627.44,0.183045,292112,191648
1630.41,0.182267,284245,186821
1634.36,0.180545,274079,180855
1637.32,0.178384,266916,177007
1640.27,0.179709,259612,171639
1643.22,0.177536,251804,167312
1646.16,0.176667,244348,162683
1649.1,0.175500,236703,158017
1652.04,0.174982,228171,152503
1655.95,0.171247,215408,145216
1658.88,0.167810,204937,139255
1661.8,0.162421,193395,133053
1664.72,0.154431,179728,125946
1667.63,0.142072,163642,117984
1670.54,0.127507,146312,109087
1673.44,0.111421,128451,99384
1677.31,0.089270,105080,85556
1680.21,0.077890,88906,74309
1683.1,0.071365,75033,63663
1685.99,0.072872,63520,53708
1688.87,0.072984,53714,45405
1691.75,0.081495,45653,37842
1694.62,0.078332,39137,32678
1697.49,0.092828,33776,27276
1701.31,0.098164,28175,22475

File: Column 1_050626_20150331_123545.csv
Method:,Column 1,,
Host Date-Time:,31/3/15 @ 12:35:45,,
Header Version:,1,,
System Temp (C):,34.15,,
Detector Temp (C):,35.02,,
Humidity (%):,1.56,,
Lamp PD:,3818,,
Shift Vector Coefficients:,-10.5391,0.0761263,-0.000134223,,
Pixel to Wavelength Coefficients:,1775.68,-0.916766,-0.000235065,,
Serial Number:,5510004,,
Scan Config Name:,Column 1,,
Scan Config Type:,Slew,,
Section 1,,
Start wavelength (nm):,900,,
End wavelength (nm):,1700,,
Pattern Pixel Width (nm):,   7.03,,,,
Exposure (ms):,  0.635,,,,
Digital Resolution:,228,,
Num Repeats:,6,,
PGA Gain:,64,,
Total Measurement Time in sec:,  2.672,,
Wavelength (nm),Absorbance (AU),Reference Signal (unitless),Sample Signal (unitless)
901.51,0.068684,108485,92616
905.376,0.075418,121306,101968
909.237,0.077837,131909,110265
913.095,0.078269,143299,119667
916.948,0.080436,156982,130441
922.079,0.080111,179937,149627
925.923,0.081955,200504,166023
929.762,0.082218,222660,184257
933.597,0.082059,244426,202343
937.427,0.081274,263972,218919
941.254,0.080546,281845,234134
945.076,0.079174,297271,247730
950.165,0.077925,315605,263766
953.978,0.077243,328029,274580
957.786,0.076910,340470,285213
961.59,0.077819,352317,294520
965.389,0.077326,363056,303842
969.185,0.077184,373162,312402
972.976,0.077668,382632,319973
976.763,0.078283,391202,326677
981.806,0.078941,400190,333676
985.583,0.079454,406088,338194
989.355,0.079931,410162,341212
993.124,0.080201,412868,343250
996.888,0.080427,414263,344230
1000.65,0.081480,415476,344402
1004.4,0.082342,415479,343722
1009.41,0.083971,414358,341511
1013.15,0.084002,412923,340304
1016.89,0.084367,411526,338868
1020.63,0.084566,409066,336688
1024.36,0.085103,406777,334390
1028.09,0.084387,404427,333007
1031.82,0.083886,401911,331317
1036.78,0.083649,398410,328610
1040.49,0.083590,396204,326835
1044.2,0.083616,394236,325192
1047.91,0.083174,392042,323712
1051.61,0.083040,389823,321979
1055.31,0.082662,388234,320946
1059,0.082385,387599,320625
1063.92,0.081266,386688,320697
1067.61,0.080306,386598,321332
1071.29,0.080047,387377,322171
1074.96,0.079172,388536,323787
1078.63,0.079129,389855,324918
1082.3,0.078072,391215,326846
1085.96,0.077224,393215,329159
1090.84,0.076585,396270,332205
1094.49,0.075729,398760,334952
1098.14,0.075258,400987,337188
1101.79,0.074659,403477,339750
1105.43,0.074107,406116,342407
1109.06,0.074167,407701,343696
1112.7,0.073582,409859,345981
1117.53,0.072764,412494,348862
1121.15,0.073447,414909,350353
1124.77,0.074129,416559,351194
1128.38,0.074828,418532,352290
1131.99,0.075371,419956,353047
1135.6,0.077143,421946,353276
1139.2,0.078089,423881,354124
1143.99,0.080479,426786,354594
1147.58,0.081430,428617,355336
1151.17,0.082085,431169,356913
1154.75,0.082400,433579,358648
1158.33,0.083692,436264,359797
1161.91,0.085577,439132,360594
1165.48,0.088128,442389,361141
1169.04,0.090250,446101,362396
1173.79,0.093067,451929,364757
1177.34,0.095732,456026,365812
1180.9,0.097686,461306,368386
1184.44,0.099288,467657,372083
1187.99,0.100953,473969,375662
1191.52,0.100768,479856,380490
1195.06,0.100678,487372,386529
1199.76,0.099980,497347,395075
1203.29,0.099024,504311,401490
1206.81,0.098468,511507,407740
1210.33,0.097970,519078,414250
1213.84,0.097532,527163,421127
1217.35,0.097241,534208,427041
1220.85,0.096340,540472,432945
1225.51,0.095211,549929,441668
1229.01,0.094968,556888,447507
1232.5,0.094379,562180,452373
1235.98,0.093687,567975,457765
1239.46,0.092847,574815,464174
1242.94,0.091928,582782,471605
1246.41,0.091195,591476,479449
1251.03,0.091267,604016,489532
1254.5,0.091119,612289,496406
1257.96,0.091518,619125,501488
1261.41,0.092370,624551,504891
1264.86,0.092481,629900,509085
1268.31,0.093487,634345,511492
1271.75,0.093817,638574,514510
1276.33,0.093953,642499,517511
1279.76,0.093730,645905,520521
1283.19,0.093146,648307,523160
1286.61,0.093263,650446,524745
1290.03,0.092747,652132,526730
1293.44,0.092247,653907,528773
1296.85,0.092245,655963,530438
1301.39,0.091601,657349,532347
1304.8,0.091666,657558,532437
1308.19,0.091920,658515,532900
1311.58,0.091665,658804,533447
1314.97,0.092295,659011,532841
1318.36,0.092384,658272,532134
1321.73,0.092966,658022,531220
1326.23,0.093352,657870,530625
1329.6,0.094350,656482,528291
1332.97,0.094950,654926,526311
1336.33,0.095801,653727,524319
1339.69,0.097263,652497,521573
1343.04,0.098696,649913,517797
1346.39,0.100460,647671,513919
1349.73,0.102583,645338,509570
1354.18,0.105751,641175,502604
1357.52,0.107477,638376,498425
1360.85,0.109574,635805,494026
1364.17,0.111311,633413,490203
1367.49,0.113808,631026,485556
1370.81,0.115780,628050,481077
1374.12,0.117566,625034,476801
1378.54,0.120760,620272,469702
1381.84,0.122907,616892,464839
1385.14,0.126304,613613,458765
1388.43,0.129870,611526,453466
1391.72,0.133501,610663,449056
1395.01,0.138034,610634,444372
1398.29,0.141403,611700,441708
1402.66,0.147173,614051,437554
1405.93,0.151961,616268,434319
1409.2,0.156678,617795,430692
1412.46,0.161019,618872,427151
1415.72,0.164611,619795,424265
1418.98,0.167819,620495,421618
1422.23,0.170946,621087,418993
1426.56,0.175280,621375,415025
1429.8,0.177253,621616,413304
1433.04,0.179975,622129,411060
1436.27,0.181829,621526,408912
1439.5,0.183993,621113,406610
1442.72,0.186071,620921,404544
1445.94,0.189298,620270,401128
1450.23,0.192591,618860,397193
1453.44,0.195207,617697,394066
1456.64,0.198434,616264,390241
1459.85,0.200918,614413,386850
1463.04,0.203778,612307,382993
1466.24,0.207813,610032,378042
1469.43,0.211642,607345,373073
1473.67,0.218035,603789,365469
1476.85,0.223879,601175,359023
1480.02,0.230138,597737,351862
1483.19,0.237034,594479,344431
1486.36,0.243460,591232,337519
1489.52,0.247737,587853,332301
1492.68,0.251302,583875,327354
1496.89,0.253759,578062,322267
1500.03,0.254504,574159,319542
1503.18,0.254387,570285,317472
1506.32,0.253266,565444,315590
1509.45,0.251326,560571,314271
1512.58,0.250320,555821,312331
1515.71,0.247412,550344,311331
1519.87,0.244688,543983,309669
1522.99,0.242446,538764,308285
1526.1,0.240080,533692,307051
1529.21,0.236778,527902,306038
1532.32,0.234130,521886,304401
1535.42,0.230885,515888,303159
1538.51,0.228645,509987,301241
1541.6,0.225873,503936,299573
1545.72,0.221726,494694,296900
1548.8,0.218671,488378,295179
1551.88,0.216087,481832,292960
1554.95,0.214092,474989,290129
1558.02,0.212808,467818,286595
1561.08,0.212201,460730,282648
1564.15,0.211619,454170,278997
1568.22,0.209952,444181,273910
1571.27,0.209537,436947,269707
1574.32,0.208479,429598,265817
1577.36,0.206755,422039,262179
1580.4,0.206601,414375,257509
1583.43,0.205491,406354,253171
1586.46,0.203735,398475,249268
1590.49,0.200969,388982,244884
1593.51,0.199958,380708,240234
1596.53,0.197769,372727,236386
1599.54,0.195710,365060,232624
1602.55,0.194220,357543,228617
1605.55,0.191896,349495,224670
1608.55,0.189280,341154,220633
1612.54,0.188304,330877,214468
1615.53,0.186077,322904,210376
1618.51,0.185711,315116,205475
1621.49,0.184785,307217,200752
1624.47,0.183659,299481,196205
1627.44,0.183378,292112,191501
1630.41,0.181988,284245,186941
1634.36,0.179725,274079,181197
1637.32,0.180334,266916,176214
1640.27,0.178509,259612,172114
1643.22,0.177502,251804,167325
1646.16,0.177540,244348,162356
1649.1,0.175995,236703,157837
1652.04,0.173552,228171,153006
1655.95,0.171232,215408,145221
1658.88,0.169140,204937,138829
1661.8,0.162943,193395,132893
1664.72,0.154535,179728,125916
1667.63,0.142167,163642,117958
1670.54,0.127129,146312,109182
1673.44,0.110003,128451,99709
1677.31,0.088955,105080,85618
1680.21,0.080340,88906,73891
1683.1,0.072800,75033,63453
1685.99,0.073916,63520,53579
1688.87,0.069687,53714,45751
1691.75,0.077145,45653,38223
1694.62,0.077973,39137,32705
1697.49,0.088187,33776,27569
1701.31,0.102846,28175,22234

File: Column 1_050626_20150331_123548.csv
Method:,Column 1,,
Host Date-Time:,31/3/15 @ 12:35:48,,
Header Version:,1,,
System Temp (C):,34.15,,
Detector Temp (C):,35.02,,
Humidity (%):,1.56,,
Lamp PD:,3818,,
Shift Vector Coefficients:,-10.5391,0.0761263,-0.000134223,,
Pixel to Wavelength Coefficients:,1775.68,-0.916766,-0.000235065,,
Serial Number:,5510004,,
Scan Config Name:,Column 1,,
Scan Config Type:,Slew,,
Section 1,,
Start wavelength (nm):,900,,
End wavelength (nm):,1700,,
Pattern Pixel Width (nm):,   7.03,,,,
Exposure (ms):,  0.635,,,,
Digital Resolution:,228,,
Num Repeats:,6,,
PGA Gain:,64,,
Total Measurement Time in sec:,  2.672,,
Wavelength (nm),Absorbance (AU),Reference Signal (unitless),Sample Signal (unitless)
901.51,0.069284,108485,92488
905.376,0.075687,121306,101905
909.237,0.077734,131909,110291
913.095,0.077902,143299,119768
916.948,0.077979,156982,131181
922.079,0.081462,179937,149162
925.923,0.081233,200504,166299
929.762,0.083639,222660,183655
933.597,0.082781,244426,202007
937.427,0.080539,263972,219290
941.254,0.080151,281845,234347
945.076,0.079156,297271,247740
950.165,0.077879,315605,263794
953.978,0.077696,328029,274294
957.786,0.077307,340470,284952
961.59,0.077692,352317,294606
965.389,0.077317,363056,303848
969.185,0.076896,373162,312609
972.976,0.077520,382632,320082
976.763,0.078196,391202,326742
981.806,0.078593,400190,333944
985.583,0.079245,406088,338357
989.355,0.079889,410162,341245
993.124,0.080846,412868,342740
996.888,0.080299,414263,344332
1000.65,0.080927,415476,344841
1004.4,0.082092,415479,343920
1009.41,0.083577,414358,341821
1013.15,0.083637,412923,340590
1016.89,0.084691,411526,338615
1020.63,0.084472,409066,336761
1024.36,0.084474,406777,334875
1028.09,0.083790,404427,333465
1031.82,0.083819,401911,331368
1036.78,0.084087,398410,328279
1040.49,0.083775,396204,326696
1044.2,0.083576,394236,325222
1047.91,0.083658,392042,323351
1051.61,0.082563,389823,322333
1055.31,0.082330,388234,321191
1059,0.082361,387599,320643
1063.92,0.081523,386688,320507
1067.61,0.080994,386598,320823
1071.29,0.079999,387377,322207
1074.96,0.080030,388536,323148
1078.63,0.078838,389855,325136
1082.3,0.078619,391215,326435
1085.96,0.076854,393215,329440
1090.84,0.076520,396270,332255
1094.49,0.075834,398760,334871
1098.14,0.074777,400987,337562
1101.79,0.074387,403477,339963
1105.43,0.074630,406116,341995
1109.06,0.073430,407701,344280
1112.7,0.073129,409859,346342
1117.53,0.073053,412494,348630
1121.15,0.073386,414909,350402
1124.77,0.073077,416559,352046
1128.38,0.074859,418532,352265
1131.99,0.075903,419956,352615
1135.6,0.076661,421946,353668
1139.2,0.077941,423881,354244
1143.99,0.080648,426786,354456
1147.58,0.080567,428617,356043
1151.17,0.082084,431169,356914
1154.75,0.082397,433579,358650
1158.33,0.084389,436264,359220
1161.91,0.085359,439132,360775
1165.48,0.088170,442389,361106
1169.04,0.089898,446101,362690
1173.79,0.093689,451929,364235
1177.34,0.096048,456026,365546
1180.9,0.097846,461306,368250
1184.44,0.099534,467657,371872
1187.99,0.100574,473969,375990
1191.52,0.100662,479856,380583
1195.06,0.100994,487372,386248
1199.76,0.099919,497347,395130
1203.29,0.098657,504311,401829
1206.81,0.098442,511507,407765
1210.33,0.097437,519078,414759
1213.84,0.097524,527163,421135
1217.35,0.097436,534208,426849
1220.85,0.096233,540472,433052
1225.51,0.095484,549929,441390
1229.01,0.095184,556888,447285
1232.5,0.094329,562180,452425
1235.98,0.093822,567975,457622
1239.46,0.092865,574815,464155
1242.94,0.091240,582782,472352
1246.41,0.091018,591476,479644
1251.03,0.091083,604016,489740
1254.5,0.090798,612289,496773
1257.96,0.091794,619125,501169
1261.41,0.092419,624551,504834
1264.86,0.092813,629900,508696
1268.31,0.092901,634345,512182
1271.75,0.093586,638574,514784
1276.33,0.094154,642499,517271
1279.76,0.094095,645905,520084
1283.19,0.093451,648307,522793
1286.61,0.093155,650446,524876
1290.03,0.092683,652132,526808
1293.44,0.091904,653907,529190
1296.85,0.092097,655963,530618
1301.39,0.091149,657349,532901
1304.8,0.091277,657558,532914
1308.19,0.091568,658515,533332
1311.58,0.091792,658804,533291
1314.97,0.092314,659011,532818
1318.36,0.092474,658272,532024
1321.73,0.092651,658022,531606
1326.23,0.093617,657870,530302
1329.6,0.094077,656482,528623
1332.97,0.094976,654926,526279
1336.33,0.096045,653727,524024
1339.69,0.096741,652497,522201
1343.04,0.098922,649913,517527
1346.39,0.100699,647671,513636
1349.73,0.102687,645338,509449
1354.18,0.105599,641175,502780
1357.52,0.107837,638376,498012
1360.85,0.109283,635805,494357
1364.17,0.111140,633413,490396
1367.49,0.113641,631026,485743
1370.81,0.115800,628050,481054
1374.12,0.117731,625034,476620
1378.54,0.120452,620272,470035
1381.84,0.123231,616892,464492
1385.14,0.126090,613613,458991
1388.43,0.129901,611526,453434
1391.72,0.133909,610663,448634
1395.01,0.137518,610634,444901
1398.29,0.141803,611700,441302
1402.66,0.147201,614051,437526
1405.93,0.152402,616268,433878
1409.2,0.156589,617795,430780
1412.46,0.160484,618872,427678
1415.72,0.164625,619795,424251
1418.98,0.168032,620495,421411
1422.23,0.170948,621087,418991
1426.56,0.174513,621375,415758
1429.8,0.177472,621616,413095
1433.04,0.179787,622129,411238
1436.27,0.181989,621526,408762
1439.5,0.183969,621113,406632
1442.72,0.186162,620921,404459
1445.94,0.189083,620270,401326
1450.23,0.192722,618860,397073
1453.44,0.195241,617697,394035
1456.64,0.198091,616264,390549
1459.85,0.200306,614413,387395
1463.04,0.204132,612307,382681
1466.24,0.207760,610032,378088
1469.43,0.211098,607345,373540
1473.67,0.217656,603789,365788
1476.85,0.223672,601175,359194
1480.02,0.230592,597737,351494
1483.19,0.236576,594479,344795
1486.36,0.243658,591232,337365
1489.52,0.248260,587853,331901
1492.68,0.251101,583875,327506
1496.89,0.253574,578062,322404
1500.03,0.253679,574159,320150
1503.18,0.254017,570285,317742
1506.32,0.253302,565444,315564
1509.45,0.252106,560571,313707
1512.58,0.249832,555821,312682
1515.71,0.247505,550344,311264
1519.87,0.244364,543983,309900
1522.99,0.241922,538764,308657
1526.1,0.239543,533692,307431
1529.21,0.236938,527902,305925
1532.32,0.234150,521886,304387
1535.42,0.230504,515888,303425
1538.51,0.228126,509987,301601
1541.6,0.225390,503936,299906
1545.72,0.220949,494694,297432
1548.8,0.218366,488378,295386
1551.88,0.215972,481832,293038
1554.95,0.214109,474989,290118
1558.02,0.212625,467818,286716
1561.08,0.211462,460730,283129
1564.15,0.209744,454170,280204
1568.22,0.209474,444181,274212
1571.27,0.209933,436947,269461
1574.32,0.208514,429598,265796
1577.36,0.207643,422039,261643
1580.4,0.205286,414375,258290
1583.43,0.205278,406354,253295
1586.46,0.202777,398475,249818
1590.49,0.202159,388982,244214
1593.51,0.199408,380708,240538
1596.53,0.198168,372727,236169
1599.54,0.195191,365060,232902
1602.55,0.194100,357543,228680
1605.55,0.191774,349495,224733
1608.55,0.190106,341154,220214
1612.54,0.187598,330877,214817
1615.53,0.186354,322904,210242
1618.51,0.185323,315116,205659
1621.49,0.184048,307217,201093
1624.47,0.182653,299481,196660
1627.44,0.182144,292112,192046
1630.41,0.180476,284245,187593
1634.36,0.179885,274079,181130
1637.32,0.179635,266916,176498
1640.27,0.178423,259612,172148
1643.22,0.178039,251804,167118
1646.16,0.176878,244348,162604
1649.1,0.177293,236703,157366
1652.04,0.175159,228171,152441
1655.95,0.172068,215408,144942
1658.88,0.167532,204937,139344
1661.8,0.162261,193395,133102
1664.72,0.155927,179728,125513
1667.63,0.142532,163642,117859
1670.54,0.128069,146312,108946
1673.44,0.110439,128451,99609
1677.31,0.089869,105080,85438
1680.21,0.076361,88906,74571
1683.1,0.070868,75033,63736
1685.99,0.071684,63520,53855
1688.87,0.070970,53714,45616
1691.75,0.084247,45653,37603
1694.62,0.082485,39137,32367
1697.49,0.086866,33776,27653
1701.31,0.101423,28175,22307