Folder: textile_sorting_NIRSCAN_/samples/wool/wool-000811 (part 35)

File: Column 1_050550_20150331_115942.csv
Method:,Column 1,,
Host Date-Time:,31/3/15 @ 11:59:42,,
Header Version:,1,,
System Temp (C):,33.29,,
Detector Temp (C):,32.12,,
Humidity (%):,2.15,,
Lamp PD:,3822,,
Shift Vector Coefficients:,-10.5391,0.0761263,-0.000134223,,
Pixel to Wavelength Coefficients:,1775.68,-0.916766,-0.000235065,,
Serial Number:,5510004,,
Scan Config Name:,Column 1,,
Scan Config Type:,Slew,,
Section 1,,
Start wavelength (nm):,900,,
End wavelength (nm):,1700,,
Pattern Pixel Width (nm):,   7.03,,,,
Exposure (ms):,  0.635,,,,
Digital Resolution:,228,,
Num Repeats:,6,,
PGA Gain:,64,,
Total Measurement Time in sec:,  2.687,,
Wavelength (nm),Absorbance (AU),Reference Signal (unitless),Sample Signal (unitless)
901.51,0.045826,108485,97621
905.376,0.051582,121306,107721
909.237,0.052560,131909,116873
913.095,0.052214,143299,127066
916.948,0.054040,156982,138615
922.079,0.055151,179937,158478
925.923,0.055093,200504,176616
929.762,0.055519,222660,195940
933.597,0.056584,244426,214567
937.427,0.055799,263972,232145
941.254,0.055725,281845,247905
945.076,0.056261,297271,261151
950.165,0.055137,315605,277976
953.978,0.054735,328029,289186
957.786,0.054651,340470,300212
961.59,0.055327,352317,310175
965.389,0.055737,363056,319328
969.185,0.055707,373162,328239
972.976,0.056341,382632,336078
976.763,0.057294,391202,342852
981.806,0.056903,400190,351045
985.583,0.058258,406088,355109
989.355,0.058357,410162,358590
993.124,0.059293,412868,360179
996.888,0.060165,414263,360671
1000.65,0.060666,415476,361310
1004.4,0.061902,415479,360286
1009.41,0.063697,414358,357832
1013.15,0.063724,412923,356570
1016.89,0.064085,411526,355069
1020.63,0.063992,409066,353022
1024.36,0.063599,406777,351364
1028.09,0.063169,404427,349680
1031.82,0.063060,401911,347592
1036.78,0.062270,398410,345192
1040.49,0.062449,396204,343139
1044.2,0.061486,394236,342192
1047.91,0.060870,392042,340771
1051.61,0.060070,389823,339467
1055.31,0.059743,388234,338338
1059,0.059434,387599,338025
1063.92,0.058498,386688,337958
1067.61,0.056769,386598,339227
1071.29,0.056417,387377,340186
1074.96,0.055326,388536,342062
1078.63,0.055295,389855,343248
1082.3,0.053785,391215,345645
1085.96,0.053369,393215,347745
1090.84,0.052627,396270,351046
1094.49,0.052506,398760,353350
1098.14,0.051305,400987,356308
1101.79,0.051429,403477,358418
1105.43,0.051323,406116,360850
1109.06,0.051060,407701,362478
1112.7,0.050518,409859,364852
1117.53,0.050637,412494,367097
1121.15,0.051870,414909,368199
1124.77,0.051935,416559,369608
1128.38,0.053310,418532,370185
1131.99,0.054834,419956,370143
1135.6,0.056742,421946,370267
1139.2,0.059272,423881,369804
1143.99,0.062120,426786,369905
1147.58,0.062825,428617,370889
1151.17,0.064565,431169,371606
1154.75,0.065860,433579,372570
1158.33,0.068138,436264,372916
1161.91,0.070017,439132,373747
1165.48,0.072929,442389,374003
1169.04,0.075554,446101,374869
1173.79,0.079904,451929,375981
1177.34,0.082539,456026,377095
1180.9,0.085557,461306,378819
1184.44,0.087148,467657,382630
1187.99,0.088513,473969,386578
1191.52,0.087496,479856,392297
1195.06,0.087353,487372,398573
1199.76,0.085929,497347,408066
1203.29,0.084198,504311,415432
1206.81,0.083804,511507,421743
1210.33,0.081677,519078,430086
1213.84,0.081220,527163,437245
1217.35,0.079403,534208,444946
1220.85,0.078847,540472,450740
1225.51,0.077300,549929,460264
1229.01,0.076781,556888,466645
1232.5,0.075758,562180,472191
1235.98,0.075202,567975,477669
1239.46,0.074230,574815,484505
1242.94,0.072523,582782,493155
1246.41,0.071756,591476,501396
1251.03,0.071493,604016,512337
1254.5,0.071757,612289,519038
1257.96,0.071881,619125,524684
1261.41,0.072444,624551,528596
1264.86,0.072966,629900,532483
1268.31,0.073620,634345,535433
1271.75,0.074305,638574,538154
1276.33,0.074850,642499,540782
1279.76,0.074721,645905,543811
1283.19,0.073751,648307,547054
1286.61,0.073624,650446,549019
1290.03,0.073444,652132,550670
1293.44,0.072575,653907,553275
1296.85,0.072173,655963,555528
1301.39,0.072251,657349,556602
1304.8,0.072070,657558,557011
1308.19,0.072681,658515,557038
1311.58,0.072522,658804,557486
1314.97,0.072989,659011,557062
1318.36,0.073338,658272,555990
1321.73,0.074311,658022,554536
1326.23,0.075258,657870,553200
1329.6,0.076337,656482,550663
1332.97,0.077474,654926,547921
1336.33,0.078385,653727,545772
1339.69,0.080294,652497,542356
1343.04,0.082298,649913,537721
1346.39,0.084644,647671,532979
1349.73,0.087105,645338,528059
1354.18,0.090374,641175,520718
1357.52,0.092934,638376,515398
1360.85,0.095079,635805,510793
1364.17,0.097739,633413,505764
1367.49,0.100792,631026,500329
1370.81,0.103377,628050,495014
1374.12,0.106222,625034,489420
1378.54,0.109568,620272,481963
1381.84,0.113359,616892,475171
1385.14,0.118122,613613,467490
1388.43,0.123002,611526,460694
1391.72,0.128105,610663,454670
1395.01,0.133464,610634,449073
1398.29,0.139491,611700,443657
1402.66,0.147807,614051,436915
1405.93,0.154106,616268,432179
1409.2,0.160351,617795,427064
1412.46,0.166060,618872,422222
1415.72,0.170360,619795,418686
1418.98,0.174993,620495,414711
1422.23,0.179409,621087,410907
1426.56,0.183480,621375,407262
1429.8,0.186522,621616,404576
1433.04,0.189719,622129,401940
1436.27,0.192097,621526,399358
1439.5,0.194470,621113,396918
1442.72,0.196877,620921,394602
1445.94,0.199298,620270,391997
1450.23,0.203078,618860,387717
1453.44,0.205790,617697,384579
1456.64,0.209535,616264,380392
1459.85,0.212033,614413,377075
1463.04,0.213897,612307,374173
1466.24,0.217832,610032,369420
1469.43,0.221747,607345,364492
1473.67,0.226999,603789,358003
1476.85,0.232177,601175,352228
1480.02,0.238360,597737,345263
1483.19,0.244924,594479,338230
1486.36,0.250951,591232,331747
1489.52,0.256204,587853,325885
1492.68,0.260114,583875,320779
1496.89,0.263394,578062,315196
1500.03,0.264507,574159,312266
1503.18,0.265353,570285,309556
1506.32,0.263243,565444,308423
1509.45,0.263060,560571,305894
1512.58,0.261175,555821,304621
1515.71,0.259014,550344,303124
1519.87,0.255876,543983,301793
1522.99,0.253388,538764,300615
1526.1,0.250314,533692,299900
1529.21,0.246547,527902,299231
1532.32,0.244255,521886,297386
1535.42,0.240762,515888,296342
1538.51,0.237578,509987,295108
1541.6,0.233824,503936,294138
1545.72,0.228726,494694,292153
1548.8,0.226544,488378,289876
1551.88,0.223551,481832,287968
1554.95,0.220887,474989,285625
1558.02,0.219308,467818,282338
1561.08,0.217632,460730,279135
1564.15,0.217280,454170,275384
1568.22,0.216391,444181,269879
1571.27,0.214593,436947,266585
1574.32,0.213338,429598,262860
1577.36,0.211947,422039,259063
1580.4,0.210748,414375,255062
1583.43,0.208665,406354,251327
1586.46,0.206458,398475,247710
1590.49,0.204366,388982,242976
1593.51,0.202885,380708,238620
1596.53,0.199300,372727,235554
1599.54,0.197813,365060,231500
1602.55,0.194803,357543,228310
1605.55,0.192573,349495,224320
1608.55,0.190484,341154,220022
1612.54,0.187594,330877,214819
1615.53,0.185417,322904,210696
1618.51,0.184009,315116,206282
1621.49,0.182068,307217,202012
1624.47,0.180694,299481,197549
1627.44,0.179455,292112,193239
1630.41,0.178333,284245,188521
1634.36,0.176209,274079,182670
1637.32,0.176216,266916,177893
1640.27,0.175268,259612,173403
1643.22,0.173384,251804,168919
1646.16,0.171764,244348,164530
1649.1,0.171729,236703,159395
1652.04,0.170089,228171,154231
1655.95,0.167896,215408,146341
1658.88,0.164563,204937,140300
1661.8,0.162264,193395,133101
1664.72,0.156765,179728,125271
1667.63,0.148199,163642,116331
1670.54,0.141369,146312,105660
1673.44,0.132232,128451,94734
1677.31,0.122811,105080,79197
1680.21,0.117913,88906,67767
1683.1,0.118814,75033,57074
1685.99,0.121932,63520,47971
1688.87,0.128440,53714,39962
1691.75,0.131105,45653,33757
1694.62,0.136723,39137,28567
1697.49,0.138274,33776,24566
1701.31,0.141855,28175,20324

File: Column 1_050550_20150331_115957.csv
Method:,Column 1,,
Host Date-Time:,31/3/15 @ 11:59:57,,
Header Version:,1,,
System Temp (C):,33.38,,
Detector Temp (C):,32.25,,
Humidity (%):,3.03,,
Lamp PD:,3822,,
Shift Vector Coefficients:,-10.5391,0.0761263,-0.000134223,,
Pixel to Wavelength Coefficients:,1775.68,-0.916766,-0.000235065,,
Serial Number:,5510004,,
Scan Config Name:,Column 1,,
Scan Config Type:,Slew,,
Section 1,,
Start wavelength (nm):,900,,
End wavelength (nm):,1700,,
Pattern Pixel Width (nm):,   7.03,,,,
Exposure (ms):,  0.635,,,,
Digital Resolution:,228,,
Num Repeats:,6,,
PGA Gain:,64,,
Total Measurement Time in sec:,  2.665,,
Wavelength (nm),Absorbance (AU),Reference Signal (unitless),Sample Signal (unitless)
901.51,0.033238,108485,100492
905.376,0.038829,121306,110931
909.237,0.040775,131909,120088
913.095,0.041479,143299,130246
916.948,0.040651,156982,142955
922.079,0.042100,179937,163313
925.923,0.042852,200504,181665
929.762,0.043494,222660,201441
933.597,0.044062,244426,220844
937.427,0.043969,263972,238555
941.254,0.043593,281845,254928
945.076,0.042807,297271,269368
950.165,0.043112,315605,285780
953.978,0.042662,328029,297338
957.786,0.043534,340470,307996
961.59,0.043374,352317,318830
965.389,0.044065,363056,328026
969.185,0.043346,373162,337716
972.976,0.044458,382632,345401
976.763,0.045375,391202,352392
981.806,0.045434,400190,360439
985.583,0.046042,406088,365240
989.355,0.046479,410162,368533
993.124,0.046659,412868,370811
996.888,0.047223,414263,371581
1000.65,0.048186,415476,371843
1004.4,0.049220,415479,370962
1009.41,0.049627,414358,369614
1013.15,0.050647,412923,367470
1016.89,0.051727,411526,365317
1020.63,0.051006,409066,363737
1024.36,0.051114,406777,361612
1028.09,0.050868,404427,359726
1031.82,0.050888,401911,357472
1036.78,0.049521,398410,355475
1040.49,0.049253,396204,353725
1044.2,0.049158,394236,352045
1047.91,0.048812,392042,350365
1051.61,0.048221,389823,348856
1055.31,0.047735,388234,347823
1059,0.046541,387599,348210
1063.92,0.046160,386688,347697
1067.61,0.044857,386598,348660
1071.29,0.044287,387377,349822
1074.96,0.044174,388536,350960
1078.63,0.043242,389855,352908
1082.3,0.041814,391215,355305
1085.96,0.041692,393215,357222
1090.84,0.041116,396270,360475
1094.49,0.040354,398760,363377
1098.14,0.040330,400987,365427
1101.79,0.040103,403477,367888
1105.43,0.040004,406116,370379
1109.06,0.039366,407701,372371
1112.7,0.039089,409859,374581
1117.53,0.039439,412494,376685
1121.15,0.040143,414909,378277
1124.77,0.040433,416559,379528
1128.38,0.042266,418532,379719
1131.99,0.043458,419956,379967
1135.6,0.045572,421946,379914
1139.2,0.047251,423881,380183
1143.99,0.049836,426786,380517
1147.58,0.051370,428617,380802
1151.17,0.052324,431169,382229
1154.75,0.053364,433579,383446
1158.33,0.055650,436264,383795
1161.91,0.057788,439132,384421
1165.48,0.060707,442389,384678
1169.04,0.063158,446101,385723
1173.79,0.066610,451929,387668
1177.34,0.069055,456026,388987
1180.9,0.071327,461306,391437
1184.44,0.072984,467657,395315
1187.99,0.074041,473969,399677
1191.52,0.073209,479856,405417
1195.06,0.072968,487372,411996
1199.76,0.072146,497347,421224
1203.29,0.071026,504311,428225
1206.81,0.070128,511507,435235
1210.33,0.069159,519078,442663
1213.84,0.068587,527163,450151
1217.35,0.067560,534208,457247
1220.85,0.066558,540472,463677
1225.51,0.066007,549929,472389
1229.01,0.065147,556888,479315
1232.5,0.064545,562180,484541
1235.98,0.063858,567975,490310
1239.46,0.062642,574815,497606
1242.94,0.062202,582782,505015
1246.41,0.061591,591476,513270
1251.03,0.061131,604016,524708
1254.5,0.061292,612289,531697
1257.96,0.061684,619125,537149
1261.41,0.062320,624551,541063
1264.86,0.063405,629900,544335
1268.31,0.063464,634345,548102
1271.75,0.064289,638574,550709
1276.33,0.064650,642499,553634
1279.76,0.064645,645905,556575
1283.19,0.063980,648307,559501
1286.61,0.063890,650446,561463
1290.03,0.063731,652132,563125
1293.44,0.062815,653907,565849
1296.85,0.063166,655963,567170
1301.39,0.062683,657349,569001
1304.8,0.062965,657558,568812
1308.19,0.062801,658515,569856
1311.58,0.063656,658804,568984
1314.97,0.064305,659011,568313
1318.36,0.064686,658272,567178
1321.73,0.064955,658022,566612
1326.23,0.066234,657870,564815
1329.6,0.067446,656482,562053
1332.97,0.068376,654926,559521
1336.33,0.069893,653727,556549
1339.69,0.071720,652497,553170
1343.04,0.073755,649913,548403
1346.39,0.075941,647671,543768
1349.73,0.078462,645338,538673
1354.18,0.082043,641175,530803
1357.52,0.083940,638376,526183
1360.85,0.086282,635805,521245
1364.17,0.089105,633413,515919
1367.49,0.091388,631026,511281
1370.81,0.094197,628050,505589
1374.12,0.096583,625034,500404
1378.54,0.100452,620272,492187
1381.84,0.104816,616892,484611
1385.14,0.109454,613613,476915
1388.43,0.114236,611526,470088
1391.72,0.120423,610663,462784
1395.01,0.126033,610634,456823
1398.29,0.132710,611700,450639
1402.66,0.141542,614051,443264
1405.93,0.149456,616268,436831
1409.2,0.155609,617795,431753
1412.46,0.162105,618872,426085
1415.72,0.166962,619795,421974
1418.98,0.172047,620495,417533
1422.23,0.176309,621087,413850
1426.56,0.181229,621375,409378
1429.8,0.184856,621616,406131
1433.04,0.187490,622129,404008
1436.27,0.190317,621526,400998
1439.5,0.192467,621113,398753
1442.72,0.195461,620921,395891
1445.94,0.196934,620270,394137
1450.23,0.201518,618860,389112
1453.44,0.203977,617697,386188
1456.64,0.206669,616264,382911
1459.85,0.209101,614413,379629
1463.04,0.211838,612307,375951
1466.24,0.214719,610032,372078
1469.43,0.217624,607345,367969
1473.67,0.222239,603789,361948
1476.85,0.226731,601175,356673
1480.02,0.231836,597737,350489
1483.19,0.237442,594479,344108
1486.36,0.242116,591232,338565
1489.52,0.246693,587853,333101
1492.68,0.250817,583875,327720
1496.89,0.252762,578062,323007
1500.03,0.253103,574159,320575
1503.18,0.253378,570285,318210
1506.32,0.253298,565444,315567
1509.45,0.251944,560571,313824
1512.58,0.250597,555821,312132
1515.71,0.247995,550344,310913
1519.87,0.245298,543983,309234
1522.99,0.242129,538764,308510
1526.1,0.239881,533692,307192
1529.21,0.236171,527902,306466
1532.32,0.233128,521886,305104
1535.42,0.229928,515888,303828
1538.51,0.227099,509987,302315
1541.6,0.223660,503936,301103
1545.72,0.219325,494694,298546
1548.8,0.215567,488378,297296
1551.88,0.213119,481832,294969
1554.95,0.210344,474989,292644
1558.02,0.208874,467818,289203
1561.08,0.207684,460730,285603
1564.15,0.206826,454170,282093
1568.22,0.205783,444181,276552
1571.27,0.204596,436947,272793
1574.32,0.203170,429598,269087
1577.36,0.201066,422039,265636
1580.4,0.200563,414375,261114
1583.43,0.198131,406354,257498
1586.46,0.195265,398475,254177
1590.49,0.192984,388982,249428
1593.51,0.191006,380708,245237
1596.53,0.189098,372727,241153
1599.54,0.186056,365060,237853
1602.55,0.183825,357543,234155
1605.55,0.181766,349495,229972
1608.55,0.179100,341154,225866
1612.54,0.177676,330877,219781
1615.53,0.174178,322904,216220
1618.51,0.174165,315116,211011
1621.49,0.171464,307217,207005
1624.47,0.170534,299481,202225
1627.44,0.168742,292112,198065
1630.41,0.166698,284245,193640
1634.36,0.165556,274079,187206
1637.32,0.165169,266916,182476
1640.27,0.165002,259612,177551
1643.22,0.162811,251804,173082
1646.16,0.161064,244348,168634
1649.1,0.160673,236703,163505
1652.04,0.159777,228171,157937
1655.95,0.158362,215408,149589
1658.88,0.155605,204937,143224
1661.8,0.151462,193395,136453
1664.72,0.147121,179728,128084
1667.63,0.137575,163642,119212
1670.54,0.129666,146312,108546
1673.44,0.118999,128451,97665
1677.31,0.108379,105080,81873
1680.21,0.101217,88906,70423
1683.1,0.102850,75033,59211
1685.99,0.110134,63520,49292
1688.87,0.112825,53714,41425
1691.75,0.116930,45653,34877
1694.62,0.120080,39137,29683
1697.49,0.120487,33776,25593
1701.31,0.124492,28175,21153

File: Column 1_050550_20150331_120005.csv
Method:,Column 1,,
Host Date-Time:,31/3/15 @ 12:0:5,,
Header Version:,1,,
System Temp (C):,33.27,,
Detector Temp (C):,32.38,,
Humidity (%):,3.86,,
Lamp PD:,3820,,
Shift Vector Coefficients:,-10.5391,0.0761263,-0.000134223,,
Pixel to Wavelength Coefficients:,1775.68,-0.916766,-0.000235065,,
Serial Number:,5510004,,
Scan Config Name:,Column 1,,
Scan Config Type:,Slew,,
Section 1,,
Start wavelength (nm):,900,,
End wavelength (nm):,1700,,
Pattern Pixel Width (nm):,   7.03,,,,
Exposure (ms):,  0.635,,,,
Digital Resolution:,228,,
Num Repeats:,6,,
PGA Gain:,64,,
Total Measurement Time in sec:,  2.682,,
Wavelength (nm),Absorbance (AU),Reference Signal (unitless),Sample Signal (unitless)
901.51,0.045742,108485,97640
905.376,0.053307,121306,107294
909.237,0.054848,131909,116259
913.095,0.054328,143299,126449
916.948,0.055848,156982,138039
922.079,0.054612,179937,158675
925.923,0.055982,200504,176255
929.762,0.056973,222660,195285
933.597,0.057399,244426,214165
937.427,0.057110,263972,231445
941.254,0.057218,281845,247054
945.076,0.056624,297271,260933
950.165,0.056474,315605,277121
953.978,0.055771,328029,288497
957.786,0.056785,340470,298740
961.59,0.057631,352317,308534
965.389,0.056872,363056,318494
969.185,0.057696,373162,326739
972.976,0.058185,382632,334654
976.763,0.058511,391202,341893
981.806,0.059272,400190,349136
985.583,0.059638,406088,353983
989.355,0.060836,410162,356549
993.124,0.061247,412868,358562
996.888,0.061923,414263,359214
1000.65,0.062968,415476,359400
1004.4,0.064375,415479,358240
1009.41,0.065723,414358,356166
1013.15,0.065870,412923,354813
1016.89,0.066332,411526,353236
1020.63,0.066069,409066,351337
1024.36,0.066577,406777,348963
1028.09,0.066038,404427,347378
1031.82,0.065994,401911,345252
1036.78,0.065757,398410,342431
1040.49,0.064537,396204,341493
1044.2,0.064528,394236,339804
1047.91,0.064271,392042,338113
1051.61,0.063156,389823,337063
1055.31,0.063288,388234,335587
1059,0.062034,387599,336007
1063.92,0.060788,386688,336181
1067.61,0.060084,386598,336648
1071.29,0.059592,387377,337708
1074.96,0.058597,388536,339496
1078.63,0.058595,389855,340650
1082.3,0.057778,391215,342482
1085.96,0.057157,393215,344725
1090.84,0.056325,396270,348070
1094.49,0.056299,398760,350278
1098.14,0.055801,400987,352638
1101.79,0.055626,403477,354971
1105.43,0.055977,406116,357004
1109.06,0.055399,407701,358875
1112.7,0.055473,409859,360713
1117.53,0.055122,412494,363325
1121.15,0.056311,414909,364453
1124.77,0.056984,416559,365336
1128.38,0.058559,418532,365738
1131.99,0.059751,419956,365976
1135.6,0.061664,421946,366094
1139.2,0.063721,423881,366035
1143.99,0.066290,426786,366370
1147.58,0.067220,428617,367155
1151.17,0.068619,431169,368153
1154.75,0.069909,433579,369113
1158.33,0.071512,436264,370030
1161.91,0.073861,439132,370454
1165.48,0.076480,442389,370958
1169.04,0.078428,446101,372396
1173.79,0.082081,451929,374101
1177.34,0.084845,456026,375098
1180.9,0.086887,461306,377661
1184.44,0.088398,467657,381531
1187.99,0.089279,473969,385897
1191.52,0.089894,479856,390137
1195.06,0.088991,487372,397072
1199.76,0.088406,497347,405745
1203.29,0.087085,504311,412680
1206.81,0.086633,511507,419004
1210.33,0.085051,519078,426758
1213.84,0.085160,527163,433296
1217.35,0.084283,534208,439974
1220.85,0.083598,540472,445836
1225.51,0.082116,549929,455188
1229.01,0.081801,556888,461282
1232.5,0.081190,562180,466321
1235.98,0.080755,567975,471600
1239.46,0.079157,574815,479039
1242.94,0.078290,582782,486649
1246.41,0.078247,591476,493958
1251.03,0.077955,604016,504770
1254.5,0.077694,612289,511991
1257.96,0.078198,619125,517107
1261.41,0.078540,624551,521228
1264.86,0.079678,629900,524317
1268.31,0.079846,634345,527812
1271.75,0.080334,638574,530735
1276.33,0.080199,642499,534163
1279.76,0.080536,645905,536578
1283.19,0.079567,648307,539776
1286.61,0.079487,650446,541657
1290.03,0.078970,652132,543708
1293.44,0.078498,653907,545780
1296.85,0.077981,655963,548149
1301.39,0.077943,657349,549355
1304.8,0.077855,657558,549641
1308.19,0.078216,658515,549984
1311.58,0.077819,658804,550728
1314.97,0.078554,659011,549970
1318.36,0.079454,658272,548216
1321.73,0.079171,658022,548364
1326.23,0.080589,657870,546451
1329.6,0.081494,656482,544163
1332.97,0.082880,654926,541143
1336.33,0.084045,653727,538705
1339.69,0.085634,652497,535728
1343.04,0.087723,649913,531046
1346.39,0.089663,647671,526856
1349.73,0.092455,645338,521593
1354.18,0.095482,641175,514629
1357.52,0.097573,638376,509922
1360.85,0.099886,635805,505171
1364.17,0.102132,633413,500674
1367.49,0.104643,631026,495912
1370.81,0.106868,628050,491051
1374.12,0.109552,625034,485682
1378.54,0.113569,620272,477544
1381.84,0.116805,616892,471416
1385.14,0.121429,613613,463944
1388.43,0.125969,611526,457558
1391.72,0.131144,610663,451500
1395.01,0.136543,610634,445901
1398.29,0.142804,611700,440286
1402.66,0.151292,614051,433423
1405.93,0.158040,616268,428282
1409.2,0.164203,617795,423293
1412.46,0.169747,618872,418653
1415.72,0.175587,619795,413677
1418.98,0.180421,620495,409560
1422.23,0.184802,621087,405836
1426.56,0.189806,621375,401373
1429.8,0.193425,621616,398196
1433.04,0.196679,622129,395550
1436.27,0.199518,621526,392592
1439.5,0.202010,621113,390086
1442.72,0.204591,620921,387655
1445.94,0.207646,620270,384534
1450.23,0.211167,618860,380562
1453.44,0.214048,617697,377335
1456.64,0.217001,616264,373909
1459.85,0.220229,614413,370025
1463.04,0.222746,612307,366626
1466.24,0.225615,610032,362859
1469.43,0.229720,607345,357862
1473.67,0.234525,603789,351852
1476.85,0.239207,601175,346572
1480.02,0.243397,597737,341282
1483.19,0.250417,594479,333979
1486.36,0.255283,591232,328454
1489.52,0.259323,587853,323553
1492.68,0.263037,583875,318627
1496.89,0.264263,578062,314566
1500.03,0.265096,574159,311843
1503.18,0.264363,570285,310262
1506.32,0.264814,565444,307309
1509.45,0.262901,560571,306006
1512.58,0.261794,555821,304187
1515.71,0.259699,550344,302646
1519.87,0.256114,543983,301628
1522.99,0.253986,538764,300201
1526.1,0.250907,533692,299491
1529.21,0.247992,527902,298237
1532.32,0.245511,521886,296527
1535.42,0.241775,515888,295652
1538.51,0.239445,509987,293842
1541.6,0.236449,503936,292366
1545.72,0.231793,494694,290097
1548.8,0.229067,488378,288197
1551.88,0.226017,481832,286338
1554.95,0.224279,474989,283403
1558.02,0.221612,467818,280844
1561.08,0.220634,460730,277212
1564.15,0.219764,454170,273813
1568.22,0.218889,444181,268331
1571.27,0.218466,436947,264218
1574.32,0.217018,429598,260642
1577.36,0.215609,422039,256888
1580.4,0.213765,414375,253296
1583.43,0.212193,406354,249294
1586.46,0.210470,398475,245432
1590.49,0.208840,388982,240486
1593.51,0.206386,380708,236704
1596.53,0.203962,372727,233039
1599.54,0.201992,365060,229283
1602.55,0.199812,357543,225692
1605.55,0.197162,349495,221962
1608.55,0.195326,341154,217583
1612.54,0.193019,330877,212152
1615.53,0.191415,322904,207806
1618.51,0.190506,315116,203219
1621.49,0.189473,307217,198597
1624.47,0.188375,299481,194086
1627.44,0.186597,292112,190087
1630.41,0.184984,284245,185656
1634.36,0.183272,274079,179723
1637.32,0.183292,266916,175018
1640.27,0.182127,259612,170686
1643.22,0.181536,251804,165778
1646.16,0.180164,244348,161378
1649.1,0.178312,236703,156997
1652.04,0.178467,228171,151284
1655.95,0.174230,215408,144222
1658.88,0.172750,204937,137680
1661.8,0.167318,193395,131561
1664.72,0.164012,179728,123198
1667.63,0.155298,163642,114445
1670.54,0.146363,146312,104452
1673.44,0.136984,128451,93703
1677.31,0.125429,105080,78721
1680.21,0.123206,88906,66946
1683.1,0.118746,75033,57083
1685.99,0.127031,63520,47411
1688.87,0.129572,53714,39858
1691.75,0.133634,45653,33561
1694.62,0.143804,39137,28105
1697.49,0.152013,33776,23801
1701.31,0.160654,28175,19463