Folder: textile_sorting_NIRSCAN_/samples/wool/wool-000811 (part 168)

File: Column 1_050624_20150331_123500.csv
Method:,Column 1,,
Host Date-Time:,31/3/15 @ 12:35:0,,
Header Version:,1,,
System Temp (C):,34.11,,
Detector Temp (C):,35.02,,
Humidity (%):,1.56,,
Lamp PD:,3818,,
Shift Vector Coefficients:,-10.5391,0.0761263,-0.000134223,,
Pixel to Wavelength Coefficients:,1775.68,-0.916766,-0.000235065,,
Serial Number:,5510004,,
Scan Config Name:,Column 1,,
Scan Config Type:,Slew,,
Section 1,,
Start wavelength (nm):,900,,
End wavelength (nm):,1700,,
Pattern Pixel Width (nm):,   7.03,,,,
Exposure (ms):,  0.635,,,,
Digital Resolution:,228,,
Num Repeats:,6,,
PGA Gain:,64,,
Total Measurement Time in sec:,  2.728,,
Wavelength (nm),Absorbance (AU),Reference Signal (unitless),Sample Signal (unitless)
901.51,0.068702,108485,92612
905.376,0.073053,121306,102525
909.237,0.075437,131909,110876
913.095,0.076534,143299,120146
916.948,0.078443,156982,131041
922.079,0.079530,179937,149827
925.923,0.081163,200504,166326
929.762,0.082140,222660,184290
933.597,0.081667,244426,202526
937.427,0.079783,263972,219672
941.254,0.080195,281845,234323
945.076,0.079072,297271,247788
950.165,0.077507,315605,264020
953.978,0.077569,328029,274374
957.786,0.077604,340470,284757
961.59,0.077209,352317,294934
965.389,0.077665,363056,303605
969.185,0.078123,373162,311727
972.976,0.078085,382632,319666
976.763,0.077937,391202,326937
981.806,0.078551,400190,333976
985.583,0.078600,406088,338860
989.355,0.079385,410162,341641
993.124,0.079519,412868,343789
996.888,0.080088,414263,344499
1000.65,0.081454,415476,344423
1004.4,0.081868,415479,344097
1009.41,0.083527,414358,341860
1013.15,0.083496,412923,340701
1016.89,0.084467,411526,338790
1020.63,0.085060,409066,336305
1024.36,0.084012,406777,335231
1028.09,0.084656,404427,332801
1031.82,0.084352,401911,330962
1036.78,0.083766,398410,328522
1040.49,0.083246,396204,327094
1044.2,0.083693,394236,325135
1047.91,0.082750,392042,324028
1051.61,0.082739,389823,322202
1055.31,0.082479,388234,321081
1059,0.081733,387599,321107
1063.92,0.080880,386688,320982
1067.61,0.080072,386598,321505
1071.29,0.079838,387377,322326
1074.96,0.079440,388536,323587
1078.63,0.078960,389855,325045
1082.3,0.078087,391215,326835
1085.96,0.077044,393215,329296
1090.84,0.075980,396270,332668
1094.49,0.075000,398760,335515
1098.14,0.075377,400987,337096
1101.79,0.074863,403477,339591
1105.43,0.074068,406116,342438
1109.06,0.073228,407701,344440
1112.7,0.073015,409859,346433
1117.53,0.072472,412494,349097
1121.15,0.073534,414909,350283
1124.77,0.073421,416559,351767
1128.38,0.074592,418532,352482
1131.99,0.075353,419956,353062
1135.6,0.076913,421946,353463
1139.2,0.077885,423881,354290
1143.99,0.080081,426786,354919
1147.58,0.080574,428617,356037
1151.17,0.081606,431169,357307
1154.75,0.082891,433579,358243
1158.33,0.083776,436264,359727
1161.91,0.085799,439132,360409
1165.48,0.087798,442389,361415
1169.04,0.090126,446101,362499
1173.79,0.093425,451929,364456
1177.34,0.095767,456026,365782
1180.9,0.097388,461306,368639
1184.44,0.099215,467657,372145
1187.99,0.100205,473969,376309
1191.52,0.100654,479856,380590
1195.06,0.100294,487372,386871
1199.76,0.099674,497347,395353
1203.29,0.099226,504311,401303
1206.81,0.098567,511507,407647
1210.33,0.098099,519078,414127
1213.84,0.097608,527163,421053
1217.35,0.097131,534208,427149
1220.85,0.096442,540472,432844
1225.51,0.095028,549929,441854
1229.01,0.094485,556888,448005
1232.5,0.094035,562180,452731
1235.98,0.093435,567975,458030
1239.46,0.092727,574815,464303
1242.94,0.091580,582782,471983
1246.41,0.091069,591476,479588
1251.03,0.091168,604016,489644
1254.5,0.090974,612289,496572
1257.96,0.091204,619125,501851
1261.41,0.092029,624551,505288
1264.86,0.092677,629900,508856
1268.31,0.092722,634345,512393
1271.75,0.093578,638574,514794
1276.33,0.093684,642499,517831
1279.76,0.093766,645905,520478
1283.19,0.092971,648307,523371
1286.61,0.092661,650446,525473
1290.03,0.092614,652132,526892
1293.44,0.092009,653907,529063
1296.85,0.092048,655963,530678
1301.39,0.091258,657349,532768
1304.8,0.091472,657558,532675
1308.19,0.091323,658515,533633
1311.58,0.091330,658804,533859
1314.97,0.092519,659011,532566
1318.36,0.092563,658272,531915
1321.73,0.092682,658022,531568
1326.23,0.093849,657870,530019
1329.6,0.094521,656482,528083
1332.97,0.095003,654926,526247
1336.33,0.096154,653727,523893
1339.69,0.097246,652497,521594
1343.04,0.098687,649913,517807
1346.39,0.100767,647671,513556
1349.73,0.102545,645338,509615
1354.18,0.105625,641175,502750
1357.52,0.107572,638376,498316
1360.85,0.109664,635805,493924
1364.17,0.111416,633413,490084
1367.49,0.113268,631026,486160
1370.81,0.115564,628050,481316
1374.12,0.117616,625034,476747
1378.54,0.120284,620272,470217
1381.84,0.123317,616892,464400
1385.14,0.126283,613613,458788
1388.43,0.130073,611526,453254
1391.72,0.133834,610663,448712
1395.01,0.137306,610634,445118
1398.29,0.141256,611700,441858
1402.66,0.147177,614051,437550
1405.93,0.152056,616268,434224
1409.2,0.156347,617795,431020
1412.46,0.160580,618872,427583
1415.72,0.164647,619795,424230
1418.98,0.168132,620495,421314
1422.23,0.171051,621087,418891
1426.56,0.174658,621375,415619
1429.8,0.177463,621616,413104
1433.04,0.179838,622129,411190
1436.27,0.181998,621526,408753
1439.5,0.184188,621113,406427
1442.72,0.186269,620921,404359
1445.94,0.189075,620270,401334
1450.23,0.192676,618860,397115
1453.44,0.195150,617697,394117
1456.64,0.198348,616264,390318
1459.85,0.200957,614413,386815
1463.04,0.203555,612307,383190
1466.24,0.207491,610032,378322
1469.43,0.211609,607345,373101
1473.67,0.218360,603789,365195
1476.85,0.223740,601175,359138
1480.02,0.229789,597737,352145
1483.19,0.236854,594479,344574
1486.36,0.242081,591232,338592
1489.52,0.247783,587853,332266
1492.68,0.251329,583875,327334
1496.89,0.253302,578062,322606
1500.03,0.253569,574159,320231
1503.18,0.253370,570285,318216
1506.32,0.252990,565444,315791
1509.45,0.251932,560571,313833
1512.58,0.250167,555821,312441
1515.71,0.247310,550344,311404
1519.87,0.244745,543983,309628
1522.99,0.242236,538764,308434
1526.1,0.239670,533692,307341
1529.21,0.236869,527902,305974
1532.32,0.233475,521886,304860
1535.42,0.230906,515888,303144
1538.51,0.227709,509987,301891
1541.6,0.225492,503936,299836
1545.72,0.221034,494694,297374
1548.8,0.218149,488378,295534
1551.88,0.216172,481832,292903
1554.95,0.214048,474989,290159
1558.02,0.211991,467818,287135
1561.08,0.210858,460730,283523
1564.15,0.210650,454170,279620
1568.22,0.209334,444181,274300
1571.27,0.209047,436947,270011
1574.32,0.208254,429598,265955
1577.36,0.206604,422039,262270
1580.4,0.206159,414375,257771
1583.43,0.204500,406354,253749
1586.46,0.203097,398475,249634
1590.49,0.201402,388982,244640
1593.51,0.199170,380708,240670
1596.53,0.197266,372727,236660
1599.54,0.195020,365060,232994
1602.55,0.193013,357543,229253
1605.55,0.191442,349495,224905
1608.55,0.189193,341154,220677
1612.54,0.187950,330877,214643
1615.53,0.186583,322904,210131
1618.51,0.185904,315116,205384
1621.49,0.183817,307217,201200
1624.47,0.182881,299481,196557
1627.44,0.181749,292112,192221
1630.41,0.181206,284245,187278
1634.36,0.178717,274079,181618
1637.32,0.178703,266916,176877
1640.27,0.177997,259612,172317
1643.22,0.177520,251804,167318
1646.16,0.177597,244348,162335
1649.1,0.175901,236703,157871
1652.04,0.173634,228171,152977
1655.95,0.171017,215408,145293
1658.88,0.167613,204937,139318
1661.8,0.162884,193395,132911
1664.72,0.155173,179728,125731
1667.63,0.141634,163642,118103
1670.54,0.125505,146312,109591
1673.44,0.110177,128451,99669
1677.31,0.087638,105080,85878
1680.21,0.077668,88906,74347
1683.1,0.074048,75033,63271
1685.99,0.071008,63520,53939
1688.87,0.071008,53714,45612
1691.75,0.075511,45653,38367
1694.62,0.083251,39137,32310
1697.49,0.086521,33776,27675
1701.31,0.092863,28175,22751

File: Column 1_050624_20150331_123505.csv
Method:,Column 1,,
Host Date-Time:,31/3/15 @ 12:35:5,,
Header Version:,1,,
System Temp (C):,34.11,,
Detector Temp (C):,35.09,,
Humidity (%):,1.56,,
Lamp PD:,3818,,
Shift Vector Coefficients:,-10.5391,0.0761263,-0.000134223,,
Pixel to Wavelength Coefficients:,1775.68,-0.916766,-0.000235065,,
Serial Number:,5510004,,
Scan Config Name:,Column 1,,
Scan Config Type:,Slew,,
Section 1,,
Start wavelength (nm):,900,,
End wavelength (nm):,1700,,
Pattern Pixel Width (nm):,   7.03,,,,
Exposure (ms):,  0.635,,,,
Digital Resolution:,228,,
Num Repeats:,6,,
PGA Gain:,64,,
Total Measurement Time in sec:,  2.671,,
Wavelength (nm),Absorbance (AU),Reference Signal (unitless),Sample Signal (unitless)
901.51,0.069693,108485,92401
905.376,0.076600,121306,101691
909.237,0.075061,131909,110972
913.095,0.077134,143299,119980
916.948,0.079116,156982,130838
922.079,0.080994,179937,149323
925.923,0.082211,200504,165925
929.762,0.082013,222660,184344
933.597,0.081958,244426,202390
937.427,0.081237,263972,218938
941.254,0.080466,281845,234177
945.076,0.079472,297271,247560
950.165,0.078416,315605,263468
953.978,0.077221,328029,274594
957.786,0.077397,340470,284893
961.59,0.077309,352317,294866
965.389,0.077470,363056,303741
969.185,0.077751,373162,311994
972.976,0.078158,382632,319612
976.763,0.078163,391202,326767
981.806,0.078769,400190,333808
985.583,0.079512,406088,338149
989.355,0.079839,410162,341284
993.124,0.080275,412868,343191
996.888,0.080086,414263,344501
1000.65,0.081332,415476,344520
1004.4,0.082301,415479,343754
1009.41,0.083638,414358,341773
1013.15,0.084319,412923,340056
1016.89,0.084777,411526,338548
1020.63,0.084816,409066,336494
1024.36,0.084341,406777,334977
1028.09,0.084100,404427,333227
1031.82,0.084116,401911,331142
1036.78,0.084358,398410,328074
1040.49,0.083673,396204,326773
1044.2,0.083498,394236,325281
1047.91,0.083209,392042,323686
1051.61,0.082629,389823,322284
1055.31,0.082096,388234,321364
1059,0.081987,387599,320919
1063.92,0.081321,386688,320656
1067.61,0.080654,386598,321074
1071.29,0.080418,387377,321896
1074.96,0.079537,388536,323515
1078.63,0.078938,389855,325061
1082.3,0.078188,391215,326759
1085.96,0.078023,393215,328554
1090.84,0.076190,396270,332507
1094.49,0.075733,398760,334949
1098.14,0.075633,400987,336897
1101.79,0.074773,403477,339661
1105.43,0.074887,406116,341793
1109.06,0.073540,407701,344193
1112.7,0.073541,409859,346014
1117.53,0.073108,412494,348586
1121.15,0.073626,414909,350209
1124.77,0.073524,416559,351684
1128.38,0.074497,418532,352559
1131.99,0.075247,419956,353148
1135.6,0.076643,421946,353683
1139.2,0.078092,423881,354121
1143.99,0.080474,426786,354598
1147.58,0.080790,428617,355860
1151.17,0.081977,431169,357002
1154.75,0.083161,433579,358020
1158.33,0.083995,436264,359546
1161.91,0.085909,439132,360318
1165.48,0.087760,442389,361447
1169.04,0.090597,446101,362106
1173.79,0.093117,451929,364715
1177.34,0.095588,456026,365933
1180.9,0.097711,461306,368365
1184.44,0.099754,467657,371684
1187.99,0.100804,473969,375791
1191.52,0.100779,479856,380480
1195.06,0.100693,487372,386516
1199.76,0.100014,497347,395044
1203.29,0.099177,504311,401348
1206.81,0.098361,511507,407841
1210.33,0.098185,519078,414045
1213.84,0.097496,527163,421162
1217.35,0.097186,534208,427095
1220.85,0.096179,540472,433106
1225.51,0.095103,549929,441778
1229.01,0.095140,556888,447330
1232.5,0.094336,562180,452417
1235.98,0.093748,567975,457700
1239.46,0.092756,574815,464272
1242.94,0.091929,582782,471604
1246.41,0.091237,591476,479402
1251.03,0.091133,604016,489683
1254.5,0.091310,612289,496188
1257.96,0.091509,619125,501498
1261.41,0.092669,624551,504544
1264.86,0.092656,629900,508880
1268.31,0.093194,634345,511837
1271.75,0.094005,638574,514288
1276.33,0.094452,642499,516917
1279.76,0.093970,645905,520234
1283.19,0.093464,648307,522777
1286.61,0.093373,650446,524612
1290.03,0.092822,652132,526639
1293.44,0.092069,653907,528989
1296.85,0.091998,655963,530740
1301.39,0.091799,657349,532105
1304.8,0.091702,657558,532393
1308.19,0.091615,658515,533274
1311.58,0.091757,658804,533334
1314.97,0.092379,659011,532738
1318.36,0.092593,658272,531878
1321.73,0.093027,658022,531145
1326.23,0.093681,657870,530224
1329.6,0.094378,656482,528257
1332.97,0.095098,654926,526131
1336.33,0.096189,653727,523851
1339.69,0.097213,652497,521633
1343.04,0.099289,649913,517090
1346.39,0.101100,647671,513162
1349.73,0.103009,645338,509071
1354.18,0.105607,641175,502770
1357.52,0.107314,638376,498612
1360.85,0.109701,635805,493882
1364.17,0.111556,633413,489927
1367.49,0.113970,631026,485375
1370.81,0.115978,628050,480857
1374.12,0.118104,625034,476211
1378.54,0.120236,620272,470269
1381.84,0.123510,616892,464194
1385.14,0.126598,613613,458455
1388.43,0.129775,611526,453565
1391.72,0.133339,610663,449224
1395.01,0.137464,610634,444956
1398.29,0.141936,611700,441166
1402.66,0.147577,614051,437147
1405.93,0.152323,616268,433957
1409.2,0.156537,617795,430831
1412.46,0.161064,618872,427107
1415.72,0.165425,619795,423470
1418.98,0.168151,620495,421296
1422.23,0.171602,621087,418360
1426.56,0.175096,621375,415200
1429.8,0.177566,621616,413006
1433.04,0.180463,622129,410599
1436.27,0.182095,621526,408662
1439.5,0.183921,621113,406677
1442.72,0.186471,620921,404171
1445.94,0.189303,620270,401123
1450.23,0.192784,618860,397016
1453.44,0.195579,617697,393728
1456.64,0.198239,616264,390416
1459.85,0.201436,614413,386389
1463.04,0.204697,612307,382184
1466.24,0.208586,610032,377369
1469.43,0.211837,607345,372905
1473.67,0.218414,603789,365150
1476.85,0.224394,601175,358597
1480.02,0.230411,597737,351641
1483.19,0.236656,594479,344731
1486.36,0.243128,591232,337777
1489.52,0.248487,587853,331728
1492.68,0.251033,583875,327557
1496.89,0.253162,578062,322710
1500.03,0.254029,574159,319892
1503.18,0.254403,570285,317460
1506.32,0.253287,565444,315575
1509.45,0.251560,560571,314102
1512.58,0.250029,555821,312540
1515.71,0.247900,550344,310981
1519.87,0.244470,543983,309824
1522.99,0.241948,538764,308639
1526.1,0.240367,533692,306848
1529.21,0.236704,527902,306090
1532.32,0.233854,521886,304594
1535.42,0.231992,515888,302387
1538.51,0.228329,509987,301460
1541.6,0.225565,503936,299785
1545.72,0.221231,494694,297239
1548.8,0.218628,488378,295208
1551.88,0.215766,481832,293177
1554.95,0.214830,474989,289637
1558.02,0.213104,467818,286400
1561.08,0.211904,460730,282841
1564.15,0.211040,454170,279369
1568.22,0.209924,444181,273928
1571.27,0.209723,436947,269591
1574.32,0.209052,429598,265467
1577.36,0.207883,422039,261499
1580.4,0.207389,414375,257042
1583.43,0.205846,406354,252964
1586.46,0.204181,398475,249012
1590.49,0.201942,388982,244336
1593.51,0.199986,380708,240218
1596.53,0.198324,372727,236084
1599.54,0.196536,365060,232182
1602.55,0.193468,357543,229013
1605.55,0.191538,349495,224855
1608.55,0.190293,341154,220119
1612.54,0.188580,330877,214332
1615.53,0.185931,322904,210447
1618.51,0.185754,315116,205455
1621.49,0.185266,307217,200530
1624.47,0.183684,299481,196194
1627.44,0.182187,292112,192027
1630.41,0.181747,284245,187045
1634.36,0.179809,274079,181162
1637.32,0.179168,266916,176688
1640.27,0.178445,259612,172139
1643.22,0.178177,251804,167065
1646.16,0.178226,244348,162100
1649.1,0.177210,236703,157396
1652.04,0.174763,228171,152580
1655.95,0.171864,215408,145010
1658.88,0.167616,204937,139317
1661.8,0.163643,193395,132679
1664.72,0.154735,179728,125858
1667.63,0.140778,163642,118336
1670.54,0.127344,146312,109128
1673.44,0.111622,128451,99338
1677.31,0.089031,105080,85603
1680.21,0.077405,88906,74392
1683.1,0.071433,75033,63653
1685.99,0.071838,63520,53836
1688.87,0.077358,53714,44950
1691.75,0.078066,45653,38142
1694.62,0.084867,39137,32190
1697.49,0.096939,33776,27019
1701.31,0.098377,28175,22464

File: Column 1_050624_20150331_123508.csv
Method:,Column 1,,
Host Date-Time:,31/3/15 @ 12:35:8,,
Header Version:,1,,
System Temp (C):,34.13,,
Detector Temp (C):,35.09,,
Humidity (%):,1.56,,
Lamp PD:,3818,,
Shift Vector Coefficients:,-10.5391,0.0761263,-0.000134223,,
Pixel to Wavelength Coefficients:,1775.68,-0.916766,-0.000235065,,
Serial Number:,5510004,,
Scan Config Name:,Column 1,,
Scan Config Type:,Slew,,
Section 1,,
Start wavelength (nm):,900,,
End wavelength (nm):,1700,,
Pattern Pixel Width (nm):,   7.03,,,,
Exposure (ms):,  0.635,,,,
Digital Resolution:,228,,
Num Repeats:,6,,
PGA Gain:,64,,
Total Measurement Time in sec:,  2.723,,
Wavelength (nm),Absorbance (AU),Reference Signal (unitless),Sample Signal (unitless)
901.51,0.069073,108485,92533
905.376,0.076365,121306,101746
909.237,0.077573,131909,110332
913.095,0.078200,143299,119686
916.948,0.078857,156982,130916
922.079,0.081751,179937,149063
925.923,0.082240,200504,165914
929.762,0.083914,222660,183539
933.597,0.082512,244426,202132
937.427,0.080894,263972,219111
941.254,0.079627,281845,234630
945.076,0.079269,297271,247676
950.165,0.078916,315605,263165
953.978,0.077223,328029,274593
957.786,0.077615,340470,284750
961.59,0.077664,352317,294625
965.389,0.077703,363056,303578
969.185,0.077473,373162,312194
972.976,0.078018,382632,319715
976.763,0.078039,391202,326860
981.806,0.078395,400190,334096
985.583,0.078974,406088,338568
989.355,0.080165,410162,341028
993.124,0.080083,412868,343343
996.888,0.080518,414263,344158
1000.65,0.080985,415476,344795
1004.4,0.082042,415479,343959
1009.41,0.084466,414358,341122
1013.15,0.084104,412923,340224
1016.89,0.084777,411526,338548
1020.63,0.085123,409066,336256
1024.36,0.084786,406777,334634
1028.09,0.084682,404427,332781
1031.82,0.084824,401911,330602
1036.78,0.084561,398410,327921
1040.49,0.084089,396204,326460
1044.2,0.084041,394236,324874
1047.91,0.083480,392042,323484
1051.61,0.083685,389823,321501
1055.31,0.082475,388234,321084
1059,0.082143,387599,320804
1063.92,0.081569,386688,320473
1067.61,0.080981,386598,320833
1071.29,0.080432,387377,321886
1074.96,0.079903,388536,323242
1078.63,0.079385,389855,324727
1082.3,0.078567,391215,326474
1085.96,0.077377,393215,329043
1090.84,0.076466,396270,332296
1094.49,0.076457,398760,334391
1098.14,0.075932,400987,336665
1101.79,0.075810,403477,338851
1105.43,0.074882,406116,341797
1109.06,0.073660,407701,344098
1112.7,0.073786,409859,345819
1117.53,0.072930,412494,348729
1121.15,0.072990,414909,350722
1124.77,0.073764,416559,351490
1128.38,0.074597,418532,352478
1131.99,0.075679,419956,352797
1135.6,0.077261,421946,353180
1139.2,0.078125,423881,354094
1143.99,0.080487,426786,354587
1147.58,0.081350,428617,355402
1151.17,0.081783,431169,357161
1154.75,0.083532,433579,357714
1158.33,0.084072,436264,359482
1161.91,0.086151,439132,360117
1165.48,0.088895,442389,360503
1169.04,0.090442,446101,362236
1173.79,0.093875,451929,364079
1177.34,0.095751,456026,365796
1180.9,0.097818,461306,368274
1184.44,0.100083,467657,371402
1187.99,0.100344,473969,376189
1191.52,0.100914,479856,380362
1195.06,0.100558,487372,386636
1199.76,0.099934,497347,395117
1203.29,0.099205,504311,401322
1206.81,0.099082,511507,407164
1210.33,0.098128,519078,414099
1213.84,0.098004,527163,420669
1217.35,0.096980,534208,427298
1220.85,0.096470,540472,432816
1225.51,0.095388,549929,441488
1229.01,0.094901,556888,447576
1232.5,0.094800,562180,451934
1235.98,0.093935,567975,457503
1239.46,0.093014,574815,463996
1242.94,0.091913,582782,471621
1246.41,0.091195,591476,479449
1251.03,0.090879,604016,489970
1254.5,0.091575,612289,495886
1257.96,0.091841,619125,501115
1261.41,0.092445,624551,504804
1264.86,0.093133,629900,508322
1268.31,0.093311,634345,511699
1271.75,0.094083,638574,514195
1276.33,0.094012,642499,517440
1279.76,0.094107,645905,520070
1283.19,0.093566,648307,522654
1286.61,0.093330,650446,524664
1290.03,0.092574,652132,526940
1293.44,0.092482,653907,528487
1296.85,0.091904,655963,530854
1301.39,0.091928,657349,531946
1304.8,0.091856,657558,532204
1308.19,0.091615,658515,533274
1311.58,0.091639,658804,533479
1314.97,0.092620,659011,532443
1318.36,0.092747,658272,531690
1321.73,0.092718,658022,531523
1326.23,0.093925,657870,529926
1329.6,0.094216,656482,528454
1332.97,0.095339,654926,525839
1336.33,0.096172,653727,523871
1339.69,0.097878,652497,520836
1343.04,0.099155,649913,517250
1346.39,0.101071,647671,513196
1349.73,0.102949,645338,509141
1354.18,0.105555,641175,502830
1357.52,0.107853,638376,497993
1360.85,0.110411,635805,493075
1364.17,0.111423,633413,490077
1367.49,0.113921,631026,485430
1370.81,0.115846,628050,481004
1374.12,0.118151,625034,476160
1378.54,0.120895,620272,469556
1381.84,0.123668,616892,464025
1385.14,0.126750,613613,458294
1388.43,0.129968,611526,453364
1391.72,0.133975,610663,448566
1395.01,0.138075,610634,444330
1398.29,0.141824,611700,441280
1402.66,0.147783,614051,436940
1405.93,0.152235,616268,434045
1409.2,0.157091,617795,430282
1412.46,0.160986,618872,427184
1415.72,0.165073,619795,423814
1418.98,0.168426,620495,421029
1422.23,0.170760,621087,419172
1426.56,0.175002,621375,415290
1429.8,0.177538,621616,413032
1433.04,0.180090,622129,410951
1436.27,0.182611,621526,408177
1439.5,0.184352,621113,406274
1442.72,0.186930,620921,403744
1445.94,0.189440,620270,400997
1450.23,0.193054,618860,396770
1453.44,0.195628,617697,393684
1456.64,0.198850,616264,389867
1459.85,0.201136,614413,386656
1463.04,0.203969,612307,382825
1466.24,0.207547,610032,378273
1469.43,0.212229,607345,372569
1473.67,0.218429,603789,365137
1476.85,0.224314,601175,358663
1480.02,0.230684,597737,351420
1483.19,0.237313,594479,344210
1486.36,0.243250,591232,337682
1489.52,0.248121,587853,332007
1492.68,0.251427,583875,327260
1496.89,0.253908,578062,322156
1500.03,0.254089,574159,319848
1503.18,0.254382,570285,317475
1506.32,0.253859,565444,315160
1509.45,0.251987,560571,313793
1512.58,0.250842,555821,311956
1515.71,0.248106,550344,310834
1519.87,0.245283,543983,309245
1522.99,0.242782,538764,308047
1526.1,0.240571,533692,306704
1529.21,0.236335,527902,306350
1532.32,0.234345,521886,304250
1535.42,0.231566,515888,302684
1538.51,0.228997,509987,300997
1541.6,0.225441,503936,299871
1545.72,0.221200,494694,297260
1548.8,0.218609,488378,295221
1551.88,0.215761,481832,293180
1554.95,0.214999,474989,289524
1558.02,0.212669,467818,286687
1561.08,0.212084,460730,282724
1564.15,0.210442,454170,279754
1568.22,0.211032,444181,273230
1571.27,0.209506,436947,269726
1574.32,0.209359,429598,265279
1577.36,0.207544,422039,261703
1580.4,0.206515,414375,257560
1583.43,0.205983,406354,252884
1586.46,0.204432,398475,248868
1590.49,0.202365,388982,244098
1593.51,0.199750,380708,240349
1596.53,0.197991,372727,236265
1599.54,0.196222,365060,232350
1602.55,0.194288,357543,228581
1605.55,0.191790,349495,224725
1608.55,0.190577,341154,219975
1612.54,0.188675,330877,214285
1615.53,0.186784,322904,210034
1618.51,0.185559,315116,205547
1621.49,0.184660,307217,200810
1624.47,0.183580,299481,196241
1627.44,0.181963,292112,192126
1630.41,0.182239,284245,186833
1634.36,0.180588,274079,180837
1637.32,0.179603,266916,176511
1640.27,0.179069,259612,171892
1643.22,0.178104,251804,167093
1646.16,0.179267,244348,161712
1649.1,0.177503,236703,157290
1652.04,0.176394,228171,152008
1655.95,0.172775,215408,144706
1658.88,0.167663,204937,139302
1661.8,0.163630,193395,132683
1664.72,0.154987,179728,125785
1667.63,0.141954,163642,118016
1670.54,0.126779,146312,109270
1673.44,0.113111,128451,98998
1677.31,0.090846,105080,85246
1680.21,0.079805,88906,73982
1683.1,0.074920,75033,63144
1685.99,0.072807,63520,53716
1688.87,0.073462,53714,45355
1691.75,0.083116,45653,37701
1694.62,0.088838,39137,31897
1697.49,0.099454,33776,26863
1701.31,0.103863,28175,22182