Folder: textile_sorting_NIRSCAN_/samples/wool/wool-000811 (part 53)

File: Column 1_050560_20150331_120425.csv
Method:,Column 1,,
Host Date-Time:,31/3/15 @ 12:4:25,,
Header Version:,1,,
System Temp (C):,33.68,,
Detector Temp (C):,33.12,,
Humidity (%):,2.15,,
Lamp PD:,3819,,
Shift Vector Coefficients:,-10.5391,0.0761263,-0.000134223,,
Pixel to Wavelength Coefficients:,1775.68,-0.916766,-0.000235065,,
Serial Number:,5510004,,
Scan Config Name:,Column 1,,
Scan Config Type:,Slew,,
Section 1,,
Start wavelength (nm):,900,,
End wavelength (nm):,1700,,
Pattern Pixel Width (nm):,   7.03,,,,
Exposure (ms):,  0.635,,,,
Digital Resolution:,228,,
Num Repeats:,6,,
PGA Gain:,64,,
Total Measurement Time in sec:,  2.688,,
Wavelength (nm),Absorbance (AU),Reference Signal (unitless),Sample Signal (unitless)
901.51,0.034996,108485,100086
905.376,0.039966,121306,110641
909.237,0.041691,131909,119835
913.095,0.043615,143299,129607
916.948,0.043644,156982,141973
922.079,0.045233,179937,162139
925.923,0.045850,200504,180415
929.762,0.047319,222660,199675
933.597,0.048114,244426,218793
937.427,0.046890,263972,236956
941.254,0.046904,281845,252992
945.076,0.046776,297271,266917
950.165,0.046425,315605,283608
953.978,0.045759,328029,295225
957.786,0.045675,340470,306481
961.59,0.046509,352317,316537
965.389,0.046853,363056,325927
969.185,0.046605,373162,335191
972.976,0.047114,382632,343295
976.763,0.047766,391202,350457
981.806,0.048491,400190,357911
985.583,0.048840,406088,362894
989.355,0.049458,410162,366014
993.124,0.049666,412868,368252
996.888,0.050762,414263,368565
1000.65,0.051402,415476,369100
1004.4,0.052862,415479,367864
1009.41,0.053501,414358,366332
1013.15,0.054712,412923,364047
1016.89,0.055112,411526,362481
1020.63,0.054864,409066,360520
1024.36,0.055117,406777,358294
1028.09,0.054324,404427,356875
1031.82,0.054204,401911,354753
1036.78,0.053881,398410,351924
1040.49,0.053174,396204,350546
1044.2,0.053539,394236,348512
1047.91,0.053003,392042,347000
1051.61,0.052456,389823,345471
1055.31,0.052309,388234,344179
1059,0.051732,387599,344073
1063.92,0.050083,386688,344570
1067.61,0.049326,386598,345091
1071.29,0.049044,387377,346011
1074.96,0.048913,388536,347151
1078.63,0.047953,389855,349100
1082.3,0.046849,391215,351210
1085.96,0.046670,393215,353151
1090.84,0.045609,396270,356765
1094.49,0.045689,398760,358941
1098.14,0.045152,400987,361392
1101.79,0.044451,403477,364223
1105.43,0.044663,406116,366427
1109.06,0.044224,407701,368229
1112.7,0.044206,409859,370193
1117.53,0.043960,412494,372784
1121.15,0.045383,414909,373740
1124.77,0.045653,416559,374993
1128.38,0.047159,418532,375465
1131.99,0.048231,419956,375814
1135.6,0.049653,421946,376360
1139.2,0.052335,423881,375759
1143.99,0.054322,426786,376607
1147.58,0.055564,428617,377142
1151.17,0.056611,431169,378474
1154.75,0.057943,433579,379424
1158.33,0.059689,436264,380242
1161.91,0.061324,439132,381304
1165.48,0.064278,442389,381528
1169.04,0.067161,446101,382184
1173.79,0.070521,451929,384193
1177.34,0.073058,456026,385418
1180.9,0.075306,461306,387867
1184.44,0.076696,467657,391951
1187.99,0.077982,473969,396066
1191.52,0.077754,479856,401196
1195.06,0.077309,487372,407898
1199.76,0.076589,497347,416937
1203.29,0.075532,504311,423805
1206.81,0.075092,511507,430288
1210.33,0.073781,519078,437977
1213.84,0.073250,527163,445343
1217.35,0.072225,534208,452361
1220.85,0.071643,540472,458279
1225.51,0.070411,549929,467623
1229.01,0.070547,556888,473392
1232.5,0.069437,562180,479114
1235.98,0.068557,567975,485034
1239.46,0.067734,574815,491806
1242.94,0.066536,582782,500000
1246.41,0.066522,591476,507476
1251.03,0.066122,604016,518712
1254.5,0.066223,612289,525695
1257.96,0.066656,619125,531034
1261.41,0.067106,624551,535133
1264.86,0.067599,629900,539104
1268.31,0.068283,634345,542054
1271.75,0.069102,638574,544640
1276.33,0.069449,642499,547550
1279.76,0.069523,645905,550358
1283.19,0.068706,648307,553445
1286.61,0.068381,650446,555687
1290.03,0.068014,652132,557598
1293.44,0.067539,653907,559728
1296.85,0.067706,655963,561272
1301.39,0.067066,657349,563287
1304.8,0.067241,657558,563239
1308.19,0.067538,658515,563673
1311.58,0.067584,658804,563861
1314.97,0.068160,659011,563291
1318.36,0.068587,658272,562106
1321.73,0.069671,658022,560492
1326.23,0.070109,657870,559798
1329.6,0.071162,656482,557264
1332.97,0.072096,654926,554748
1336.33,0.073200,653727,552327
1339.69,0.075104,652497,548876
1343.04,0.076709,649913,544686
1346.39,0.079325,647671,539547
1349.73,0.081300,645338,535164
1354.18,0.084534,641175,527768
1357.52,0.086856,638376,522662
1360.85,0.089164,635805,517797
1364.17,0.091007,633413,513665
1367.49,0.093820,631026,508426
1370.81,0.095955,628050,503546
1374.12,0.098578,625034,498111
1378.54,0.101968,620272,490472
1381.84,0.105638,616892,483694
1385.14,0.109830,613613,476502
1388.43,0.114285,611526,470035
1391.72,0.119360,610663,463918
1395.01,0.124445,610634,458496
1398.29,0.129774,611700,453695
1402.66,0.137258,614051,447658
1405.93,0.142830,616268,443547
1409.2,0.148730,617795,438646
1412.46,0.154518,618872,433594
1415.72,0.159056,619795,429726
1418.98,0.163039,620495,426284
1422.23,0.166666,621087,423142
1426.56,0.171451,621375,418700
1429.8,0.174179,621616,416239
1433.04,0.176903,622129,413978
1436.27,0.180007,621526,410632
1439.5,0.181732,621113,408732
1442.72,0.184101,620921,406383
1445.94,0.187166,620270,403102
1450.23,0.190683,618860,398942
1453.44,0.193199,617697,395892
1456.64,0.196456,616264,392022
1459.85,0.199186,614413,388396
1463.04,0.202015,612307,384551
1466.24,0.205036,610032,380467
1469.43,0.208540,607345,375747
1473.67,0.214070,603789,368821
1476.85,0.219595,601175,362582
1480.02,0.225380,597737,355738
1483.19,0.232499,594479,348047
1486.36,0.238582,591232,341331
1489.52,0.242869,587853,336047
1492.68,0.246660,583875,330872
1496.89,0.248644,578062,326085
1500.03,0.249718,574159,323083
1503.18,0.249721,570285,320901
1506.32,0.248999,565444,318706
1509.45,0.247417,560571,317113
1512.58,0.246006,555821,315449
1515.71,0.243739,550344,313975
1519.87,0.240505,543983,312666
1522.99,0.237077,538764,312120
1526.1,0.235031,533692,310642
1529.21,0.231574,527902,309727
1532.32,0.229276,521886,307822
1535.42,0.225649,515888,306836
1538.51,0.222724,509987,305376
1541.6,0.219728,503936,303842
1545.72,0.215139,494694,301438
1548.8,0.211120,488378,300356
1551.88,0.209628,481832,297350
1554.95,0.206963,474989,294931
1558.02,0.205129,467818,291708
1561.08,0.203832,460730,288147
1564.15,0.203390,454170,284334
1568.22,0.202305,444181,278776
1571.27,0.202279,436947,274252
1574.32,0.200864,429598,270519
1577.36,0.198570,422039,267167
1580.4,0.198158,414375,262564
1583.43,0.195935,406354,258803
1586.46,0.193982,398475,254929
1590.49,0.191673,388982,250182
1593.51,0.189966,380708,245825
1596.53,0.186762,372727,242454
1599.54,0.184619,365060,238641
1602.55,0.182530,357543,234854
1605.55,0.181279,349495,230230
1608.55,0.178469,341154,226194
1612.54,0.175910,330877,220677
1615.53,0.173951,322904,216333
1618.51,0.172899,315116,211627
1621.49,0.171158,307217,207151
1624.47,0.170279,299481,202344
1627.44,0.169505,292112,197717
1630.41,0.168725,284245,192738
1634.36,0.166859,274079,186645
1637.32,0.165826,266916,182200
1640.27,0.166055,259612,177121
1643.22,0.164077,251804,172578
1646.16,0.163263,244348,167782
1649.1,0.162459,236703,162834
1652.04,0.160473,228171,157684
1655.95,0.158900,215408,149404
1658.88,0.156731,204937,142853
1661.8,0.152195,193395,136223
1664.72,0.146074,179728,128393
1667.63,0.136836,163642,119415
1670.54,0.124848,146312,109757
1673.44,0.114566,128451,98667
1677.31,0.101553,105080,83170
1680.21,0.094425,88906,71533
1683.1,0.091870,75033,60727
1685.99,0.098460,63520,50635
1688.87,0.106053,53714,42076
1691.75,0.105307,45653,35823
1694.62,0.114295,39137,30081
1697.49,0.114755,33776,25933
1701.31,0.120568,28175,21345

File: Column 1_050560_20150331_120436.csv
Method:,Column 1,,
Host Date-Time:,31/3/15 @ 12:4:36,,
Header Version:,1,,
System Temp (C):,33.67,,
Detector Temp (C):,33.17,,
Humidity (%):,2.15,,
Lamp PD:,3819,,
Shift Vector Coefficients:,-10.5391,0.0761263,-0.000134223,,
Pixel to Wavelength Coefficients:,1775.68,-0.916766,-0.000235065,,
Serial Number:,5510004,,
Scan Config Name:,Column 1,,
Scan Config Type:,Slew,,
Section 1,,
Start wavelength (nm):,900,,
End wavelength (nm):,1700,,
Pattern Pixel Width (nm):,   7.03,,,,
Exposure (ms):,  0.635,,,,
Digital Resolution:,228,,
Num Repeats:,6,,
PGA Gain:,64,,
Total Measurement Time in sec:,  2.662,,
Wavelength (nm),Absorbance (AU),Reference Signal (unitless),Sample Signal (unitless)
901.51,0.033126,108485,100518
905.376,0.040249,121306,110569
909.237,0.041281,131909,119948
913.095,0.042611,143299,129907
916.948,0.042154,156982,142461
922.079,0.045080,179937,162196
925.923,0.045425,200504,180592
929.762,0.046999,222660,199822
933.597,0.047285,244426,219211
937.427,0.046837,263972,236985
941.254,0.046928,281845,252978
945.076,0.046025,297271,267379
950.165,0.045446,315605,284248
953.978,0.045487,328029,295410
957.786,0.045280,340470,306760
961.59,0.046136,352317,316809
965.389,0.046118,363056,326479
969.185,0.046197,373162,335506
972.976,0.047371,382632,343092
976.763,0.047702,391202,350509
981.806,0.047884,400190,358412
985.583,0.048661,406088,363044
989.355,0.049516,410162,365965
993.124,0.049429,412868,368453
996.888,0.050343,414263,368921
1000.65,0.051317,415476,369172
1004.4,0.052719,415479,367985
1009.41,0.053826,414358,366058
1013.15,0.054341,412923,364358
1016.89,0.054740,411526,362792
1020.63,0.054609,409066,360732
1024.36,0.054193,406777,359057
1028.09,0.054010,404427,357133
1031.82,0.053845,401911,355046
1036.78,0.053815,398410,351978
1040.49,0.053510,396204,350275
1044.2,0.053431,394236,348598
1047.91,0.052538,392042,347372
1051.61,0.052246,389823,345638
1055.31,0.051695,388234,344666
1059,0.050878,387599,344750
1063.92,0.050177,386688,344496
1067.61,0.049083,386598,345284
1071.29,0.048679,387377,346302
1074.96,0.048177,388536,347740
1078.63,0.047309,389855,349618
1082.3,0.047007,391215,351082
1085.96,0.046561,393215,353239
1090.84,0.045712,396270,356680
1094.49,0.045386,398760,359191
1098.14,0.044883,400987,361616
1101.79,0.044948,403477,363807
1105.43,0.044595,406116,366484
1109.06,0.043947,407701,368464
1112.7,0.043849,409859,370498
1117.53,0.044263,412494,372524
1121.15,0.045183,414909,373912
1124.77,0.044953,416559,375598
1128.38,0.046760,418532,375810
1131.99,0.047670,419956,376300
1135.6,0.049614,421946,376394
1139.2,0.051729,423881,376283
1143.99,0.054165,426786,376743
1147.58,0.055009,428617,377625
1151.17,0.057057,431169,378086
1154.75,0.058013,433579,379363
1158.33,0.059539,436264,380374
1161.91,0.061847,439132,380845
1165.48,0.063691,442389,382044
1169.04,0.066622,446101,382658
1173.79,0.070515,451929,384198
1177.34,0.072132,456026,386240
1180.9,0.074948,461306,388187
1184.44,0.076873,467657,391791
1187.99,0.077518,473969,396490
1191.52,0.077398,479856,401525
1195.06,0.077315,487372,407892
1199.76,0.076304,497347,417211
1203.29,0.075083,504311,424244
1206.81,0.074731,511507,430646
1210.33,0.073259,519078,438504
1213.84,0.073265,527163,445328
1217.35,0.072381,534208,452199
1220.85,0.071394,540472,458542
1225.51,0.070229,549929,467819
1229.01,0.069814,556888,474192
1232.5,0.069298,562180,479267
1235.98,0.068841,567975,484717
1239.46,0.067707,574815,491837
1242.94,0.066600,582782,499926
1246.41,0.065917,591476,508183
1251.03,0.065679,604016,519241
1254.5,0.066079,612289,525869
1257.96,0.066282,619125,531491
1261.41,0.067007,624551,535255
1264.86,0.067821,629900,538828
1268.31,0.068269,634345,542071
1271.75,0.068766,638574,545061
1276.33,0.068992,642499,548126
1279.76,0.069282,645905,550664
1283.19,0.068820,648307,553300
1286.61,0.068101,650446,556045
1290.03,0.068190,652132,557373
1293.44,0.067393,653907,559916
1296.85,0.067240,655963,561874
1301.39,0.067089,657349,563258
1304.8,0.067087,657558,563439
1308.19,0.067487,658515,563740
1311.58,0.067247,658804,564299
1314.97,0.068293,659011,563118
1318.36,0.068363,658272,562396
1321.73,0.068784,658022,561638
1326.23,0.069675,657870,560357
1329.6,0.070957,656482,557527
1332.97,0.072169,654926,554655
1336.33,0.073166,653727,552370
1339.69,0.075048,652497,548947
1343.04,0.076549,649913,544887
1346.39,0.079214,647671,539685
1349.73,0.080943,645338,535604
1354.18,0.084297,641175,528055
1357.52,0.086706,638376,522842
1360.85,0.088958,635805,518043
1364.17,0.091084,633413,513574
1367.49,0.093956,631026,508266
1370.81,0.095721,628050,503817
1374.12,0.098605,625034,498079
1378.54,0.101755,620272,490713
1381.84,0.105100,616892,484294
1385.14,0.109513,613613,476850
1388.43,0.114003,611526,470340
1391.72,0.118664,610663,464662
1395.01,0.123603,610634,459386
1398.29,0.129568,611700,453911
1402.66,0.137083,614051,447839
1405.93,0.143053,616268,443319
1409.2,0.148726,617795,438650
1412.46,0.153986,618872,434125
1415.72,0.158229,619795,430546
1418.98,0.162454,620495,426859
1422.23,0.166297,621087,423502
1426.56,0.171212,621375,418930
1429.8,0.173648,621616,416749
1433.04,0.176612,622129,414256
1436.27,0.179057,621526,411531
1439.5,0.181219,621113,409215
1442.72,0.184207,620921,406284
1445.94,0.186837,620270,403407
1450.23,0.190274,618860,399318
1453.44,0.193010,617697,396064
1456.64,0.196381,616264,392090
1459.85,0.198638,614413,388886
1463.04,0.201914,612307,384641
1466.24,0.205019,610032,380482
1469.43,0.208369,607345,375895
1473.67,0.214284,603789,368639
1476.85,0.219257,601175,362864
1480.02,0.225192,597737,355892
1483.19,0.231351,594479,348968
1486.36,0.237811,591232,341938
1489.52,0.243255,587853,335748
1492.68,0.246388,583875,331079
1496.89,0.248709,578062,326036
1500.03,0.249418,574159,323306
1503.18,0.249488,570285,321073
1506.32,0.248388,565444,319155
1509.45,0.247014,560571,317407
1512.58,0.245865,555821,315551
1515.71,0.243233,550344,314341
1519.87,0.239780,543983,313188
1522.99,0.237560,538764,311773
1526.1,0.234643,533692,310919
1529.21,0.231780,527902,309580
1532.32,0.228290,521886,308522
1535.42,0.225031,515888,307273
1538.51,0.222228,509987,305725
1541.6,0.219908,503936,303716
1545.72,0.214999,494694,301535
1548.8,0.212269,488378,299562
1551.88,0.209015,481832,297770
1554.95,0.207955,474989,294258
1558.02,0.205373,467818,291544
1561.08,0.204443,460730,287742
1564.15,0.203194,454170,284462
1568.22,0.202071,444181,278926
1571.27,0.201727,436947,274601
1574.32,0.200325,429598,270855
1577.36,0.198902,422039,266963
1580.4,0.197269,414375,263102
1583.43,0.196046,406354,258737
1586.46,0.193871,398475,254994
1590.49,0.191686,388982,250175
1593.51,0.189152,380708,246286
1596.53,0.187452,372727,242069
1599.54,0.184485,365060,238715
1602.55,0.182787,357543,234715
1605.55,0.181115,349495,230317
1608.55,0.178214,341154,226327
1612.54,0.176077,330877,220592
1615.53,0.173898,322904,216359
1618.51,0.172801,315116,211675
1621.49,0.171998,307217,206751
1624.47,0.170262,299481,202352
1627.44,0.169411,292112,197760
1630.41,0.167562,284245,193255
1634.36,0.166932,274079,186614
1637.32,0.165607,266916,182292
1640.27,0.164667,259612,177688
1643.22,0.163012,251804,173002
1646.16,0.162519,244348,168070
1649.1,0.162408,236703,162853
1652.04,0.160511,228171,157670
1655.95,0.158409,215408,149573
1658.88,0.155417,204937,143286
1661.8,0.150394,193395,136789
1664.72,0.145037,179728,128700
1667.63,0.135445,163642,119798
1670.54,0.125026,146312,109712
1673.44,0.114891,128451,98593
1677.31,0.100552,105080,83362
1680.21,0.094097,88906,71587
1683.1,0.092307,75033,60666
1685.99,0.098314,63520,50652
1688.87,0.099334,53714,42732
1691.75,0.103107,45653,36005
1694.62,0.118007,39137,29825
1697.49,0.117730,33776,25756
1701.31,0.129095,28175,20930

File: Column 1_050560_20150331_120442.csv
Method:,Column 1,,
Host Date-Time:,31/3/15 @ 12:4:42,,
Header Version:,1,,
System Temp (C):,33.66,,
Detector Temp (C):,33.2,,
Humidity (%):,2.15,,
Lamp PD:,3819,,
Shift Vector Coefficients:,-10.5391,0.0761263,-0.000134223,,
Pixel to Wavelength Coefficients:,1775.68,-0.916766,-0.000235065,,
Serial Number:,5510004,,
Scan Config Name:,Column 1,,
Scan Config Type:,Slew,,
Section 1,,
Start wavelength (nm):,900,,
End wavelength (nm):,1700,,
Pattern Pixel Width (nm):,   7.03,,,,
Exposure (ms):,  0.635,,,,
Digital Resolution:,228,,
Num Repeats:,6,,
PGA Gain:,64,,
Total Measurement Time in sec:,  2.660,,
Wavelength (nm),Absorbance (AU),Reference Signal (unitless),Sample Signal (unitless)
901.51,0.034320,108485,100242
905.376,0.040186,121306,110585
909.237,0.042961,131909,119485
913.095,0.042972,143299,129799
916.948,0.044802,156982,141595
922.079,0.045335,179937,162101
925.923,0.046474,200504,180156
929.762,0.047593,222660,199549
933.597,0.048251,244426,218724
937.427,0.047057,263972,236865
941.254,0.046773,281845,253068
945.076,0.047351,297271,266564
950.165,0.046041,315605,283859
953.978,0.045386,328029,295479
957.786,0.045391,340470,306682
961.59,0.046832,352317,316302
965.389,0.046675,363056,326061
969.185,0.047067,373162,334835
972.976,0.046894,382632,343469
976.763,0.048044,391202,350233
981.806,0.048318,400190,358054
985.583,0.049716,406088,362163
989.355,0.050309,410162,365297
993.124,0.049844,412868,368101
996.888,0.050491,414263,368795
1000.65,0.050995,415476,369446
1004.4,0.052774,415479,367938
1009.41,0.053572,414358,366272
1013.15,0.054620,412923,364124
1016.89,0.054984,411526,362588
1020.63,0.055191,409066,360249
1024.36,0.055127,406777,358286
1028.09,0.054525,404427,356710
1031.82,0.053850,401911,355042
1036.78,0.054031,398410,351803
1040.49,0.053137,396204,350576
1044.2,0.053193,394236,348789
1047.91,0.052764,392042,347191
1051.61,0.051737,389823,346043
1055.31,0.051748,388234,344624
1059,0.051465,387599,344285
1063.92,0.050733,386688,344055
1067.61,0.049879,386598,344652
1071.29,0.049090,387377,345974
1074.96,0.048438,388536,347531
1078.63,0.047738,389855,349273
1082.3,0.047148,391215,350968
1085.96,0.046670,393215,353151
1090.84,0.046025,396270,356423
1094.49,0.045239,398760,359313
1098.14,0.045330,400987,361244
1101.79,0.044323,403477,364331
1105.43,0.044511,406116,366555
1109.06,0.044213,407701,368238
1112.7,0.044520,409859,369926
1117.53,0.043753,412494,372962
1121.15,0.044966,414909,374099
1124.77,0.045281,416559,375315
1128.38,0.046559,418532,375984
1131.99,0.047900,419956,376100
1135.6,0.049660,421946,376354
1139.2,0.051957,423881,376086
1143.99,0.054140,426786,376765
1147.58,0.055459,428617,377234
1151.17,0.056873,431169,378246
1154.75,0.057851,433579,379505
1158.33,0.059834,436264,380115
1161.91,0.061744,439132,380935
1165.48,0.064127,442389,381661
1169.04,0.066753,446101,382543
1173.79,0.070828,451929,383921
1177.34,0.072311,456026,386081
1180.9,0.075153,461306,388004
1184.44,0.077613,467657,391124
1187.99,0.078387,473969,395697
1191.52,0.077904,479856,401058
1195.06,0.077249,487372,407954
1199.76,0.076087,497347,417419
1203.29,0.075098,504311,424229
1206.81,0.075223,511507,430159
1210.33,0.073414,519078,438348
1213.84,0.072803,527163,445802
1217.35,0.071937,534208,452661
1220.85,0.071812,540472,458101
1225.51,0.070374,549929,467663
1229.01,0.070256,556888,473709
1232.5,0.069614,562180,478918
1235.98,0.068635,567975,484947
1239.46,0.067634,574815,491919
1242.94,0.066823,582782,499670
1246.41,0.066302,591476,507733
1251.03,0.066017,604016,518838
1254.5,0.066313,612289,525585
1257.96,0.066619,619125,531079
1261.41,0.067281,624551,534918
1264.86,0.067983,629900,538628
1268.31,0.068375,634345,541939
1271.75,0.069099,638574,544643
1276.33,0.069200,642499,547863
1279.76,0.069512,645905,550373
1283.19,0.068969,648307,553110
1286.61,0.068644,650446,555351
1290.03,0.068406,652132,557095
1293.44,0.067685,653907,559540
1296.85,0.067287,655963,561814
1301.39,0.067402,657349,562852
1304.8,0.067197,657558,563296
1308.19,0.067364,658515,563899
1311.58,0.067647,658804,563779
1314.97,0.068134,659011,563324
1318.36,0.068876,658272,561732
1321.73,0.068878,658022,561517
1326.23,0.070448,657870,559361
1329.6,0.070994,656482,557479
1332.97,0.071965,654926,554916
1336.33,0.073152,653727,552388
1339.69,0.075057,652497,548936
1343.04,0.076863,649913,544493
1346.39,0.078957,647671,540005
1349.73,0.081240,645338,535238
1354.18,0.084705,641175,527560
1357.52,0.086880,638376,522633
1360.85,0.089494,635805,517404
1364.17,0.091499,633413,513083
1367.49,0.093245,631026,509099
1370.81,0.095833,628050,503687
1374.12,0.098428,625034,498282
1378.54,0.102120,620272,490300
1381.84,0.105813,616892,483500
1385.14,0.109734,613613,476607
1388.43,0.114132,611526,470200
1391.72,0.119182,610663,464109
1395.01,0.124093,610634,458868
1398.29,0.129564,611700,453915
1402.66,0.136903,614051,448024
1405.93,0.143211,616268,443158
1409.2,0.148638,617795,438739
1412.46,0.153660,618872,434451
1415.72,0.158709,619795,430070
1418.98,0.163231,620495,426096
1422.23,0.166872,621087,422942
1426.56,0.170618,621375,419504
1429.8,0.174111,621616,416305
1433.04,0.176841,622129,414037
1436.27,0.179304,621526,411297
1439.5,0.181149,621113,409281
1442.72,0.183678,620921,406779
1445.94,0.186179,620270,404019
1450.23,0.190147,618860,399434
1453.44,0.193182,617697,395907
1456.64,0.195988,616264,392445
1459.85,0.198609,614413,388912
1463.04,0.201584,612307,384933
1466.24,0.204823,610032,380653
1469.43,0.208708,607345,375602
1473.67,0.214264,603789,368656
1476.85,0.219803,601175,362408
1480.02,0.225293,597737,355809
1483.19,0.231975,594479,348467
1486.36,0.238419,591232,341459
1489.52,0.243197,587853,335793
1492.68,0.246547,583875,330958
1496.89,0.248214,578062,326408
1500.03,0.249218,574159,323455
1503.18,0.249649,570285,320954
1506.32,0.248647,565444,318965
1509.45,0.247195,560571,317275
1512.58,0.246044,555821,315421
1515.71,0.243384,550344,314232
1519.87,0.240037,543983,313003
1522.99,0.237080,538764,312118
1526.1,0.234490,533692,311029
1529.21,0.232057,527902,309383
1532.32,0.228739,521886,308203
1535.42,0.226006,515888,306584
1538.51,0.222755,509987,305354
1541.6,0.219941,503936,303693
1545.72,0.214512,494694,301873
1548.8,0.211681,488378,299968
1551.88,0.208921,481832,297834
1554.95,0.207802,474989,294362
1558.02,0.205930,467818,291170
1561.08,0.203534,460730,288345
1564.15,0.203870,454170,284020
1568.22,0.201570,444181,279248
1571.27,0.201423,436947,274793
1574.32,0.200513,429598,270738
1577.36,0.199196,422039,266782
1580.4,0.197279,414375,263096
1583.43,0.195685,406354,258952
1586.46,0.194159,398475,254825
1590.49,0.191474,388982,250297
1593.51,0.189780,380708,245930
1596.53,0.186749,372727,242461
1599.54,0.185235,365060,238303
1602.55,0.183673,357543,234237
1605.55,0.181055,349495,230349
1608.55,0.179140,341154,225845
1612.54,0.176563,330877,220345
1615.53,0.174425,322904,216097
1618.51,0.172901,315116,211626
1621.49,0.173371,307217,206098
1624.47,0.171050,299481,201985
1627.44,0.169905,292112,197535
1630.41,0.167859,284245,193123
1634.36,0.166604,274079,186755
1637.32,0.165366,266916,182393
1640.27,0.164948,259612,177573
1643.22,0.164261,251804,172505
1646.16,0.162824,244348,167952
1649.1,0.162669,236703,162755
1652.04,0.162131,228171,157083
1655.95,0.157753,215408,149799
1658.88,0.156378,204937,142969
1661.8,0.152408,193395,136156
1664.72,0.146819,179728,128173
1667.63,0.136887,163642,119401
1670.54,0.125414,146312,109614
1673.44,0.113629,128451,98880
1677.31,0.101961,105080,83092
1680.21,0.093533,88906,71680
1683.1,0.092873,75033,60587
1685.99,0.093971,63520,51161
1688.87,0.099985,53714,42668
1691.75,0.109388,45653,35488
1694.62,0.112955,39137,30174
1697.49,0.117106,33776,25793
1701.31,0.120710,28175,21338