Folder: textile_sorting_NIRSCAN_/samples/wool/wool-000811 (part 150)

File: Column 1_050614_20150331_123008.csv
Method:,Column 1,,
Host Date-Time:,31/3/15 @ 12:30:8,,
Header Version:,1,,
System Temp (C):,34.09,,
Detector Temp (C):,34.97,,
Humidity (%):,1.66,,
Lamp PD:,3818,,
Shift Vector Coefficients:,-10.5391,0.0761263,-0.000134223,,
Pixel to Wavelength Coefficients:,1775.68,-0.916766,-0.000235065,,
Serial Number:,5510004,,
Scan Config Name:,Column 1,,
Scan Config Type:,Slew,,
Section 1,,
Start wavelength (nm):,900,,
End wavelength (nm):,1700,,
Pattern Pixel Width (nm):,   7.03,,,,
Exposure (ms):,  0.635,,,,
Digital Resolution:,228,,
Num Repeats:,6,,
PGA Gain:,64,,
Total Measurement Time in sec:,  2.674,,
Wavelength (nm),Absorbance (AU),Reference Signal (unitless),Sample Signal (unitless)
901.51,0.069435,108485,92456
905.376,0.074015,121306,102298
909.237,0.078527,131909,110090
913.095,0.079490,143299,119331
916.948,0.077691,156982,131268
922.079,0.080026,179937,149656
925.923,0.081583,200504,166165
929.762,0.081756,222660,184453
933.597,0.082426,244426,202172
937.427,0.081187,263972,218963
941.254,0.080086,281845,234382
945.076,0.078717,297271,247991
950.165,0.077098,315605,264269
953.978,0.077066,328029,274692
957.786,0.078183,340470,284378
961.59,0.077562,352317,294694
965.389,0.077459,363056,303749
969.185,0.077377,373162,312263
972.976,0.077783,382632,319888
976.763,0.077916,391202,326953
981.806,0.079044,400190,333597
985.583,0.078622,406088,338843
989.355,0.079565,410162,341500
993.124,0.079696,412868,343649
996.888,0.080604,414263,344090
1000.65,0.081822,415476,344131
1004.4,0.082787,415479,343370
1009.41,0.083557,414358,341837
1013.15,0.084031,412923,340281
1016.89,0.084851,411526,338490
1020.63,0.084111,409066,337041
1024.36,0.084400,406777,334932
1028.09,0.083841,404427,333426
1031.82,0.083923,401911,331289
1036.78,0.084198,398410,328195
1040.49,0.083771,396204,326699
1044.2,0.083746,394236,325095
1047.91,0.082853,392042,323951
1051.61,0.083191,389823,321867
1055.31,0.082720,388234,320903
1059,0.081878,387599,321000
1063.92,0.081438,386688,320570
1067.61,0.081329,386598,320576
1071.29,0.080080,387377,322147
1074.96,0.079034,388536,323890
1078.63,0.079179,389855,324881
1082.3,0.078270,391215,326697
1085.96,0.077368,393215,329050
1090.84,0.076620,396270,332178
1094.49,0.076280,398760,334527
1098.14,0.074710,400987,337614
1101.79,0.075158,403477,339360
1105.43,0.075011,406116,341695
1109.06,0.074080,407701,343765
1112.7,0.073202,409859,346284
1117.53,0.073303,412494,348429
1121.15,0.073851,414909,350027
1124.77,0.073966,416559,351326
1128.38,0.074381,418532,352653
1131.99,0.075465,419956,352971
1135.6,0.077758,421946,352776
1139.2,0.078452,423881,353828
1143.99,0.080553,426786,354533
1147.58,0.080933,428617,355743
1151.17,0.082316,431169,356723
1154.75,0.083236,433579,357958
1158.33,0.084124,436264,359439
1161.91,0.086255,439132,360031
1165.48,0.088448,442389,360875
1169.04,0.090878,446101,361872
1173.79,0.094007,451929,363968
1177.34,0.096175,456026,365439
1180.9,0.098291,461306,367873
1184.44,0.099855,467657,371597
1187.99,0.101034,473969,375592
1191.52,0.100885,479856,380387
1195.06,0.100599,487372,386600
1199.76,0.100313,497347,394772
1203.29,0.099352,504311,401187
1206.81,0.099000,511507,407241
1210.33,0.098170,519078,414059
1213.84,0.097921,527163,420750
1217.35,0.097034,534208,427244
1220.85,0.096531,540472,432755
1225.51,0.095575,549929,441298
1229.01,0.095232,556888,447235
1232.5,0.094414,562180,452336
1235.98,0.094306,567975,457113
1239.46,0.092837,574815,464185
1242.94,0.092070,582782,471450
1246.41,0.091640,591476,478958
1251.03,0.091376,604016,489410
1254.5,0.091773,612289,495659
1257.96,0.092304,619125,500581
1261.41,0.092460,624551,504787
1264.86,0.093174,629900,508274
1268.31,0.093533,634345,511437
1271.75,0.094651,638574,513523
1276.33,0.094112,642499,517321
1279.76,0.094306,645905,519832
1283.19,0.093638,648307,522568
1286.61,0.093747,650446,524161
1290.03,0.093229,652132,526146
1293.44,0.092561,653907,528390
1296.85,0.092585,655963,530022
1301.39,0.091991,657349,531869
1304.8,0.091978,657558,532054
1308.19,0.091887,658515,532941
1311.58,0.091952,658804,533094
1314.97,0.092921,659011,532074
1318.36,0.093062,658272,531304
1321.73,0.093242,658022,530883
1326.23,0.094332,657870,529429
1329.6,0.094933,656482,527582
1332.97,0.095743,654926,525351
1336.33,0.096812,653727,523100
1339.69,0.098052,652497,520627
1343.04,0.099467,649913,516878
1346.39,0.101267,647671,512965
1349.73,0.103262,645338,508774
1354.18,0.106172,641175,502117
1357.52,0.108023,638376,497798
1360.85,0.110497,635805,492977
1364.17,0.112356,633413,489025
1367.49,0.114935,631026,484298
1370.81,0.116738,628050,480017
1374.12,0.118601,625034,475667
1378.54,0.121280,620272,469140
1381.84,0.124317,616892,463332
1385.14,0.127623,613613,457374
1388.43,0.131346,611526,451928
1391.72,0.134707,610663,447811
1395.01,0.138773,610634,443617
1398.29,0.143090,611700,439996
1402.66,0.149029,614051,435688
1405.93,0.154362,616268,431924
1409.2,0.158776,617795,428616
1412.46,0.163032,618872,425176
1415.72,0.166889,619795,422045
1418.98,0.170337,620495,419181
1422.23,0.173816,621087,416233
1426.56,0.176919,621375,413461
1429.8,0.179535,621616,411138
1433.04,0.182260,622129,408903
1436.27,0.183966,621526,406905
1439.5,0.186396,621113,404366
1442.72,0.188957,620921,401864
1445.94,0.191151,620270,399420
1450.23,0.194743,618860,395230
1453.44,0.197764,617697,391752
1456.64,0.200827,616264,388097
1459.85,0.203198,614413,384824
1463.04,0.206627,612307,380489
1466.24,0.209753,610032,376357
1469.43,0.213984,607345,371066
1473.67,0.219953,603789,363858
1476.85,0.225854,601175,357394
1480.02,0.231605,597737,350675
1483.19,0.238178,594479,343525
1486.36,0.243685,591232,337344
1489.52,0.249081,587853,331274
1492.68,0.252721,583875,326286
1496.89,0.254369,578062,321814
1500.03,0.255013,574159,319168
1503.18,0.254800,570285,317170
1506.32,0.254650,565444,314586
1509.45,0.252857,560571,313165
1512.58,0.251087,555821,311780
1515.71,0.249079,550344,310138
1519.87,0.245637,543983,308993
1522.99,0.243556,538764,307498
1526.1,0.241276,533692,306207
1529.21,0.238839,527902,304589
1532.32,0.235147,521886,303689
1535.42,0.232472,515888,302053
1538.51,0.229827,509987,300422
1541.6,0.226289,503936,299286
1545.72,0.222794,494694,296171
1548.8,0.219758,488378,294441
1551.88,0.217177,481832,292226
1554.95,0.215093,474989,289461
1558.02,0.213545,467818,286109
1561.08,0.212440,460730,282492
1564.15,0.212150,454170,278656
1568.22,0.210709,444181,273433
1571.27,0.210426,436947,269155
1574.32,0.209173,429598,265393
1577.36,0.207803,422039,261547
1580.4,0.207188,414375,257161
1583.43,0.206181,406354,252769
1586.46,0.204603,398475,248770
1590.49,0.201750,388982,244444
1593.51,0.200690,380708,239829
1596.53,0.198289,372727,236103
1599.54,0.197078,365060,231892
1602.55,0.194710,357543,228359
1605.55,0.191573,349495,224837
1608.55,0.191294,341154,219612
1612.54,0.188906,330877,214171
1615.53,0.186974,322904,209942
1618.51,0.185986,315116,205345
1621.49,0.185892,307217,200241
1624.47,0.185003,299481,195599
1627.44,0.184071,292112,191196
1630.41,0.182183,284245,186857
1634.36,0.180507,274079,180871
1637.32,0.179755,266916,176449
1640.27,0.179221,259612,171832
1643.22,0.177995,251804,167135
1646.16,0.177950,244348,162203
1649.1,0.177439,236703,157313
1652.04,0.175740,228171,152237
1655.95,0.172811,215408,144694
1658.88,0.169231,204937,138800
1661.8,0.163781,193395,132637
1664.72,0.155346,179728,125681
1667.63,0.142993,163642,117734
1670.54,0.128049,146312,108951
1673.44,0.112572,128451,99121
1677.31,0.093355,105080,84755
1680.21,0.079999,88906,73949
1683.1,0.072130,75033,63551
1685.99,0.073049,63520,53686
1688.87,0.076065,53714,45084
1691.75,0.086574,45653,37402
1694.62,0.090488,39137,31776
1697.49,0.090874,33776,27399
1701.31,0.103687,28175,22191

File: Column 1_050614_20150331_123011.csv
Method:,Column 1,,
Host Date-Time:,31/3/15 @ 12:30:11,,
Header Version:,1,,
System Temp (C):,34.08,,
Detector Temp (C):,34.97,,
Humidity (%):,1.66,,
Lamp PD:,3818,,
Shift Vector Coefficients:,-10.5391,0.0761263,-0.000134223,,
Pixel to Wavelength Coefficients:,1775.68,-0.916766,-0.000235065,,
Serial Number:,5510004,,
Scan Config Name:,Column 1,,
Scan Config Type:,Slew,,
Section 1,,
Start wavelength (nm):,900,,
End wavelength (nm):,1700,,
Pattern Pixel Width (nm):,   7.03,,,,
Exposure (ms):,  0.635,,,,
Digital Resolution:,228,,
Num Repeats:,6,,
PGA Gain:,64,,
Total Measurement Time in sec:,  2.673,,
Wavelength (nm),Absorbance (AU),Reference Signal (unitless),Sample Signal (unitless)
901.51,0.068477,108485,92660
905.376,0.073044,121306,102527
909.237,0.076009,131909,110730
913.095,0.076490,143299,120158
916.948,0.078602,156982,130993
922.079,0.079725,179937,149760
925.923,0.081231,200504,166300
929.762,0.081832,222660,184421
933.597,0.081740,244426,202492
937.427,0.079783,263972,219672
941.254,0.080277,281845,234279
945.076,0.078200,297271,248286
950.165,0.078385,315605,263487
953.978,0.077329,328029,274526
957.786,0.077016,340470,285143
961.59,0.077478,352317,294751
965.389,0.077529,363056,303700
969.185,0.077238,373162,312363
972.976,0.077656,382632,319982
976.763,0.078407,391202,326583
981.806,0.078647,400190,333902
985.583,0.079414,406088,338225
989.355,0.079135,410162,341838
993.124,0.079906,412868,343483
996.888,0.080593,414263,344099
1000.65,0.080999,415476,344784
1004.4,0.082535,415479,343569
1009.41,0.083925,414358,341547
1013.15,0.084088,412923,340237
1016.89,0.084687,411526,338618
1020.63,0.083843,409066,337249
1024.36,0.084247,406777,335050
1028.09,0.084615,404427,332832
1031.82,0.084083,401911,331167
1036.78,0.083741,398410,328541
1040.49,0.083819,396204,326663
1044.2,0.083624,394236,325186
1047.91,0.083268,392042,323642
1051.61,0.082954,389823,322043
1055.31,0.081757,388234,321615
1059,0.081722,387599,321115
1063.92,0.080657,386688,321147
1067.61,0.080341,386598,321306
1071.29,0.080196,387377,322061
1074.96,0.079830,388536,323297
1078.63,0.079002,389855,325013
1082.3,0.078211,391215,326742
1085.96,0.077587,393215,328884
1090.84,0.076497,396270,332272
1094.49,0.075872,398760,334842
1098.14,0.075671,400987,336868
1101.79,0.074543,403477,339841
1105.43,0.074930,406116,341759
1109.06,0.073889,407701,343916
1112.7,0.073718,409859,345873
1117.53,0.073195,412494,348516
1121.15,0.073443,414909,350356
1124.77,0.073428,416559,351762
1128.38,0.074583,418532,352489
1131.99,0.075740,419956,352747
1135.6,0.077167,421946,353256
1139.2,0.077973,423881,354218
1143.99,0.080796,426786,354335
1147.58,0.081524,428617,355259
1151.17,0.082011,431169,356974
1154.75,0.082881,433579,358251
1158.33,0.084210,436264,359368
1161.91,0.085971,439132,360267
1165.48,0.087977,442389,361266
1169.04,0.090168,446101,362464
1173.79,0.093498,451929,364395
1177.34,0.095157,456026,366296
1180.9,0.097605,461306,368455
1184.44,0.099797,467657,371647
1187.99,0.100508,473969,376047
1191.52,0.100245,479856,380948
1195.06,0.100694,487372,386515
1199.76,0.099606,497347,395415
1203.29,0.098986,504311,401525
1206.81,0.098791,511507,407437
1210.33,0.098304,519078,413932
1213.84,0.097662,527163,421001
1217.35,0.097510,534208,426776
1220.85,0.096233,540472,433052
1225.51,0.095205,549929,441674
1229.01,0.095005,556888,447469
1232.5,0.094420,562180,452330
1235.98,0.093948,567975,457490
1239.46,0.093159,574815,463841
1242.94,0.091640,582782,471918
1246.41,0.091409,591476,479212
1251.03,0.091536,604016,489229
1254.5,0.091506,612289,495964
1257.96,0.091651,619125,501334
1261.41,0.092127,624551,505174
1264.86,0.093033,629900,508439
1268.31,0.093420,634345,511570
1271.75,0.094040,638574,514246
1276.33,0.094250,642499,517157
1279.76,0.094142,645905,520028
1283.19,0.093189,648307,523109
1286.61,0.093380,650446,524604
1290.03,0.092947,652132,526488
1293.44,0.092548,653907,528406
1296.85,0.092196,655963,530497
1301.39,0.091833,657349,532063
1304.8,0.092047,657558,531970
1308.19,0.091893,658515,532933
1311.58,0.091787,658804,533297
1314.97,0.092592,659011,532477
1318.36,0.092939,658272,531455
1321.73,0.093231,658022,530896
1326.23,0.094177,657870,529619
1329.6,0.094962,656482,527546
1332.97,0.095619,654926,525501
1336.33,0.096403,653727,523593
1339.69,0.098096,652497,520574
1343.04,0.100017,649913,516224
1346.39,0.101494,647671,512697
1349.73,0.103390,645338,508624
1354.18,0.106000,641175,502315
1357.52,0.108213,638376,497581
1360.85,0.110232,635805,493278
1364.17,0.111851,633413,489594
1367.49,0.114734,631026,484522
1370.81,0.116642,628050,480123
1374.12,0.118806,625034,475442
1378.54,0.121307,620272,469111
1381.84,0.124098,616892,463565
1385.14,0.127489,613613,457515
1388.43,0.131053,611526,452233
1391.72,0.134802,610663,447713
1395.01,0.138348,610634,444051
1398.29,0.142974,611700,440113
1402.66,0.149201,614051,435515
1405.93,0.153828,616268,432456
1409.2,0.158585,617795,428805
1412.46,0.162807,618872,425396
1415.72,0.166874,619795,422060
1418.98,0.170412,620495,419108
1422.23,0.173319,621087,416710
1426.56,0.177204,621375,413190
1429.8,0.179744,621616,410940
1433.04,0.181765,622129,409369
1436.27,0.184294,621526,406598
1439.5,0.185963,621113,404769
1442.72,0.188834,620921,401978
1445.94,0.190901,620270,399650
1450.23,0.195071,618860,394931
1453.44,0.197898,617697,391631
1456.64,0.200052,616264,388790
1459.85,0.203669,614413,384407
1463.04,0.206608,612307,380506
1466.24,0.209163,610032,376868
1469.43,0.213395,607345,371570
1473.67,0.219530,603789,364213
1476.85,0.224891,601175,358187
1480.02,0.231392,597737,350847
1483.19,0.238176,594479,343527
1486.36,0.243955,591232,337134
1489.52,0.248703,587853,331563
1492.68,0.252002,583875,326827
1496.89,0.254241,578062,321909
1500.03,0.254599,574159,319472
1503.18,0.255300,570285,316805
1506.32,0.254206,565444,314908
1509.45,0.252160,560571,313668
1512.58,0.250766,555821,312010
1515.71,0.248678,550344,310425
1519.87,0.245814,543983,308867
1522.99,0.242569,538764,308198
1526.1,0.241193,533692,306265
1529.21,0.238003,527902,305176
1532.32,0.234948,521886,303828
1535.42,0.232313,515888,302164
1538.51,0.229180,509987,300870
1541.6,0.226314,503936,299269
1545.72,0.223512,494694,295682
1548.8,0.218778,488378,295106
1551.88,0.216857,481832,292441
1554.95,0.215143,474989,289428
1558.02,0.213735,467818,285984
1561.08,0.212336,460730,282560
1564.15,0.211691,454170,278951
1568.22,0.210572,444181,273519
1571.27,0.211569,436947,268448
1574.32,0.209463,429598,265216
1577.36,0.207843,422039,261523
1580.4,0.207635,414375,256897
1583.43,0.205861,406354,252955
1586.46,0.204209,398475,248996
1590.49,0.202606,388982,243963
1593.51,0.200971,380708,239674
1596.53,0.198306,372727,236094
1599.54,0.196453,365060,232226
1602.55,0.194497,357543,228471
1605.55,0.192405,349495,224407
1608.55,0.190796,341154,219864
1612.54,0.188533,330877,214355
1615.53,0.187376,322904,209748
1618.51,0.186691,315116,205012
1621.49,0.185203,307217,200559
1624.47,0.183945,299481,196076
1627.44,0.182171,292112,192034
1630.41,0.182630,284245,186665
1634.36,0.181038,274079,180650
1637.32,0.178966,266916,176770
1640.27,0.179620,259612,171674
1643.22,0.177255,251804,167420
1646.16,0.176982,244348,162565
1649.1,0.176807,236703,157542
1652.04,0.174410,228171,152704
1655.95,0.172871,215408,144674
1658.88,0.168203,204937,139129
1661.8,0.162995,193395,132877
1664.72,0.155080,179728,125758
1667.63,0.142274,163642,117929
1670.54,0.127197,146312,109165
1673.44,0.111107,128451,99456
1677.31,0.090408,105080,85332
1680.21,0.077656,88906,74349
1683.1,0.073300,75033,63380
1685.99,0.072888,63520,53706
1688.87,0.078955,53714,44785
1691.75,0.081094,45653,37877
1694.62,0.082955,39137,32332
1697.49,0.091921,33776,27333
1701.31,0.098512,28175,22457

File: Column 1_050614_20150331_123014.csv
Method:,Column 1,,
Host Date-Time:,31/3/15 @ 12:30:14,,
Header Version:,1,,
System Temp (C):,34.09,,
Detector Temp (C):,34.97,,
Humidity (%):,1.66,,
Lamp PD:,3818,,
Shift Vector Coefficients:,-10.5391,0.0761263,-0.000134223,,
Pixel to Wavelength Coefficients:,1775.68,-0.916766,-0.000235065,,
Serial Number:,5510004,,
Scan Config Name:,Column 1,,
Scan Config Type:,Slew,,
Section 1,,
Start wavelength (nm):,900,,
End wavelength (nm):,1700,,
Pattern Pixel Width (nm):,   7.03,,,,
Exposure (ms):,  0.635,,,,
Digital Resolution:,228,,
Num Repeats:,6,,
PGA Gain:,64,,
Total Measurement Time in sec:,  2.733,,
Wavelength (nm),Absorbance (AU),Reference Signal (unitless),Sample Signal (unitless)
901.51,0.068332,108485,92691
905.376,0.074810,121306,102111
909.237,0.076653,131909,110566
913.095,0.077438,143299,119896
916.948,0.079923,156982,130595
922.079,0.081197,179937,149253
925.923,0.081505,200504,166195
929.762,0.082548,222660,184117
933.597,0.081564,244426,202574
937.427,0.080367,263972,219377
941.254,0.079569,281845,234661
945.076,0.078895,297271,247889
950.165,0.078292,315605,263543
953.978,0.077367,328029,274502
957.786,0.077091,340470,285094
961.59,0.077580,352317,294682
965.389,0.077316,363056,303849
969.185,0.077171,373162,312411
972.976,0.077512,382632,320088
976.763,0.078697,391202,326365
981.806,0.078656,400190,333895
985.583,0.079273,406088,338335
989.355,0.079490,410162,341559
993.124,0.080026,412868,343388
996.888,0.080679,414263,344031
1000.65,0.081156,415476,344659
1004.4,0.082634,415479,343491
1009.41,0.083929,414358,341544
1013.15,0.084223,412923,340131
1016.89,0.084932,411526,338427
1020.63,0.085043,409066,336318
1024.36,0.084251,406777,335047
1028.09,0.084365,404427,333024
1031.82,0.084432,401911,330901
1036.78,0.083856,398410,328454
1040.49,0.083335,396204,327027
1044.2,0.083767,394236,325079
1047.91,0.083327,392042,323598
1051.61,0.083117,389823,321922
1055.31,0.082850,388234,320807
1059,0.081648,387599,321170
1063.92,0.081877,386688,320246
1067.61,0.080366,386598,321287
1071.29,0.080202,387377,322056
1074.96,0.080002,388536,323169
1078.63,0.079230,389855,324843
1082.3,0.078447,391215,326564
1085.96,0.077523,393215,328933
1090.84,0.076422,396270,332330
1094.49,0.076056,398760,334700
1098.14,0.075858,400987,336723
1101.79,0.074953,403477,339520
1105.43,0.075173,406116,341568
1109.06,0.073660,407701,344098
1112.7,0.073537,409859,346017
1117.53,0.072907,412494,348747
1121.15,0.073645,414909,350193
1124.77,0.073741,416559,351508
1128.38,0.074483,418532,352570
1131.99,0.076043,419956,352501
1135.6,0.076908,421946,353467
1139.2,0.078582,423881,353722
1143.99,0.080993,426786,354174
1147.58,0.081442,428617,355326
1151.17,0.082200,431169,356819
1154.75,0.082975,433579,358173
1158.33,0.084177,436264,359395
1161.91,0.086299,439132,359995
1165.48,0.088602,442389,360747
1169.04,0.090602,446101,362102
1173.79,0.094045,451929,363936
1177.34,0.095662,456026,365871
1180.9,0.097883,461306,368219
1184.44,0.100114,467657,371376
1187.99,0.100784,473969,375808
1191.52,0.100906,479856,380369
1195.06,0.100837,487372,386388
1199.76,0.100683,497347,394436
1203.29,0.099633,504311,400927
1206.81,0.098819,511507,407411
1210.33,0.098300,519078,413935
1213.84,0.098154,527163,420524
1217.35,0.097406,534208,426879
1220.85,0.096208,540472,433077
1225.51,0.095401,549929,441475
1229.01,0.095035,556888,447438
1232.5,0.094787,562180,451948
1235.98,0.094586,567975,456818
1239.46,0.093216,574815,463780
1242.94,0.091539,582782,472027
1246.41,0.091784,591476,478799
1251.03,0.091994,604016,488714
1254.5,0.091313,612289,496185
1257.96,0.092152,619125,500756
1261.41,0.092679,624551,504532
1264.86,0.092955,629900,508530
1268.31,0.093357,634345,511645
1271.75,0.093762,638574,514576
1276.33,0.094513,642499,516844
1279.76,0.094230,645905,519923
1283.19,0.093817,648307,522352
1286.61,0.093303,650446,524697
1290.03,0.092952,652132,526482
1293.44,0.092659,653907,528271
1296.85,0.092367,655963,530289
1301.39,0.091990,657349,531871
1304.8,0.091808,657558,532263
1308.19,0.092056,658515,532733
1311.58,0.092389,658804,532558
1314.97,0.092584,659011,532486
1318.36,0.092905,658272,531496
1321.73,0.093287,658022,530827
1326.23,0.093813,657870,530062
1329.6,0.094656,656482,527919
1332.97,0.095748,654926,525344
1336.33,0.096344,653727,523664
1339.69,0.098397,652497,520213
1343.04,0.099925,649913,516333
1346.39,0.101008,647671,513271
1349.73,0.103253,645338,508785
1354.18,0.106340,641175,501922
1357.52,0.108271,638376,497514
1360.85,0.110288,635805,493215
1364.17,0.112322,633413,489063
1367.49,0.114595,631026,484677
1370.81,0.116615,628050,480152
1374.12,0.118319,625034,475976
1378.54,0.121464,620272,468941
1381.84,0.123944,616892,463730
1385.14,0.127496,613613,457508
1388.43,0.130882,611526,452411
1391.72,0.134793,610663,447722
1395.01,0.138561,610634,443833
1398.29,0.143586,611700,439494
1402.66,0.149210,614051,435506
1405.93,0.153963,616268,432321
1409.2,0.158575,617795,428814
1412.46,0.162783,618872,425420
1415.72,0.166950,619795,421986
1418.98,0.170499,620495,419024
1422.23,0.173371,621087,416660
1426.56,0.177007,621375,413377
1429.8,0.179663,621616,411016
1433.04,0.182157,622129,409000
1436.27,0.184539,621526,406369
1439.5,0.186175,621113,404572
1442.72,0.188757,620921,402049
1445.94,0.190778,620270,399763
1450.23,0.195035,618860,394964
1453.44,0.197126,617697,392328
1456.64,0.200285,616264,388581
1459.85,0.203255,614413,384774
1463.04,0.205582,612307,381406
1466.24,0.209156,610032,376874
1469.43,0.213401,607345,371565
1473.67,0.219760,603789,364020
1476.85,0.225304,601175,357847
1480.02,0.231675,597737,350619
1483.19,0.238257,594479,343463
1486.36,0.244297,591232,336869
1489.52,0.249143,587853,331227
1492.68,0.252687,583875,326312
1496.89,0.254499,578062,321718
1500.03,0.254886,574159,319261
1503.18,0.255255,570285,316838
1506.32,0.254388,565444,314776
1509.45,0.252959,560571,313092
1512.58,0.251173,555821,311718
1515.71,0.248833,550344,310314
1519.87,0.245995,543983,308738
1522.99,0.243823,538764,307309
1526.1,0.240737,533692,306587
1529.21,0.237836,527902,305293
1532.32,0.234762,521886,303958
1535.42,0.232556,515888,301995
1538.51,0.229309,509987,300781
1541.6,0.226534,503936,299117
1545.72,0.222694,494694,296239
1548.8,0.219944,488378,294315
1551.88,0.217889,481832,291747
1554.95,0.215380,474989,289270
1558.02,0.213644,467818,286044
1561.08,0.212351,460730,282550
1564.15,0.211938,454170,278792
1568.22,0.210403,444181,273626
1571.27,0.210205,436947,269292
1574.32,0.209535,429598,265172
1577.36,0.208644,422039,261041
1580.4,0.207153,414375,257182
1583.43,0.206033,406354,252855
1586.46,0.203585,398475,249354
1590.49,0.202867,388982,243816
1593.51,0.200806,380708,239765
1596.53,0.199046,372727,235692
1599.54,0.196590,365060,232153
1602.55,0.194760,357543,228333
1605.55,0.192345,349495,224438
1608.55,0.190581,341154,219973
1612.54,0.189040,330877,214105
1615.53,0.186658,322904,210095
1618.51,0.186736,315116,204991
1621.49,0.186189,307217,200104
1624.47,0.183974,299481,196063
1627.44,0.183896,292112,191273
1630.41,0.182791,284245,186596
1634.36,0.180536,274079,180859
1637.32,0.180243,266916,176251
1640.27,0.180129,259612,171473
1643.22,0.179283,251804,166640
1646.16,0.177894,244348,162224
1649.1,0.176730,236703,157570
1652.04,0.174692,228171,152605
1655.95,0.172757,215408,144712
1658.88,0.167358,204937,139400
1661.8,0.163512,193395,132719
1664.72,0.156128,179728,125455
1667.63,0.142322,163642,117916
1670.54,0.128887,146312,108741
1673.44,0.113041,128451,99014
1677.31,0.091601,105080,85098
1680.21,0.080463,88906,73870
1683.1,0.073218,75033,63392
1685.99,0.076151,63520,53304
1688.87,0.076267,53714,45063
1691.75,0.081403,45653,37850
1694.62,0.081052,39137,32474
1697.49,0.086317,33776,27688
1701.31,0.109678,28175,21887