Folder: textile_sorting_NIRSCAN_/samples/wool/wool-000811 (part 99)

File: Column 1_050585_20150331_121631.csv
Method:,Column 1,,
Host Date-Time:,31/3/15 @ 12:16:31,,
Header Version:,1,,
System Temp (C):,33.82,,
Detector Temp (C):,34.54,,
Humidity (%):,1.86,,
Lamp PD:,3819,,
Shift Vector Coefficients:,-10.5391,0.0761263,-0.000134223,,
Pixel to Wavelength Coefficients:,1775.68,-0.916766,-0.000235065,,
Serial Number:,5510004,,
Scan Config Name:,Column 1,,
Scan Config Type:,Slew,,
Section 1,,
Start wavelength (nm):,900,,
End wavelength (nm):,1700,,
Pattern Pixel Width (nm):,   7.03,,,,
Exposure (ms):,  0.635,,,,
Digital Resolution:,228,,
Num Repeats:,6,,
PGA Gain:,64,,
Total Measurement Time in sec:,  2.672,,
Wavelength (nm),Absorbance (AU),Reference Signal (unitless),Sample Signal (unitless)
901.51,0.070856,108485,92154
905.376,0.076664,121306,101676
909.237,0.076818,131909,110524
913.095,0.080448,143299,119068
916.948,0.080912,156982,130298
922.079,0.081037,179937,149308
925.923,0.083215,200504,165542
929.762,0.083294,222660,183801
933.597,0.083788,244426,201539
937.427,0.083263,263972,217919
941.254,0.081649,281845,233540
945.076,0.080943,297271,246723
950.165,0.080505,315605,262204
953.978,0.080026,328029,272826
957.786,0.079582,340470,283463
961.59,0.080214,352317,292900
965.389,0.079870,363056,302067
969.185,0.079709,373162,310591
972.976,0.080241,382632,318083
976.763,0.080482,391202,325027
981.806,0.080863,400190,332203
985.583,0.082114,406088,336129
989.355,0.081796,410162,339750
993.124,0.082354,412868,341552
996.888,0.083331,414263,341936
1000.65,0.083542,415476,342771
1004.4,0.084881,415479,341718
1009.41,0.086602,414358,339448
1013.15,0.086729,412923,338174
1016.89,0.087155,411526,336699
1020.63,0.086658,409066,335070
1024.36,0.086973,406777,332953
1028.09,0.086443,404427,331434
1031.82,0.086590,401911,329261
1036.78,0.086390,398410,326543
1040.49,0.086528,396204,324632
1044.2,0.086214,394236,323253
1047.91,0.085942,392042,321655
1051.61,0.085182,389823,320395
1055.31,0.085144,388234,319117
1059,0.084610,387599,318987
1063.92,0.083867,386688,318782
1067.61,0.083401,386598,319050
1071.29,0.083065,387377,319940
1074.96,0.082821,388536,321078
1078.63,0.082009,389855,322771
1082.3,0.080921,391215,324709
1085.96,0.080060,393215,327017
1090.84,0.079123,396270,330269
1094.49,0.078712,398760,332659
1098.14,0.078371,400987,334780
1101.79,0.078635,403477,336654
1105.43,0.077854,406116,339466
1109.06,0.076867,407701,341566
1112.7,0.076537,409859,343635
1117.53,0.076476,412494,345893
1121.15,0.076722,414909,347721
1124.77,0.076699,416559,349122
1128.38,0.078202,418532,349564
1131.99,0.078810,419956,350263
1135.6,0.080610,421946,350467
1139.2,0.081793,423881,351116
1143.99,0.083818,426786,351878
1147.58,0.084490,428617,352841
1151.17,0.086139,431169,353597
1154.75,0.086391,433579,355367
1158.33,0.088523,436264,355817
1161.91,0.090028,439132,356917
1165.48,0.092039,442389,357903
1169.04,0.094463,446101,358897
1173.79,0.097663,451929,360917
1177.34,0.099745,456026,362447
1180.9,0.101941,461306,364794
1184.44,0.103092,467657,368838
1187.99,0.104620,473969,372503
1191.52,0.104070,479856,377608
1195.06,0.104074,487372,383519
1199.76,0.103811,497347,391605
1203.29,0.102511,504311,398279
1206.81,0.102566,511507,403911
1210.33,0.101935,519078,410485
1213.84,0.100859,527163,417913
1217.35,0.100600,534208,423751
1220.85,0.099995,540472,429317
1225.51,0.099360,549929,437468
1229.01,0.098358,556888,444027
1232.5,0.098005,562180,448611
1235.98,0.098028,567975,453212
1239.46,0.096970,574815,459789
1242.94,0.096173,582782,467018
1246.41,0.095279,591476,474961
1251.03,0.094864,604016,485495
1254.5,0.095118,612289,491857
1257.96,0.095801,619125,496566
1261.41,0.095928,624551,500772
1264.86,0.096469,629900,504432
1268.31,0.097001,634345,507370
1271.75,0.097782,638574,509835
1276.33,0.097632,642499,513145
1279.76,0.097776,645905,515695
1283.19,0.097437,648307,518017
1286.61,0.096389,650446,520982
1290.03,0.096591,652132,522089
1293.44,0.096210,653907,523970
1296.85,0.096242,655963,525578
1301.39,0.095819,657349,527202
1304.8,0.095774,657558,527424
1308.19,0.096079,658515,527821
1311.58,0.095830,658804,528355
1314.97,0.096288,659011,527964
1318.36,0.097426,658272,525992
1321.73,0.097726,658022,525430
1326.23,0.098427,657870,524461
1329.6,0.099394,656482,522190
1332.97,0.100034,654926,520185
1336.33,0.101275,653727,517751
1339.69,0.103305,652497,514368
1343.04,0.104893,649913,510461
1346.39,0.106760,647671,506517
1349.73,0.108511,645338,502662
1354.18,0.111536,641175,495953
1357.52,0.114136,638376,490841
1360.85,0.115873,635805,486912
1364.17,0.117813,633413,482919
1367.49,0.119954,631026,478733
1370.81,0.122329,628050,473877
1374.12,0.123992,625034,469798
1378.54,0.127131,620272,462862
1381.84,0.130209,616892,457088
1385.14,0.134194,613613,450506
1388.43,0.138644,611526,444397
1391.72,0.142698,610663,439646
1395.01,0.147514,610634,434777
1398.29,0.152668,611700,430398
1402.66,0.159704,614051,425109
1405.93,0.165315,616268,421167
1409.2,0.170974,617795,416745
1412.46,0.175215,618872,413415
1415.72,0.179893,619795,409595
1418.98,0.184260,620495,405955
1422.23,0.187984,621087,402873
1426.56,0.191848,621375,399490
1429.8,0.194170,621616,397514
1433.04,0.197022,622129,395238
1436.27,0.199676,621526,392449
1439.5,0.201590,621113,390464
1442.72,0.203580,620921,388558
1445.94,0.205813,620270,386160
1450.23,0.208933,618860,382525
1453.44,0.211862,617697,379239
1456.64,0.214935,616264,375692
1459.85,0.217024,614413,372766
1463.04,0.220220,612307,368765
1466.24,0.222960,610032,365084
1469.43,0.226535,607345,360496
1473.67,0.231682,603789,354163
1476.85,0.236055,601175,349097
1480.02,0.241853,597737,342497
1483.19,0.247370,594479,336331
1486.36,0.252977,591232,330203
1489.52,0.257556,587853,324872
1492.68,0.259919,583875,320923
1496.89,0.262381,578062,315932
1500.03,0.262448,574159,313750
1503.18,0.263142,570285,311136
1506.32,0.261218,565444,309864
1509.45,0.260098,560571,307987
1512.58,0.259066,555821,306104
1515.71,0.256762,550344,304700
1519.87,0.253850,543983,303204
1522.99,0.251350,538764,302029
1526.1,0.249133,533692,300717
1529.21,0.246068,527902,299561
1532.32,0.242685,521886,298463
1535.42,0.239999,515888,296863
1538.51,0.237337,509987,295272
1541.6,0.235253,503936,293172
1545.72,0.230771,494694,290781
1548.8,0.227741,488378,289078
1551.88,0.225842,481832,286453
1554.95,0.224085,474989,283530
1558.02,0.221957,467818,280621
1561.08,0.220290,460730,277432
1564.15,0.220015,454170,273655
1568.22,0.219631,444181,267873
1571.27,0.218557,436947,264163
1574.32,0.216878,429598,260726
1577.36,0.216967,422039,256086
1580.4,0.214720,414375,252740
1583.43,0.213550,406354,248516
1586.46,0.211469,398475,244868
1590.49,0.209501,388982,240120
1593.51,0.207963,380708,235846
1596.53,0.205529,372727,232200
1599.54,0.204188,365060,228127
1602.55,0.202207,357543,224451
1605.55,0.199810,349495,220613
1608.55,0.197936,341154,216279
1612.54,0.196745,330877,210340
1615.53,0.194995,322904,206100
1618.51,0.193760,315116,201702
1621.49,0.193001,307217,196990
1624.47,0.191490,299481,192699
1627.44,0.190349,292112,188452
1630.41,0.189510,284245,183731
1634.36,0.188452,274079,177592
1637.32,0.187073,266916,173501
1640.27,0.186595,259612,168939
1643.22,0.185113,251804,164418
1646.16,0.183962,244348,159973
1649.1,0.183091,236703,155279
1652.04,0.181758,228171,150142
1655.95,0.179734,215408,142406
1658.88,0.175303,204937,136873
1661.8,0.169708,193395,130839
1664.72,0.162942,179728,123502
1667.63,0.150479,163642,115722
1670.54,0.136936,146312,106744
1673.44,0.122781,128451,96818
1677.31,0.102060,105080,83073
1680.21,0.089366,88906,72371
1683.1,0.086413,75033,61495
1685.99,0.085598,63520,52157
1688.87,0.095036,53714,43157
1691.75,0.100317,45653,36237
1694.62,0.101716,39137,30965
1697.49,0.101593,33776,26731
1701.31,0.114546,28175,21643

File: Column 1_050585_20150331_121636.csv
Method:,Column 1,,
Host Date-Time:,31/3/15 @ 12:16:36,,
Header Version:,1,,
System Temp (C):,33.76,,
Detector Temp (C):,34.57,,
Humidity (%):,1.86,,
Lamp PD:,3819,,
Shift Vector Coefficients:,-10.5391,0.0761263,-0.000134223,,
Pixel to Wavelength Coefficients:,1775.68,-0.916766,-0.000235065,,
Serial Number:,5510004,,
Scan Config Name:,Column 1,,
Scan Config Type:,Slew,,
Section 1,,
Start wavelength (nm):,900,,
End wavelength (nm):,1700,,
Pattern Pixel Width (nm):,   7.03,,,,
Exposure (ms):,  0.635,,,,
Digital Resolution:,228,,
Num Repeats:,6,,
PGA Gain:,64,,
Total Measurement Time in sec:,  2.732,,
Wavelength (nm),Absorbance (AU),Reference Signal (unitless),Sample Signal (unitless)
901.51,0.070074,108485,92320
905.376,0.074368,121306,102215
909.237,0.077774,131909,110281
913.095,0.078665,143299,119558
916.948,0.079089,156982,130846
922.079,0.081119,179937,149280
925.923,0.082397,200504,165854
929.762,0.082487,222660,184143
933.597,0.082280,244426,202240
937.427,0.081941,263972,218583
941.254,0.080796,281845,233999
945.076,0.080429,297271,247015
950.165,0.079429,315605,262854
953.978,0.078750,328029,273629
957.786,0.079500,340470,283517
961.59,0.079728,352317,293228
965.389,0.079515,363056,302314
969.185,0.079591,373162,310675
972.976,0.079897,382632,318335
976.763,0.080090,391202,325320
981.806,0.080195,400190,332714
985.583,0.081172,406088,336859
989.355,0.082287,410162,339366
993.124,0.082171,412868,341696
996.888,0.082633,414263,342486
1000.65,0.083442,415476,342850
1004.4,0.084886,415479,341714
1009.41,0.085842,414358,340043
1013.15,0.086608,412923,338268
1016.89,0.087428,411526,336488
1020.63,0.087126,409066,334709
1024.36,0.087099,406777,332857
1028.09,0.086482,404427,331404
1031.82,0.086417,401911,329392
1036.78,0.085830,398410,326964
1040.49,0.086132,396204,324928
1044.2,0.086230,394236,323241
1047.91,0.085683,392042,321847
1051.61,0.084824,389823,320659
1055.31,0.084672,388234,319464
1059,0.084501,387599,319067
1063.92,0.084127,386688,318591
1067.61,0.082884,386598,319430
1071.29,0.082774,387377,320155
1074.96,0.082068,388536,321635
1078.63,0.081581,389855,323089
1082.3,0.080611,391215,324941
1085.96,0.080240,393215,326881
1090.84,0.079179,396270,330227
1094.49,0.078313,398760,332965
1098.14,0.078272,400987,334856
1101.79,0.077548,403477,337498
1105.43,0.077043,406116,340100
1109.06,0.076396,407701,341937
1112.7,0.076353,409859,343781
1117.53,0.075751,412494,346471
1121.15,0.076676,414909,347758
1124.77,0.076727,416559,349100
1128.38,0.078077,418532,349665
1131.99,0.078237,419956,350725
1135.6,0.079785,421946,351133
1139.2,0.081398,423881,351436
1143.99,0.083624,426786,352035
1147.58,0.084766,428617,352617
1151.17,0.084987,431169,354536
1154.75,0.086318,433579,355427
1158.33,0.088171,436264,356105
1161.91,0.089764,439132,357134
1165.48,0.091498,442389,358349
1169.04,0.093824,446101,359426
1173.79,0.097140,451929,361352
1177.34,0.098904,456026,363150
1180.9,0.101311,461306,365324
1184.44,0.103257,467657,368698
1187.99,0.103545,473969,373426
1191.52,0.104874,479856,376909
1195.06,0.103838,487372,383727
1199.76,0.102997,497347,392340
1203.29,0.102489,504311,398299
1206.81,0.102011,511507,404427
1210.33,0.101793,519078,410620
1213.84,0.101135,527163,417648
1217.35,0.100642,534208,423710
1220.85,0.099962,540472,429350
1225.51,0.098770,549929,438063
1229.01,0.098487,556888,443896
1232.5,0.097919,562180,448700
1235.98,0.097183,567975,454095
1239.46,0.096514,574815,460272
1242.94,0.095252,582782,468009
1246.41,0.094777,591476,475511
1251.03,0.094808,604016,485557
1254.5,0.094478,612289,492582
1257.96,0.095559,619125,496843
1261.41,0.095550,624551,501208
1264.86,0.096059,629900,504908
1268.31,0.096676,634345,507750
1271.75,0.097375,638574,510313
1276.33,0.097553,642499,513239
1279.76,0.097619,645905,515881
1283.19,0.097135,648307,518377
1286.61,0.096956,650446,520302
1290.03,0.096492,652132,522208
1293.44,0.096219,653907,523959
1296.85,0.096027,655963,525838
1301.39,0.095584,657349,527487
1304.8,0.095512,657558,527742
1308.19,0.095534,658515,528484
1311.58,0.096113,658804,528011
1314.97,0.096711,659011,527451
1318.36,0.097072,658272,526421
1321.73,0.097669,658022,525498
1326.23,0.098078,657870,524883
1329.6,0.099065,656482,522586
1332.97,0.100017,654926,520206
1336.33,0.100924,653727,518170
1339.69,0.102872,652497,514881
1343.04,0.104331,649913,511122
1346.39,0.106208,647671,507162
1349.73,0.108440,645338,502744
1354.18,0.111146,641175,496399
1357.52,0.113232,638376,491863
1360.85,0.115411,635805,487431
1364.17,0.117176,633413,483627
1367.49,0.119598,631026,479125
1370.81,0.122002,628050,474234
1374.12,0.123748,625034,470062
1378.54,0.127066,620272,462931
1381.84,0.130027,616892,457280
1385.14,0.133730,613613,450988
1388.43,0.137993,611526,445063
1391.72,0.142666,610663,439679
1395.01,0.147557,610634,434734
1398.29,0.152157,611700,430905
1402.66,0.159303,614051,425502
1405.93,0.165053,616268,421421
1409.2,0.170134,617795,417552
1412.46,0.174962,618872,413656
1415.72,0.179385,619795,410075
1418.98,0.182919,620495,407211
1422.23,0.186665,621087,404099
1426.56,0.191108,621375,400171
1429.8,0.193723,621616,397923
1433.04,0.196305,622129,395891
1436.27,0.198464,621526,393546
1439.5,0.200510,621113,391436
1442.72,0.202797,620921,389260
1445.94,0.205299,620270,386618
1450.23,0.208633,618860,382789
1453.44,0.211476,617697,379577
1456.64,0.214637,616264,375950
1459.85,0.216407,614413,373296
1463.04,0.218919,612307,369871
1466.24,0.222591,610032,365394
1469.43,0.225338,607345,361491
1473.67,0.230997,603789,354722
1476.85,0.236480,601175,348755
1480.02,0.240784,597737,343341
1483.19,0.247128,594479,336518
1486.36,0.252626,591232,330470
1489.52,0.256881,587853,325378
1492.68,0.259582,583875,321172
1496.89,0.261822,578062,316339
1500.03,0.262147,574159,313968
1503.18,0.261944,570285,311995
1506.32,0.261390,565444,309742
1509.45,0.259640,560571,308312
1512.58,0.258200,555821,306715
1515.71,0.256740,550344,304715
1519.87,0.253102,543983,303727
1522.99,0.250413,538764,302681
1526.1,0.248630,533692,301065
1529.21,0.245856,527902,299707
1532.32,0.242422,521886,298644
1535.42,0.240010,515888,296856
1538.51,0.237109,509987,295427
1541.6,0.234821,503936,293464
1545.72,0.230662,494694,290854
1548.8,0.227459,488378,289266
1551.88,0.225224,481832,286861
1554.95,0.222836,474989,284346
1558.02,0.221358,467818,281008
1561.08,0.220025,460730,277601
1564.15,0.220034,454170,273643
1568.22,0.218918,444181,268313
1571.27,0.217632,436947,264726
1574.32,0.217278,429598,260486
1577.36,0.215002,422039,257247
1580.4,0.214288,414375,252991
1583.43,0.212363,406354,249196
1586.46,0.211579,398475,244806
1590.49,0.209393,388982,240180
1593.51,0.206937,380708,236404
1596.53,0.205400,372727,232269
1599.54,0.202705,365060,228907
1602.55,0.201578,357543,224776
1605.55,0.199255,349495,220895
1608.55,0.196791,341154,216850
1612.54,0.194699,330877,211333
1615.53,0.192656,322904,207213
1618.51,0.193403,315116,201868
1621.49,0.190703,307217,198035
1624.47,0.190445,299481,193163
1627.44,0.188996,292112,189040
1630.41,0.187788,284245,184461
1634.36,0.186422,274079,178424
1637.32,0.186737,266916,173635
1640.27,0.185370,259612,169416
1643.22,0.184504,251804,164649
1646.16,0.183306,244348,160215
1649.1,0.183360,236703,155183
1652.04,0.181877,228171,150101
1655.95,0.178601,215408,142778
1658.88,0.175201,204937,136905
1661.8,0.169346,193395,130948
1664.72,0.162429,179728,123648
1667.63,0.150603,163642,115689
1670.54,0.134798,146312,107271
1673.44,0.120473,128451,97334
1677.31,0.100135,105080,83442
1680.21,0.089559,88906,72339
1683.1,0.086250,75033,61518
1685.99,0.084932,63520,52237
1688.87,0.085807,53714,44084
1691.75,0.092690,45653,36879
1694.62,0.093932,39137,31525
1697.49,0.098082,33776,26948
1701.31,0.105491,28175,22099

File: Column 1_050585_20150331_121639.csv
Method:,Column 1,,
Host Date-Time:,31/3/15 @ 12:16:39,,
Header Version:,1,,
System Temp (C):,33.76,,
Detector Temp (C):,34.56,,
Humidity (%):,1.86,,
Lamp PD:,3819,,
Shift Vector Coefficients:,-10.5391,0.0761263,-0.000134223,,
Pixel to Wavelength Coefficients:,1775.68,-0.916766,-0.000235065,,
Serial Number:,5510004,,
Scan Config Name:,Column 1,,
Scan Config Type:,Slew,,
Section 1,,
Start wavelength (nm):,900,,
End wavelength (nm):,1700,,
Pattern Pixel Width (nm):,   7.03,,,,
Exposure (ms):,  0.635,,,,
Digital Resolution:,228,,
Num Repeats:,6,,
PGA Gain:,64,,
Total Measurement Time in sec:,  2.722,,
Wavelength (nm),Absorbance (AU),Reference Signal (unitless),Sample Signal (unitless)
901.51,0.070088,108485,92317
905.376,0.075129,121306,102036
909.237,0.078026,131909,110217
913.095,0.078868,143299,119502
916.948,0.080429,156982,130443
922.079,0.081657,179937,149095
925.923,0.081688,200504,166125
929.762,0.083101,222660,183883
933.597,0.083461,244426,201691
937.427,0.082998,263972,218052
941.254,0.081926,281845,233391
945.076,0.080006,297271,247256
950.165,0.079479,315605,262824
953.978,0.079552,328029,273124
957.786,0.080133,340470,283104
961.59,0.080242,352317,292881
965.389,0.080086,363056,301917
969.185,0.079788,373162,310534
972.976,0.079540,382632,318597
976.763,0.080912,391202,324705
981.806,0.080650,400190,332366
985.583,0.082110,406088,336132
989.355,0.082230,410162,339411
993.124,0.082426,412868,341496
996.888,0.083460,414263,341835
1000.65,0.083838,415476,342537
1004.4,0.084677,415479,341879
1009.41,0.086031,414358,339895
1013.15,0.086046,412923,338706
1016.89,0.087797,411526,336202
1020.63,0.086419,409066,335254
1024.36,0.086907,406777,333004
1028.09,0.086928,404427,331064
1031.82,0.087129,401911,328852
1036.78,0.086362,398410,326564
1040.49,0.085700,396204,325251
1044.2,0.086401,394236,323114
1047.91,0.085645,392042,321875
1051.61,0.084934,389823,320578
1055.31,0.084925,388234,319278
1059,0.084555,387599,319027
1063.92,0.083848,386688,318796
1067.61,0.083259,386598,319154
1071.29,0.082856,387377,320094
1074.96,0.082492,388536,321321
1078.63,0.081013,389855,323512
1082.3,0.080642,391215,324918
1085.96,0.080243,393215,326879
1090.84,0.079602,396270,329905
1094.49,0.078994,398760,332443
1098.14,0.077914,400987,335132
1101.79,0.077519,403477,337520
1105.43,0.077496,406116,339746
1109.06,0.076553,407701,341813
1112.7,0.076210,409859,343894
1117.53,0.076433,412494,345927
1121.15,0.076798,414909,347660
1124.77,0.077035,416559,348852
1128.38,0.077585,418532,350061
1131.99,0.078857,419956,350225
1135.6,0.080475,421946,350576
1139.2,0.081578,423881,351290
1143.99,0.083919,426786,351796
1147.58,0.084113,428617,353148
1151.17,0.085884,431169,353805
1154.75,0.086226,433579,355502
1158.33,0.088116,436264,356150
1161.91,0.089916,439132,357009
1165.48,0.092003,442389,357933
1169.04,0.093983,446101,359294
1173.79,0.097608,451929,360963
1177.34,0.099431,456026,362709
1180.9,0.101527,461306,365142
1184.44,0.103106,467657,368826
1187.99,0.104326,473969,372755
1191.52,0.104211,479856,377485
1195.06,0.103979,487372,383603
1199.76,0.103145,497347,392206
1203.29,0.102478,504311,398309
1206.81,0.102794,511507,403699
1210.33,0.101375,519078,411015
1213.84,0.101324,527163,417466
1217.35,0.100371,534208,423974
1220.85,0.099816,540472,429494
1225.51,0.098866,549929,437966
1229.01,0.098768,556888,443609
1232.5,0.098122,562180,448491
1235.98,0.097717,567975,453536
1239.46,0.096314,574815,460484
1242.94,0.095841,582782,467375
1246.41,0.094744,591476,475547
1251.03,0.094670,604016,485712
1254.5,0.095078,612289,491902
1257.96,0.095300,619125,497140
1261.41,0.096000,624551,500689
1264.86,0.096558,629900,504329
1268.31,0.096919,634345,507465
1271.75,0.097718,638574,509910
1276.33,0.097596,642499,513188
1279.76,0.097728,645905,515752
1283.19,0.096811,648307,518764
1286.61,0.096931,650446,520332
1290.03,0.096542,652132,522148
1293.44,0.095840,653907,524416
1296.85,0.096030,655963,525835
1301.39,0.095481,657349,527612
1304.8,0.095777,657558,527421
1308.19,0.096134,658515,527754
1311.58,0.095878,658804,528297
1314.97,0.096604,659011,527581
1318.36,0.096828,658272,526717
1321.73,0.097234,658022,526025
1326.23,0.097642,657870,525410
1329.6,0.099240,656482,522375
1332.97,0.099693,654926,520594
1336.33,0.101573,653727,517397
1339.69,0.103121,652497,514586
1343.04,0.104657,649913,510738
1346.39,0.106561,647671,506750
1349.73,0.108240,645338,502976
1354.18,0.111238,641175,496294
1357.52,0.113057,638376,492062
1360.85,0.114849,635805,488062
1364.17,0.117583,633413,483174
1367.49,0.119611,631026,479111
1370.81,0.121805,628050,474449
1374.12,0.123880,625034,469920
1378.54,0.127562,620272,462402
1381.84,0.130527,616892,456754
1385.14,0.133611,613613,451111
1388.43,0.138198,611526,444853
1391.72,0.142910,610663,439432
1395.01,0.147563,610634,434728
1398.29,0.152320,611700,430743
1402.66,0.159750,614051,425064
1405.93,0.165375,616268,421109
1409.2,0.170231,617795,417459
1412.46,0.175063,618872,413559
1415.72,0.179459,619795,410005
1418.98,0.183314,620495,406841
1422.23,0.187350,621087,403462
1426.56,0.191390,621375,399911
1429.8,0.194097,621616,397581
1433.04,0.196855,622129,395390
1436.27,0.198835,621526,393210
1439.5,0.200680,621113,391283
1442.72,0.203055,620921,389028
1445.94,0.205491,620270,386447
1450.23,0.208464,618860,382938
1453.44,0.212221,617697,378926
1456.64,0.214034,616264,376472
1459.85,0.216976,614413,372807
1463.04,0.219656,612307,369244
1466.24,0.222677,610032,365322
1469.43,0.225421,607345,361422
1473.67,0.231352,603789,354432
1476.85,0.236205,601175,348976
1480.02,0.241092,597737,343098
1483.19,0.247415,594479,336296
1486.36,0.252540,591232,330535
1489.52,0.256823,587853,325421
1492.68,0.259551,583875,321195
1496.89,0.261646,578062,316467
1500.03,0.262156,574159,313961
1503.18,0.262188,570285,311820
1506.32,0.260816,565444,310151
1509.45,0.259698,560571,308271
1512.58,0.258414,555821,306564
1515.71,0.256624,550344,304797
1519.87,0.253315,543983,303578
1522.99,0.251268,538764,302086
1526.1,0.248142,533692,301404
1529.21,0.245822,527902,299731
1532.32,0.242960,521886,298274
1535.42,0.239935,515888,296907
1538.51,0.237585,509987,295103
1541.6,0.234745,503936,293515
1545.72,0.230617,494694,290884
1548.8,0.227297,488378,289374
1551.88,0.226038,481832,286324
1554.95,0.223134,474989,284151
1558.02,0.221726,467818,280770
1561.08,0.219922,460730,277667
1564.15,0.220029,454170,273646
1568.22,0.219373,444181,268032
1571.27,0.218190,436947,264386
1574.32,0.216136,429598,261172
1577.36,0.215878,422039,256729
1580.4,0.214537,414375,252846
1583.43,0.213093,406354,248778
1586.46,0.211254,398475,244989
1590.49,0.209612,388982,240059
1593.51,0.207862,380708,235901
1596.53,0.205497,372727,232217
1599.54,0.203820,365060,228320
1602.55,0.201401,357543,224868
1605.55,0.199950,349495,220542
1608.55,0.198348,341154,216074
1612.54,0.195584,330877,210903
1615.53,0.193470,322904,206825
1618.51,0.193704,315116,201728
1621.49,0.191628,307217,197614
1624.47,0.190486,299481,193145
1627.44,0.189768,292112,188704
1630.41,0.189125,284245,183894
1634.36,0.186958,274079,178204
1637.32,0.186487,266916,173735
1640.27,0.185637,259612,169312
1643.22,0.184902,251804,164498
1646.16,0.184030,244348,159948
1649.1,0.183780,236703,155033
1652.04,0.180632,228171,150532
1655.95,0.178762,215408,142725
1658.88,0.174580,204937,137101
1661.8,0.169911,193395,130778
1664.72,0.162071,179728,123750
1667.63,0.150633,163642,115681
1670.54,0.137107,146312,106702
1673.44,0.121080,128451,97198
1677.31,0.100932,105080,83289
1680.21,0.091514,88906,72014
1683.1,0.084904,75033,61709
1685.99,0.085973,63520,52112
1688.87,0.089288,53714,43732
1691.75,0.093893,45653,36777
1694.62,0.096364,39137,31349
1697.49,0.103776,33776,26597
1701.31,0.100373,28175,22361