Folder: textile_sorting_NIRSCAN_/samples/wool/wool-000811 (part 160)

File: Column 1_050619_20150331_123245.csv
Method:,Column 1,,
Host Date-Time:,31/3/15 @ 12:32:45,,
Header Version:,1,,
System Temp (C):,34.13,,
Detector Temp (C):,35,,
Humidity (%):,1.66,,
Lamp PD:,3818,,
Shift Vector Coefficients:,-10.5391,0.0761263,-0.000134223,,
Pixel to Wavelength Coefficients:,1775.68,-0.916766,-0.000235065,,
Serial Number:,5510004,,
Scan Config Name:,Column 1,,
Scan Config Type:,Slew,,
Section 1,,
Start wavelength (nm):,900,,
End wavelength (nm):,1700,,
Pattern Pixel Width (nm):,   7.03,,,,
Exposure (ms):,  0.635,,,,
Digital Resolution:,228,,
Num Repeats:,6,,
PGA Gain:,64,,
Total Measurement Time in sec:,  2.676,,
Wavelength (nm),Absorbance (AU),Reference Signal (unitless),Sample Signal (unitless)
901.51,0.068942,108485,92561
905.376,0.075125,121306,102037
909.237,0.076700,131909,110554
913.095,0.077547,143299,119866
916.948,0.078466,156982,131034
922.079,0.079960,179937,149679
925.923,0.080831,200504,166453
929.762,0.083533,222660,183700
933.597,0.082106,244426,202321
937.427,0.080297,263972,219412
941.254,0.080043,281845,234405
945.076,0.079591,297271,247492
950.165,0.077998,315605,263722
953.978,0.077174,328029,274624
957.786,0.077437,340470,284867
961.59,0.077670,352317,294621
965.389,0.076750,363056,304245
969.185,0.077563,373162,312129
972.976,0.078041,382632,319698
976.763,0.077887,391202,326975
981.806,0.078866,400190,333734
985.583,0.079557,406088,338114
989.355,0.079555,410162,341508
993.124,0.080372,412868,343115
996.888,0.080932,414263,343830
1000.65,0.081726,415476,344207
1004.4,0.082958,415479,343235
1009.41,0.083747,414358,341687
1013.15,0.084342,412923,340038
1016.89,0.084136,411526,339048
1020.63,0.084718,409066,336570
1024.36,0.084344,406777,334975
1028.09,0.084366,404427,333023
1031.82,0.084385,401911,330937
1036.78,0.083515,398410,328712
1040.49,0.084157,396204,326409
1044.2,0.083815,394236,325043
1047.91,0.083803,392042,323243
1051.61,0.083607,389823,321559
1055.31,0.082296,388234,321216
1059,0.081675,387599,321150
1063.92,0.081535,386688,320498
1067.61,0.080568,386598,321138
1071.29,0.079973,387377,322226
1074.96,0.079544,388536,323510
1078.63,0.078749,389855,325203
1082.3,0.078346,391215,326640
1085.96,0.077558,393215,328906
1090.84,0.076389,396270,332355
1094.49,0.076090,398760,334674
1098.14,0.075574,400987,336943
1101.79,0.074457,403477,339908
1105.43,0.074368,406116,342202
1109.06,0.073781,407701,344002
1112.7,0.073383,409859,346140
1117.53,0.072855,412494,348789
1121.15,0.073601,414909,350229
1124.77,0.073286,416559,351877
1128.38,0.075261,418532,351939
1131.99,0.076165,419956,352402
1135.6,0.076984,421946,353405
1139.2,0.078432,423881,353844
1143.99,0.080336,426786,354711
1147.58,0.080979,428617,355705
1151.17,0.081788,431169,357157
1154.75,0.083017,433579,358139
1158.33,0.084391,436264,359218
1161.91,0.086256,439132,360030
1165.48,0.087739,442389,361464
1169.04,0.090675,446101,362041
1173.79,0.093827,451929,364119
1177.34,0.095332,456026,366149
1180.9,0.098144,461306,367998
1184.44,0.099950,467657,371516
1187.99,0.100889,473969,375717
1191.52,0.100739,479856,380515
1195.06,0.101036,487372,386211
1199.76,0.100043,497347,395018
1203.29,0.099083,504311,401435
1206.81,0.098671,511507,407550
1210.33,0.098092,519078,414134
1213.84,0.097929,527163,420742
1217.35,0.097328,534208,426955
1220.85,0.096104,540472,433181
1225.51,0.095302,549929,441575
1229.01,0.095128,556888,447342
1232.5,0.094267,562180,452489
1235.98,0.094101,567975,457328
1239.46,0.092983,574815,464029
1242.94,0.091891,582782,471645
1246.41,0.091226,591476,479415
1251.03,0.091001,604016,489832
1254.5,0.091265,612289,496240
1257.96,0.091563,619125,501436
1261.41,0.092273,624551,505004
1264.86,0.092538,629900,509019
1268.31,0.093416,634345,511575
1271.75,0.093833,638574,514491
1276.33,0.093944,642499,517522
1279.76,0.094082,645905,520100
1283.19,0.093653,648307,522550
1286.61,0.093270,650446,524737
1290.03,0.093157,652132,526233
1293.44,0.092336,653907,528664
1296.85,0.091849,655963,530922
1301.39,0.091964,657349,531902
1304.8,0.091802,657558,532270
1308.19,0.092231,658515,532518
1311.58,0.091799,658804,533282
1314.97,0.092503,659011,532586
1318.36,0.092721,658272,531722
1321.73,0.092953,658022,531236
1326.23,0.093700,657870,530200
1329.6,0.094654,656482,527921
1332.97,0.095458,654926,525695
1336.33,0.096353,653727,523653
1339.69,0.097325,652497,521499
1343.04,0.099155,649913,517250
1346.39,0.101038,647671,513235
1349.73,0.103087,645338,508979
1354.18,0.105942,641175,502383
1357.52,0.107845,638376,498003
1360.85,0.109750,635805,493826
1364.17,0.111614,633413,489861
1367.49,0.114073,631026,485260
1370.81,0.116261,628050,480544
1374.12,0.118212,625034,476093
1378.54,0.120848,620272,469607
1381.84,0.123760,616892,463926
1385.14,0.126630,613613,458421
1388.43,0.130362,611526,452953
1391.72,0.133992,610663,448549
1395.01,0.138046,610634,444360
1398.29,0.142219,611700,440879
1402.66,0.148334,614051,436386
1405.93,0.153211,616268,433071
1409.2,0.157709,617795,429670
1412.46,0.161958,618872,426229
1415.72,0.165476,619795,423421
1418.98,0.168859,620495,420610
1422.23,0.172265,621087,417722
1426.56,0.176020,621375,414318
1429.8,0.178505,621616,412114
1433.04,0.180815,622129,410266
1436.27,0.182878,621526,407926
1439.5,0.185433,621113,405264
1442.72,0.187157,620921,403533
1445.94,0.189879,620270,400592
1450.23,0.193895,618860,396002
1453.44,0.195926,617697,393414
1456.64,0.199380,616264,389392
1459.85,0.201882,614413,385992
1463.04,0.205098,612307,381831
1466.24,0.208591,610032,377365
1469.43,0.212773,607345,372102
1473.67,0.218927,603789,364719
1476.85,0.224070,601175,358865
1480.02,0.230631,597737,351463
1483.19,0.237345,594479,344185
1486.36,0.243322,591232,337626
1489.52,0.247740,587853,332299
1492.68,0.251755,583875,327013
1496.89,0.253426,578062,322514
1500.03,0.254427,574159,319599
1503.18,0.254324,570285,317518
1506.32,0.253331,565444,315543
1509.45,0.252073,560571,313731
1512.58,0.250936,555821,311888
1515.71,0.248176,550344,310784
1519.87,0.244998,543983,309448
1522.99,0.242512,538764,308238
1526.1,0.239906,533692,307174
1529.21,0.236879,527902,305967
1532.32,0.234461,521886,304169
1535.42,0.231701,515888,302590
1538.51,0.228462,509987,301368
1541.6,0.226053,503936,299449
1545.72,0.221319,494694,297179
1548.8,0.219053,488378,294919
1551.88,0.216207,481832,292879
1554.95,0.214497,474989,289859
1558.02,0.212169,467818,287017
1561.08,0.212035,460730,282756
1564.15,0.211214,454170,279257
1568.22,0.209936,444181,273920
1571.27,0.209466,436947,269751
1574.32,0.209253,429598,265344
1577.36,0.207507,422039,261725
1580.4,0.206266,414375,257708
1583.43,0.206036,406354,252853
1586.46,0.204287,398475,248951
1590.49,0.202417,388982,244069
1593.51,0.200200,380708,240100
1596.53,0.197927,372727,236300
1599.54,0.196689,365060,232100
1602.55,0.193840,357543,228817
1605.55,0.191662,349495,224791
1608.55,0.190396,341154,220067
1612.54,0.188126,330877,214556
1615.53,0.186249,322904,210293
1618.51,0.186240,315116,205225
1621.49,0.186025,307217,200180
1624.47,0.183042,299481,196484
1627.44,0.182284,292112,191984
1630.41,0.181865,284245,186994
1634.36,0.180737,274079,180775
1637.32,0.179970,266916,176362
1640.27,0.177589,259612,172479
1643.22,0.178294,251804,167020
1646.16,0.177669,244348,162308
1649.1,0.176774,236703,157554
1652.04,0.174828,228171,152557
1655.95,0.171445,215408,145150
1658.88,0.168381,204937,139072
1661.8,0.163398,193395,132754
1664.72,0.154273,179728,125992
1667.63,0.142289,163642,117925
1670.54,0.127746,146312,109027
1673.44,0.110845,128451,99516
1677.31,0.091361,105080,85145
1680.21,0.079858,88906,73973
1683.1,0.072533,75033,63492
1685.99,0.073819,63520,53591
1688.87,0.076614,53714,45027
1691.75,0.081117,45653,37875
1694.62,0.085393,39137,32151
1697.49,0.086003,33776,27708
1701.31,0.094681,28175,22656

File: Column 1_050619_20150331_123248.csv
Method:,Column 1,,
Host Date-Time:,31/3/15 @ 12:32:48,,
Header Version:,1,,
System Temp (C):,34.11,,
Detector Temp (C):,35,,
Humidity (%):,1.66,,
Lamp PD:,3818,,
Shift Vector Coefficients:,-10.5391,0.0761263,-0.000134223,,
Pixel to Wavelength Coefficients:,1775.68,-0.916766,-0.000235065,,
Serial Number:,5510004,,
Scan Config Name:,Column 1,,
Scan Config Type:,Slew,,
Section 1,,
Start wavelength (nm):,900,,
End wavelength (nm):,1700,,
Pattern Pixel Width (nm):,   7.03,,,,
Exposure (ms):,  0.635,,,,
Digital Resolution:,228,,
Num Repeats:,6,,
PGA Gain:,64,,
Total Measurement Time in sec:,  2.680,,
Wavelength (nm),Absorbance (AU),Reference Signal (unitless),Sample Signal (unitless)
901.51,0.068506,108485,92654
905.376,0.073209,121306,102488
909.237,0.076245,131909,110670
913.095,0.078341,143299,119647
916.948,0.078181,156982,131120
922.079,0.079878,179937,149707
925.923,0.080988,200504,166393
929.762,0.081999,222660,184350
933.597,0.081707,244426,202507
937.427,0.080276,263972,219423
941.254,0.079749,281845,234564
945.076,0.078932,297271,247868
950.165,0.078647,315605,263328
953.978,0.077036,328029,274711
957.786,0.076832,340470,285264
961.59,0.077391,352317,294810
965.389,0.077752,363056,303544
969.185,0.076913,373162,312597
972.976,0.077449,382632,320134
976.763,0.078475,391202,326532
981.806,0.078815,400190,333773
985.583,0.079787,406088,337935
989.355,0.079388,410162,341639
993.124,0.079835,412868,343539
996.888,0.080589,414263,344102
1000.65,0.081149,415476,344665
1004.4,0.082894,415479,343285
1009.41,0.083233,414358,342092
1013.15,0.084195,412923,340153
1016.89,0.085117,411526,338283
1020.63,0.083933,409066,337179
1024.36,0.084096,406777,335166
1028.09,0.084571,404427,332866
1031.82,0.084511,401911,330841
1036.78,0.083709,398410,328565
1040.49,0.083242,396204,327097
1044.2,0.083331,394236,325406
1047.91,0.083598,392042,323396
1051.61,0.082883,389823,322095
1055.31,0.082756,388234,320876
1059,0.081677,387599,321148
1063.92,0.081924,386688,320211
1067.61,0.080853,386598,320927
1071.29,0.080019,387377,322192
1074.96,0.079446,388536,323583
1078.63,0.079247,389855,324830
1082.3,0.077893,391215,326981
1085.96,0.077307,393215,329096
1090.84,0.076389,396270,332355
1094.49,0.075973,398760,334764
1098.14,0.075453,400987,337037
1101.79,0.075053,403477,339442
1105.43,0.074656,406116,341975
1109.06,0.072931,407701,344676
1112.7,0.073722,409859,345870
1117.53,0.072882,412494,348767
1121.15,0.072984,414909,350727
1124.77,0.073659,416559,351575
1128.38,0.075089,418532,352079
1131.99,0.075414,419956,353012
1135.6,0.076734,421946,353609
1139.2,0.078041,423881,354163
1143.99,0.080244,426786,354786
1147.58,0.080981,428617,355704
1151.17,0.082047,431169,356944
1154.75,0.083129,433579,358046
1158.33,0.084279,436264,359311
1161.91,0.086434,439132,359883
1165.48,0.087539,442389,361631
1169.04,0.089856,446101,362725
1173.79,0.094018,451929,363959
1177.34,0.095860,456026,365704
1180.9,0.097732,461306,368347
1184.44,0.099576,467657,371836
1187.99,0.100495,473969,376058
1191.52,0.100243,479856,380950
1195.06,0.100677,487372,386530
1199.76,0.100124,497347,394944
1203.29,0.099359,504311,401180
1206.81,0.098856,511507,407376
1210.33,0.098145,519078,414083
1213.84,0.097169,527163,421479
1217.35,0.097084,534208,427195
1220.85,0.095725,540472,433559
1225.51,0.095518,549929,441356
1229.01,0.094959,556888,447516
1232.5,0.094238,562180,452520
1235.98,0.093662,567975,457791
1239.46,0.092547,574815,464495
1242.94,0.092199,582782,471310
1246.41,0.091443,591476,479175
1251.03,0.091445,604016,489332
1254.5,0.091304,612289,496195
1257.96,0.091923,619125,501020
1261.41,0.092055,624551,505258
1264.86,0.092919,629900,508572
1268.31,0.093246,634345,511775
1271.75,0.093913,638574,514397
1276.33,0.094277,642499,517125
1279.76,0.094352,645905,519777
1283.19,0.093326,648307,522944
1286.61,0.093193,650446,524829
1290.03,0.092744,652132,526734
1293.44,0.092133,653907,528911
1296.85,0.091957,655963,530790
1301.39,0.091683,657349,532247
1304.8,0.091390,657558,532775
1308.19,0.091974,658515,532834
1311.58,0.092182,658804,532812
1314.97,0.092209,659011,532946
1318.36,0.092701,658272,531746
1321.73,0.092608,658022,531658
1326.23,0.094040,657870,529785
1329.6,0.094611,656482,527973
1332.97,0.095661,654926,525450
1336.33,0.096101,653727,523957
1339.69,0.097644,652497,521116
1343.04,0.099288,649913,517091
1346.39,0.101053,647671,513217
1349.73,0.103238,645338,508803
1354.18,0.105663,641175,502706
1357.52,0.108051,638376,497766
1360.85,0.109654,635805,493935
1364.17,0.111488,633413,490003
1367.49,0.114093,631026,485237
1370.81,0.116513,628050,480265
1374.12,0.118421,625034,475864
1378.54,0.121225,620272,469199
1381.84,0.123754,616892,463933
1385.14,0.126838,613613,458202
1388.43,0.130312,611526,453005
1391.72,0.134256,610663,448276
1395.01,0.138315,610634,444085
1398.29,0.142196,611700,440902
1402.66,0.148343,614051,436377
1405.93,0.152974,616268,433307
1409.2,0.157511,617795,429866
1412.46,0.161533,618872,426646
1415.72,0.165782,619795,423122
1418.98,0.168826,620495,420642
1422.23,0.171800,621087,418170
1426.56,0.176240,621375,414108
1429.8,0.178382,621616,412231
1433.04,0.180959,622129,410130
1436.27,0.183058,621526,407757
1439.5,0.184986,621113,405681
1442.72,0.187725,620921,403006
1445.94,0.189988,620270,400491
1450.23,0.193265,618860,396577
1453.44,0.196795,617697,392627
1456.64,0.199109,616264,389635
1459.85,0.202211,614413,385700
1463.04,0.205070,612307,381856
1466.24,0.208201,610032,377704
1469.43,0.212229,607345,372569
1473.67,0.219096,603789,364577
1476.85,0.225038,601175,358066
1480.02,0.230564,597737,351517
1483.19,0.237400,594479,344141
1486.36,0.243364,591232,337593
1489.52,0.248561,587853,331671
1492.68,0.251419,583875,327266
1496.89,0.253622,578062,322368
1500.03,0.254568,574159,319495
1503.18,0.254164,570285,317635
1506.32,0.253715,565444,315264
1509.45,0.252375,560571,313513
1512.58,0.251110,555821,311763
1515.71,0.248159,550344,310796
1519.87,0.244758,543983,309619
1522.99,0.242356,538764,308349
1526.1,0.240183,533692,306978
1529.21,0.237710,527902,305382
1532.32,0.234221,521886,304337
1535.42,0.232219,515888,302229
1538.51,0.228750,509987,301168
1541.6,0.224879,503936,300259
1545.72,0.221275,494694,297209
1548.8,0.218896,488378,295026
1551.88,0.216221,481832,292870
1554.95,0.215604,474989,289121
1558.02,0.213011,467818,286461
1561.08,0.212214,460730,282639
1564.15,0.211779,454170,278894
1568.22,0.210460,444181,273590
1571.27,0.209105,436947,269975
1574.32,0.209536,429598,265171
1577.36,0.207690,422039,261615
1580.4,0.206542,414375,257544
1583.43,0.204865,406354,253536
1586.46,0.204026,398475,249101
1590.49,0.202282,388982,244145
1593.51,0.200949,380708,239686
1596.53,0.198514,372727,235981
1599.54,0.196179,365060,232373
1602.55,0.194262,357543,228595
1605.55,0.191353,349495,224951
1608.55,0.190228,341154,220152
1612.54,0.188300,330877,214470
1615.53,0.186108,322904,210361
1618.51,0.185369,315116,205637
1621.49,0.183558,307217,201320
1624.47,0.184022,299481,196041
1627.44,0.182364,292112,191949
1630.41,0.181526,284245,187140
1634.36,0.180540,274079,180857
1637.32,0.179273,266916,176645
1640.27,0.178549,259612,172098
1643.22,0.177946,251804,167154
1646.16,0.176907,244348,162593
1649.1,0.175670,236703,157955
1652.04,0.174669,228171,152613
1655.95,0.171418,215408,145159
1658.88,0.168078,204937,139169
1661.8,0.162368,193395,133069
1664.72,0.154604,179728,125896
1667.63,0.142197,163642,117950
1670.54,0.128487,146312,108841
1673.44,0.109429,128451,99841
1677.31,0.089062,105080,85597
1680.21,0.079336,88906,74062
1683.1,0.073458,75033,63357
1685.99,0.074662,63520,53487
1688.87,0.077319,53714,44954
1691.75,0.075976,45653,38326
1694.62,0.077297,39137,32756
1697.49,0.088550,33776,27546
1701.31,0.095314,28175,22623

File: Column 1_050620_20150331_123257.csv
Method:,Column 1,,
Host Date-Time:,31/3/15 @ 12:32:57,,
Header Version:,1,,
System Temp (C):,34.12,,
Detector Temp (C):,34.97,,
Humidity (%):,1.66,,
Lamp PD:,3818,,
Shift Vector Coefficients:,-10.5391,0.0761263,-0.000134223,,
Pixel to Wavelength Coefficients:,1775.68,-0.916766,-0.000235065,,
Serial Number:,5510004,,
Scan Config Name:,Column 1,,
Scan Config Type:,Slew,,
Section 1,,
Start wavelength (nm):,900,,
End wavelength (nm):,1700,,
Pattern Pixel Width (nm):,   7.03,,,,
Exposure (ms):,  0.635,,,,
Digital Resolution:,228,,
Num Repeats:,6,,
PGA Gain:,64,,
Total Measurement Time in sec:,  2.719,,
Wavelength (nm),Absorbance (AU),Reference Signal (unitless),Sample Signal (unitless)
901.51,0.069519,108485,92438
905.376,0.075687,121306,101905
909.237,0.079107,131909,109943
913.095,0.078937,143299,119483
916.948,0.079724,156982,130655
922.079,0.080657,179937,149439
925.923,0.081727,200504,166110
929.762,0.082400,222660,184180
933.597,0.082521,244426,202128
937.427,0.081783,263972,218663
941.254,0.080570,281845,234121
945.076,0.079972,297271,247275
950.165,0.079162,315605,263016
953.978,0.077549,328029,274387
957.786,0.077743,340470,284666
961.59,0.078132,352317,294308
965.389,0.077908,363056,303435
969.185,0.078180,373162,311686
972.976,0.078491,382632,319367
976.763,0.079016,391202,326126
981.806,0.078871,400190,333730
985.583,0.079326,406088,338294
989.355,0.079815,410162,341303
993.124,0.080560,412868,342966
996.888,0.081047,414263,343739
1000.65,0.081793,415476,344154
1004.4,0.082534,415479,343570
1009.41,0.084157,414358,341365
1013.15,0.085015,412923,339511
1016.89,0.085418,411526,338049
1020.63,0.084821,409066,336490
1024.36,0.085268,406777,334263
1028.09,0.084947,404427,332578
1031.82,0.084651,401911,330734
1036.78,0.084070,398410,328292
1040.49,0.083662,396204,326781
1044.2,0.083984,394236,324917
1047.91,0.084075,392042,323041
1051.61,0.083807,389823,321411
1055.31,0.082989,388234,320704
1059,0.082780,387599,320334
1063.92,0.081930,386688,320207
1067.61,0.080748,386598,321005
1071.29,0.080416,387377,321898
1074.96,0.080004,388536,323167
1078.63,0.079382,389855,324729
1082.3,0.077584,391215,327214
1085.96,0.077517,393215,328937
1090.84,0.076663,396270,332145
1094.49,0.076061,398760,334696
1098.14,0.075333,400987,337130
1101.79,0.075399,403477,339172
1105.43,0.074907,406116,341777
1109.06,0.074099,407701,343750
1112.7,0.073521,409859,346030
1117.53,0.073368,412494,348377
1121.15,0.073926,414909,349967
1124.77,0.074063,416559,351248
1128.38,0.074782,418532,352328
1131.99,0.076569,419956,352075
1135.6,0.077205,421946,353225
1139.2,0.078740,423881,353593
1143.99,0.080383,426786,354672
1147.58,0.081447,428617,355322
1151.17,0.082041,431169,356949
1154.75,0.083413,433579,357812
1158.33,0.084683,436264,358977
1161.91,0.086658,439132,359697
1165.48,0.088487,442389,360842
1169.04,0.090032,446101,362578
1173.79,0.094145,451929,363852
1177.34,0.096102,456026,365500
1180.9,0.098595,461306,367616
1184.44,0.100389,467657,371141
1187.99,0.101228,473969,375424
1191.52,0.101668,479856,379702
1195.06,0.100698,487372,386512
1199.76,0.100431,497347,394665
1203.29,0.099622,504311,400937
1206.81,0.099351,511507,406912
1210.33,0.098389,519078,413851
1213.84,0.097882,527163,420788
1217.35,0.097587,534208,426701
1220.85,0.097258,540472,432031
1225.51,0.095507,549929,441367
1229.01,0.095512,556888,446947
1232.5,0.094418,562180,452332
1235.98,0.094327,567975,457091
1239.46,0.092934,574815,464081
1242.94,0.092155,582782,471358
1246.41,0.091269,591476,479367
1251.03,0.091403,604016,489379
1254.5,0.091729,612289,495710
1257.96,0.092203,619125,500697
1261.41,0.092560,624551,504671
1264.86,0.092941,629900,508546
1268.31,0.093558,634345,511408
1271.75,0.094102,638574,514173
1276.33,0.094326,642499,517066
1279.76,0.094141,645905,520029
1283.19,0.093810,648307,522361
1286.61,0.093243,650446,524769
1290.03,0.093061,652132,526350
1293.44,0.093098,653907,527738
1296.85,0.092618,655963,529982
1301.39,0.091766,657349,532145
1304.8,0.092072,657558,531939
1308.19,0.092315,658515,532416
1311.58,0.092111,658804,532900
1314.97,0.092466,659011,532631
1318.36,0.093109,658272,531247
1321.73,0.093474,658022,530599
1326.23,0.094161,657870,529638
1329.6,0.095046,656482,527445
1332.97,0.095510,654926,525632
1336.33,0.096278,653727,523743
1339.69,0.097947,652497,520753
1343.04,0.099455,649913,516893
1346.39,0.101284,647671,512945
1349.73,0.103361,645338,508659
1354.18,0.106162,641175,502128
1357.52,0.108227,638376,497565
1360.85,0.109992,635805,493551
1364.17,0.111935,633413,489499
1367.49,0.114306,631026,485000
1370.81,0.116191,628050,480621
1374.12,0.118224,625034,476080
1378.54,0.121138,620272,469293
1381.84,0.124038,616892,463630
1385.14,0.127233,613613,457785
1388.43,0.130763,611526,452535
1391.72,0.134548,610663,447975
1395.01,0.138232,610634,444170
1398.29,0.142809,611700,440281
1402.66,0.148717,614051,436001
1405.93,0.153124,616268,433157
1409.2,0.157829,617795,429552
1412.46,0.161656,618872,426525
1415.72,0.165754,619795,423150
1418.98,0.169048,620495,420427
1422.23,0.172428,621087,417565
1426.56,0.176237,621375,414111
1429.8,0.178879,621616,411759
1433.04,0.181322,622129,409787
1436.27,0.183291,621526,407538
1439.5,0.185017,621113,405652
1442.72,0.187927,620921,402818
1445.94,0.189957,620270,400520
1450.23,0.194241,618860,395687
1453.44,0.196559,617697,392841
1456.64,0.199700,616264,389105
1459.85,0.202329,614413,385595
1463.04,0.205040,612307,381882
1466.24,0.208735,610032,377240
1469.43,0.212750,607345,372122
1473.67,0.219340,603789,364372
1476.85,0.224940,601175,358147
1480.02,0.231290,597737,350930
1483.19,0.238033,594479,343640
1486.36,0.243869,591232,337201
1489.52,0.249012,587853,331327
1492.68,0.252110,583875,326746
1496.89,0.255087,578062,321283
1500.03,0.255150,574159,319067
1503.18,0.255068,570285,316974
1506.32,0.254353,565444,314801
1509.45,0.252496,560571,313426
1512.58,0.251296,555821,311630
1515.71,0.248683,550344,310421
1519.87,0.246422,543983,308435
1522.99,0.243941,538764,307226
1526.1,0.240785,533692,306553
1529.21,0.237891,527902,305255
1532.32,0.235295,521886,303585
1535.42,0.232337,515888,302147
1538.51,0.229748,509987,300477
1541.6,0.226735,503936,298979
1545.72,0.221747,494694,296886
1548.8,0.219573,488378,294566
1551.88,0.216556,481832,292644
1554.95,0.215128,474989,289438
1558.02,0.213819,467818,285929
1561.08,0.212304,460730,282581
1564.15,0.212028,454170,278734
1568.22,0.210774,444181,273392
1571.27,0.210513,436947,269101
1574.32,0.209956,429598,264915
1577.36,0.208388,422039,261195
1580.4,0.207564,414375,256939
1583.43,0.206253,406354,252727
1586.46,0.204085,398475,249067
1590.49,0.202371,388982,244095
1593.51,0.199876,380708,240279
1596.53,0.198904,372727,235769
1599.54,0.196435,365060,232236
1602.55,0.194841,357543,228290
1605.55,0.192625,349495,224293
1608.55,0.190887,341154,219818
1612.54,0.188525,330877,214359
1615.53,0.187266,322904,209801
1618.51,0.186369,315116,205164
1621.49,0.185411,307217,200463
1624.47,0.183836,299481,196125
1627.44,0.182995,292112,191670
1630.41,0.181851,284245,187000
1634.36,0.181695,274079,180377
1637.32,0.180924,266916,175975
1640.27,0.179362,259612,171776
1643.22,0.178755,251804,166843
1646.16,0.179632,244348,161576
1649.1,0.176284,236703,157732
1652.04,0.175746,228171,152235
1655.95,0.173142,215408,144584
1658.88,0.169829,204937,138609
1661.8,0.162920,193395,132900
1664.72,0.154897,179728,125811
1667.63,0.143838,163642,117505
1670.54,0.129890,146312,108490
1673.44,0.111797,128451,99298
1677.31,0.091162,105080,85184
1680.21,0.082981,88906,73443
1683.1,0.076043,75033,62981
1685.99,0.077456,63520,53144
1688.87,0.078180,53714,44865
1691.75,0.082357,45653,37767
1694.62,0.083815,39137,32268
1697.49,0.092287,33776,27310
1701.31,0.098802,28175,22442