Folder: textile_sorting_NIRSCAN_/samples/wool/wool-000811 (part 3)

File: Column 1_050532_20150331_115113.csv
Method:,Column 1,,
Host Date-Time:,31/3/15 @ 11:51:13,,
Header Version:,1,,
System Temp (C):,30.35,,
Detector Temp (C):,31.47,,
Humidity (%):,4.87,,
Lamp PD:,3831,,
Shift Vector Coefficients:,-10.5391,0.0761263,-0.000134223,,
Pixel to Wavelength Coefficients:,1775.68,-0.916766,-0.000235065,,
Serial Number:,5510004,,
Scan Config Name:,Column 1,,
Scan Config Type:,Slew,,
Section 1,,
Start wavelength (nm):,900,,
End wavelength (nm):,1700,,
Pattern Pixel Width (nm):,   7.03,,,,
Exposure (ms):,  0.635,,,,
Digital Resolution:,228,,
Num Repeats:,6,,
PGA Gain:,64,,
Total Measurement Time in sec:,  2.690,,
Wavelength (nm),Absorbance (AU),Reference Signal (unitless),Sample Signal (unitless)
901.51,0.043674,108485,98106
905.376,0.048921,121306,108383
909.237,0.049590,131909,117675
913.095,0.050951,143299,127436
916.948,0.050796,156982,139654
922.079,0.050482,179937,160191
925.923,0.050658,200504,178429
929.762,0.051970,222660,197548
933.597,0.052168,244426,216760
937.427,0.053206,263972,233535
941.254,0.053835,281845,248986
945.076,0.053378,297271,262890
950.165,0.054069,315605,278660
953.978,0.053643,328029,289914
957.786,0.054605,340470,300244
961.59,0.055320,352317,310180
965.389,0.055280,363056,319664
969.185,0.055629,373162,328298
972.976,0.056155,382632,336222
976.763,0.057470,391202,342713
981.806,0.057558,400190,350516
985.583,0.058403,406088,354991
989.355,0.058665,410162,358336
993.124,0.059781,412868,359774
996.888,0.060205,414263,360638
1000.65,0.060866,415476,361144
1004.4,0.061897,415479,360290
1009.41,0.063011,414358,358397
1013.15,0.063838,412923,356477
1016.89,0.064324,411526,354873
1020.63,0.064142,409066,352900
1024.36,0.063907,406777,351115
1028.09,0.063911,404427,349083
1031.82,0.063329,401911,347377
1036.78,0.062413,398410,345078
1040.49,0.061717,396204,343718
1044.2,0.062181,394236,341645
1047.91,0.061759,392042,340074
1051.61,0.060634,389823,339026
1055.31,0.059733,388234,338346
1059,0.059597,387599,337898
1063.92,0.058113,386688,338258
1067.61,0.056413,386598,339505
1071.29,0.056428,387377,340178
1074.96,0.055643,388536,341813
1078.63,0.054717,389855,343705
1082.3,0.053725,391215,345693
1085.96,0.053047,393215,348003
1090.84,0.052021,396270,351536
1094.49,0.051933,398760,353817
1098.14,0.051536,400987,356118
1101.79,0.051545,403477,358322
1105.43,0.051503,406116,360701
1109.06,0.050924,407701,362592
1112.7,0.050910,409859,364523
1117.53,0.051318,412494,366522
1121.15,0.051771,414909,368283
1124.77,0.052757,416559,368909
1128.38,0.053949,418532,369641
1131.99,0.055721,419956,369388
1135.6,0.057409,421946,369699
1139.2,0.059954,423881,369224
1143.99,0.062800,426786,369326
1147.58,0.063984,428617,369901
1151.17,0.065289,431169,370987
1154.75,0.066116,433579,372351
1158.33,0.069132,436264,372064
1161.91,0.071540,439132,372439
1165.48,0.073980,442389,373099
1169.04,0.076696,446101,373884
1173.79,0.081142,451929,374911
1177.34,0.084316,456026,375555
1180.9,0.086792,461306,377744
1184.44,0.088674,467657,381288
1187.99,0.089266,473969,385908
1191.52,0.089683,479856,390326
1195.06,0.088626,487372,397406
1199.76,0.087034,497347,407029
1203.29,0.086064,504311,413651
1206.81,0.084529,511507,421039
1210.33,0.083520,519078,428265
1213.84,0.082457,527163,436001
1217.35,0.081075,534208,443236
1220.85,0.080161,540472,449378
1225.51,0.078524,549929,458968
1229.01,0.078198,556888,465125
1232.5,0.076790,562180,471070
1235.98,0.076007,567975,476785
1239.46,0.075840,574815,482712
1242.94,0.074260,582782,491186
1246.41,0.073405,591476,499496
1251.03,0.072624,604016,511004
1254.5,0.072720,612289,517889
1257.96,0.073319,619125,522949
1261.41,0.073670,624551,527106
1264.86,0.076428,629900,528255
1268.31,0.074836,634345,533937
1271.75,0.075719,638574,536404
1276.33,0.075673,642499,539758
1279.76,0.075859,645905,542388
1283.19,0.075254,648307,545163
1286.61,0.075105,650446,547150
1290.03,0.074363,652132,549506
1293.44,0.073774,653907,551749
1296.85,0.074081,655963,553093
1301.39,0.074165,657349,554155
1304.8,0.074139,657558,554364
1308.19,0.074457,658515,554764
1311.58,0.074207,658804,555327
1314.97,0.075220,659011,554208
1318.36,0.075585,658272,553121
1321.73,0.075980,658022,552408
1326.23,0.077387,657870,550495
1329.6,0.078063,656482,548479
1332.97,0.079898,654926,544872
1336.33,0.081249,653727,542185
1339.69,0.082766,652497,539278
1343.04,0.084951,649913,534447
1346.39,0.087734,647671,529201
1349.73,0.090058,645338,524480
1354.18,0.093620,641175,516841
1357.52,0.096199,638376,511538
1360.85,0.098289,635805,507032
1364.17,0.100701,633413,502326
1367.49,0.103681,631026,497011
1370.81,0.106120,628050,491897
1374.12,0.109480,625034,485762
1378.54,0.113018,620272,478150
1381.84,0.117291,616892,470889
1385.14,0.121958,613613,463379
1388.43,0.127156,611526,456309
1391.72,0.133398,610663,449163
1395.01,0.139302,610634,443077
1398.29,0.146204,611700,436852
1402.66,0.155577,614051,429168
1405.93,0.163392,616268,423036
1409.2,0.169457,617795,418203
1412.46,0.176403,618872,412285
1415.72,0.182169,619795,407454
1418.98,0.187119,620495,403292
1422.23,0.191802,621087,399347
1426.56,0.196380,621375,395343
1429.8,0.200666,621616,391612
1433.04,0.203141,622129,389708
1436.27,0.206124,621526,386665
1439.5,0.208648,621113,384169
1442.72,0.211197,620921,381803
1445.94,0.213723,620270,379191
1450.23,0.217658,618860,374916
1453.44,0.220431,617697,371830
1456.64,0.222923,616264,368845
1459.85,0.225795,614413,365313
1463.04,0.228237,612307,362020
1466.24,0.230811,610032,358543
1469.43,0.234095,607345,354275
1473.67,0.238554,603789,348603
1476.85,0.243498,601175,343165
1480.02,0.248187,597737,337538
1483.19,0.253915,594479,331300
1486.36,0.259240,591232,325475
1489.52,0.264092,587853,320020
1492.68,0.268186,583875,314872
1496.89,0.270341,578062,310194
1500.03,0.270683,574159,307857
1503.18,0.271614,570285,305125
1506.32,0.270904,565444,303030
1509.45,0.270281,560571,300850
1512.58,0.268371,555821,299615
1515.71,0.266417,550344,298001
1519.87,0.263075,543983,296832
1522.99,0.259673,538764,296296
1526.1,0.257308,533692,295109
1529.21,0.254717,527902,293654
1532.32,0.252501,521886,291793
1535.42,0.248559,515888,291069
1538.51,0.245575,509987,289724
1541.6,0.241438,503936,289026
1545.72,0.236605,494694,286901
1548.8,0.233931,488378,284987
1551.88,0.230353,481832,283493
1554.95,0.228489,474989,280669
1558.02,0.226528,467818,277683
1561.08,0.225096,460730,274379
1564.15,0.224050,454170,271124
1568.22,0.222987,444181,265811
1571.27,0.222560,436947,261739
1574.32,0.221281,429598,258096
1577.36,0.219532,422039,254578
1580.4,0.217609,414375,251064
1583.43,0.215489,406354,247409
1586.46,0.213822,398475,243545
1590.49,0.210990,388982,239298
1593.51,0.208793,380708,235396
1596.53,0.205693,372727,232112
1599.54,0.203607,365060,228432
1602.55,0.201507,357543,224813
1605.55,0.199218,349495,220914
1608.55,0.196283,341154,217104
1612.54,0.193269,330877,212030
1615.53,0.191865,322904,207591
1618.51,0.189889,315116,203508
1621.49,0.188784,307217,198912
1624.47,0.186662,299481,194853
1627.44,0.185807,292112,190433
1630.41,0.184234,284245,185977
1634.36,0.181909,274079,180288
1637.32,0.180566,266916,176120
1640.27,0.180836,259612,171194
1643.22,0.178383,251804,166986
1646.16,0.177781,244348,162266
1649.1,0.176962,236703,157486
1652.04,0.174777,228171,152575
1655.95,0.174158,215408,144246
1658.88,0.173393,204937,137476
1661.8,0.172248,193395,130076
1664.72,0.170093,179728,121485
1667.63,0.165426,163642,111807
1670.54,0.161496,146312,100875
1673.44,0.156779,128451,89528
1677.31,0.153894,105080,73727
1680.21,0.156469,88906,62010
1683.1,0.157008,75033,52269
1685.99,0.161446,63520,43799
1688.87,0.161182,53714,37060
1691.75,0.165245,45653,31205
1694.62,0.173342,39137,26257
1697.49,0.177953,33776,22421
1701.31,0.186062,28175,18357

File: Column 1_050532_20150331_115121.csv
Method:,Column 1,,
Host Date-Time:,31/3/15 @ 11:51:21,,
Header Version:,1,,
System Temp (C):,30.44,,
Detector Temp (C):,31.29,,
Humidity (%):,4.77,,
Lamp PD:,3830,,
Shift Vector Coefficients:,-10.5391,0.0761263,-0.000134223,,
Pixel to Wavelength Coefficients:,1775.68,-0.916766,-0.000235065,,
Serial Number:,5510004,,
Scan Config Name:,Column 1,,
Scan Config Type:,Slew,,
Section 1,,
Start wavelength (nm):,900,,
End wavelength (nm):,1700,,
Pattern Pixel Width (nm):,   7.03,,,,
Exposure (ms):,  0.635,,,,
Digital Resolution:,228,,
Num Repeats:,6,,
PGA Gain:,64,,
Total Measurement Time in sec:,  2.678,,
Wavelength (nm),Absorbance (AU),Reference Signal (unitless),Sample Signal (unitless)
901.51,0.044929,108485,97823
905.376,0.050756,121306,107926
909.237,0.051302,131909,117212
913.095,0.052337,143299,127030
916.948,0.052398,156982,139140
922.079,0.052030,179937,159621
925.923,0.053838,200504,177127
929.762,0.052291,222660,197402
933.597,0.053682,244426,216006
937.427,0.053857,263972,233185
941.254,0.054434,281845,248643
945.076,0.053800,297271,262635
950.165,0.054217,315605,278565
953.978,0.053887,328029,289751
957.786,0.055044,340470,299940
961.59,0.055582,352317,309993
965.389,0.056041,363056,319104
969.185,0.055883,373162,328106
972.976,0.056571,382632,335900
976.763,0.057221,391202,342910
981.806,0.058408,400190,349831
985.583,0.058632,406088,354804
989.355,0.059321,410162,357795
993.124,0.060435,412868,359233
996.888,0.060415,414263,360463
1000.65,0.061211,415476,360857
1004.4,0.062257,415479,359991
1009.41,0.063801,414358,357746
1013.15,0.064180,412923,356196
1016.89,0.064532,411526,354703
1020.63,0.064004,409066,353012
1024.36,0.064538,406777,350605
1028.09,0.063924,404427,349073
1031.82,0.062990,401911,347648
1036.78,0.063086,398410,344544
1040.49,0.062832,396204,342836
1044.2,0.062214,394236,341619
1047.91,0.061971,392042,339908
1051.61,0.060772,389823,338919
1055.31,0.059875,388234,338235
1059,0.059646,387599,337860
1063.92,0.057938,386688,338394
1067.61,0.057280,386598,338828
1071.29,0.056511,387377,340113
1074.96,0.056488,388536,341148
1078.63,0.054840,389855,343608
1082.3,0.054059,391215,345427
1085.96,0.053782,393215,347415
1090.84,0.052976,396270,350764
1094.49,0.052244,398760,353564
1098.14,0.052254,400987,355530
1101.79,0.051852,403477,358069
1105.43,0.052074,406116,360227
1109.06,0.050891,407701,362619
1112.7,0.051326,409859,364174
1117.53,0.050768,412494,366986
1121.15,0.052660,414909,367530
1124.77,0.052676,416559,368978
1128.38,0.054599,418532,369088
1131.99,0.055713,419956,369395
1135.6,0.057831,421946,369340
1139.2,0.061581,423881,367843
1143.99,0.063183,426786,369001
1147.58,0.064776,428617,369227
1151.17,0.065993,431169,370386
1154.75,0.067084,433579,371522
1158.33,0.069258,436264,371956
1161.91,0.071728,439132,372278
1165.48,0.074684,442389,372495
1169.04,0.077391,446101,373286
1173.79,0.082095,451929,374089
1177.34,0.084686,456026,375235
1180.9,0.087155,461306,377428
1184.44,0.089032,467657,380974
1187.99,0.090122,473969,385148
1191.52,0.089039,479856,390906
1195.06,0.088922,487372,397135
1199.76,0.086889,497347,407165
1203.29,0.085923,504311,413786
1206.81,0.084965,511507,420617
1210.33,0.083597,519078,428189
1213.84,0.082721,527163,435736
1217.35,0.081674,534208,442625
1220.85,0.080332,540472,449202
1225.51,0.079076,549929,458385
1229.01,0.078089,556888,465242
1232.5,0.077643,562180,470146
1235.98,0.076392,567975,476362
1239.46,0.075256,574815,483362
1242.94,0.074320,582782,491118
1246.41,0.073484,591476,499405
1251.03,0.072833,604016,510758
1254.5,0.072802,612289,517791
1257.96,0.073273,619125,523004
1261.41,0.073864,624551,526871
1264.86,0.074499,629900,530606
1268.31,0.075106,634345,533605
1271.75,0.076044,638574,536003
1276.33,0.076086,642499,539246
1279.76,0.076342,645905,541784
1283.19,0.075891,648307,544364
1286.61,0.075132,650446,547116
1290.03,0.074573,652132,549240
1293.44,0.074044,653907,551407
1296.85,0.074371,655963,552724
1301.39,0.073997,657349,554369
1304.8,0.073950,657558,554606
1308.19,0.074428,658515,554802
1311.58,0.074288,658804,555224
1314.97,0.075070,659011,554399
1318.36,0.075821,658272,552821
1321.73,0.076460,658022,551799
1326.23,0.077482,657870,550374
1329.6,0.078661,656482,547724
1332.97,0.079710,654926,545107
1336.33,0.081108,653727,542361
1339.69,0.083349,652497,538554
1343.04,0.085051,649913,534323
1346.39,0.087751,647671,529180
1349.73,0.089900,645338,524671
1354.18,0.093641,641175,516815
1357.52,0.095826,638376,511977
1360.85,0.098387,635805,506917
1364.17,0.100864,633413,502138
1367.49,0.103572,631026,497136
1370.81,0.106702,628050,491238
1374.12,0.109911,625034,485280
1378.54,0.113074,620272,478088
1381.84,0.117453,616892,470713
1385.14,0.121855,613613,463489
1388.43,0.127853,611526,455577
1391.72,0.133773,610663,448775
1395.01,0.139360,610634,443018
1398.29,0.146487,611700,436568
1402.66,0.155924,614051,428825
1405.93,0.162991,616268,423427
1409.2,0.169583,617795,418082
1412.46,0.176434,618872,412256
1415.72,0.182081,619795,407537
1418.98,0.186971,620495,403429
1422.23,0.192046,621087,399123
1426.56,0.196629,621375,395116
1429.8,0.200047,621616,392171
1433.04,0.203114,622129,389732
1436.27,0.206232,621526,386569
1439.5,0.208643,621113,384174
1442.72,0.211561,620921,381483
1445.94,0.213984,620270,378963
1450.23,0.217256,618860,375264
1453.44,0.220479,617697,371789
1456.64,0.223682,616264,368201
1459.85,0.225905,614413,365221
1463.04,0.228226,612307,362029
1466.24,0.230886,610032,358481
1469.43,0.233912,607345,354424
1473.67,0.238558,603789,348600
1476.85,0.242876,601175,343657
1480.02,0.247703,597737,337915
1483.19,0.253433,594479,331668
1486.36,0.258858,591232,325762
1489.52,0.264278,587853,319883
1492.68,0.267581,583875,315311
1496.89,0.272870,578062,308393
1500.03,0.271277,574159,307436
1503.18,0.271942,570285,304895
1506.32,0.271518,565444,302602
1509.45,0.269849,560571,301149
1512.58,0.269174,555821,299062
1515.71,0.266634,550344,297852
1519.87,0.263449,543983,296576
1522.99,0.260356,538764,295830
1526.1,0.258292,533692,294441
1529.21,0.255277,527902,293276
1532.32,0.252258,521886,291956
1535.42,0.248930,515888,290821
1538.51,0.245563,509987,289732
1541.6,0.242555,503936,288284
1545.72,0.236644,494694,286875
1548.8,0.233713,488378,285130
1551.88,0.230868,481832,283157
1554.95,0.228827,474989,280451
1558.02,0.227115,467818,277308
1561.08,0.224985,460730,274449
1564.15,0.224632,454170,270761
1568.22,0.223549,444181,265467
1571.27,0.222416,436947,261826
1574.32,0.221496,429598,257968
1577.36,0.219400,422039,254655
1580.4,0.217976,414375,250852
1583.43,0.216691,406354,246725
1586.46,0.214605,398475,243106
1590.49,0.211103,388982,239236
1593.51,0.209495,380708,235016
1596.53,0.207371,372727,231217
1599.54,0.205223,365060,227584
1602.55,0.201123,357543,225012
1605.55,0.199745,349495,220646
1608.55,0.196701,341154,216895
1612.54,0.195460,330877,210963
1615.53,0.192273,322904,207396
1618.51,0.190900,315116,203035
1621.49,0.188935,307217,198843
1624.47,0.186961,299481,194719
1627.44,0.186015,292112,190342
1630.41,0.184589,284245,185825
1634.36,0.182331,274079,180113
1637.32,0.181526,266916,175731
1640.27,0.181042,259612,171113
1643.22,0.180330,251804,166239
1646.16,0.179452,244348,161643
1649.1,0.177365,236703,157340
1652.04,0.177344,228171,151676
1655.95,0.176910,215408,143335
1658.88,0.174504,204937,137125
1661.8,0.174306,193395,129461
1664.72,0.170662,179728,121326
1667.63,0.167158,163642,111362
1670.54,0.165054,146312,100052
1673.44,0.162118,128451,88434
1677.31,0.158239,105080,72993
1680.21,0.158266,88906,61754
1683.1,0.158731,75033,52062
1685.99,0.166212,63520,43321
1688.87,0.174606,53714,35932
1691.75,0.178816,45653,30245
1694.62,0.182942,39137,25683
1697.49,0.186403,33776,21989
1701.31,0.191490,28175,18129

File: Column 1_050532_20150331_115124.csv
Method:,Column 1,,
Host Date-Time:,31/3/15 @ 11:51:24,,
Header Version:,1,,
System Temp (C):,30.49,,
Detector Temp (C):,31.15,,
Humidity (%):,4.77,,
Lamp PD:,3830,,
Shift Vector Coefficients:,-10.5391,0.0761263,-0.000134223,,
Pixel to Wavelength Coefficients:,1775.68,-0.916766,-0.000235065,,
Serial Number:,5510004,,
Scan Config Name:,Column 1,,
Scan Config Type:,Slew,,
Section 1,,
Start wavelength (nm):,900,,
End wavelength (nm):,1700,,
Pattern Pixel Width (nm):,   7.03,,,,
Exposure (ms):,  0.635,,,,
Digital Resolution:,228,,
Num Repeats:,6,,
PGA Gain:,64,,
Total Measurement Time in sec:,  2.678,,
Wavelength (nm),Absorbance (AU),Reference Signal (unitless),Sample Signal (unitless)
901.51,0.045177,108485,97767
905.376,0.050648,121306,107953
909.237,0.052204,131909,116969
913.095,0.052956,143299,126849
916.948,0.052042,156982,139254
922.079,0.052077,179937,159604
925.923,0.051423,200504,178115
929.762,0.052387,222660,197358
933.597,0.053284,244426,216204
937.427,0.053965,263972,233127
941.254,0.054878,281845,248389
945.076,0.054649,297271,262122
950.165,0.054408,315605,278443
953.978,0.054667,328029,289231
957.786,0.055056,340470,299932
961.59,0.055622,352317,309964
965.389,0.056103,363056,319059
969.185,0.056066,373162,327968
972.976,0.056826,382632,335703
976.763,0.057393,391202,342774
981.806,0.057862,400190,350271
985.583,0.058520,406088,354895
989.355,0.059439,410162,357698
993.124,0.060141,412868,359476
996.888,0.060649,414263,360269
1000.65,0.061519,415476,360601
1004.4,0.062214,415479,360027
1009.41,0.063678,414358,357847
1013.15,0.063838,412923,356477
1016.89,0.064935,411526,354374
1020.63,0.065015,409066,352191
1024.36,0.064058,406777,350993
1028.09,0.064013,404427,349001
1031.82,0.064195,401911,346685
1036.78,0.063315,398410,344362
1040.49,0.062770,396204,342885
1044.2,0.062444,394236,341438
1047.91,0.061190,392042,340520
1051.61,0.061553,389823,338310
1055.31,0.060253,388234,337941
1059,0.059870,387599,337686
1063.92,0.058479,386688,337973
1067.61,0.057065,386598,338996
1071.29,0.056838,387377,339857
1074.96,0.056132,388536,341428
1078.63,0.054993,389855,343487
1082.3,0.054244,391215,345280
1085.96,0.053642,393215,347527
1090.84,0.053127,396270,350642
1094.49,0.052432,398760,353411
1098.14,0.052530,400987,355304
1101.79,0.052152,403477,357822
1105.43,0.051818,406116,360439
1109.06,0.051604,407701,362024
1112.7,0.051376,409859,364132
1117.53,0.051366,412494,366481
1121.15,0.052423,414909,367731
1124.77,0.052907,416559,368782
1128.38,0.054045,418532,369559
1131.99,0.055973,419956,369174
1135.6,0.058401,421946,368855
1139.2,0.060261,423881,368963
1143.99,0.062865,426786,369271
1147.58,0.064071,428617,369827
1151.17,0.065803,431169,370548
1154.75,0.067378,433579,371270
1158.33,0.069192,436264,372012
1161.91,0.071804,439132,372213
1165.48,0.075049,442389,372182
1169.04,0.077869,446101,372876
1173.79,0.081865,451929,374287
1177.34,0.084536,456026,375365
1180.9,0.087181,461306,377405
1184.44,0.089145,467657,380875
1187.99,0.089571,473969,385637
1191.52,0.089700,479856,390311
1195.06,0.088847,487372,397204
1199.76,0.087132,497347,406937
1203.29,0.085751,504311,413950
1206.81,0.084485,511507,421082
1210.33,0.083805,519078,427984
1213.84,0.083063,527163,435393
1217.35,0.081235,534208,443073
1220.85,0.080183,540472,449356
1225.51,0.078984,549929,458482
1229.01,0.078581,556888,464715
1232.5,0.077754,562180,470025
1235.98,0.076794,567975,475921
1239.46,0.075488,574815,483103
1242.94,0.074376,582782,491055
1246.41,0.073418,591476,499481
1251.03,0.072938,604016,510635
1254.5,0.073286,612289,517214
1257.96,0.073216,619125,523073
1261.41,0.074234,624551,526422
1264.86,0.074700,629900,530361
1268.31,0.075267,634345,533407
1271.75,0.075777,638574,536333
1276.33,0.076234,642499,539062
1279.76,0.076058,645905,542139
1283.19,0.075308,648307,545096
1286.61,0.075427,650446,546744
1290.03,0.074940,652132,548777
1293.44,0.074449,653907,550893
1296.85,0.074098,655963,553072
1301.39,0.074090,657349,554251
1304.8,0.073978,657558,554569
1308.19,0.074750,658515,554391
1311.58,0.074617,658804,554804
1314.97,0.075444,659011,553922
1318.36,0.076069,658272,552505
1321.73,0.076558,658022,551674
1326.23,0.077696,657870,550103
1329.6,0.078731,656482,547636
1332.97,0.079668,654926,545160
1336.33,0.081460,653727,541921
1339.69,0.083523,652497,538338
1343.04,0.085471,649913,533807
1346.39,0.088083,647671,528776
1349.73,0.090454,645338,524002
1354.18,0.093898,641175,516510
1357.52,0.096524,638376,511155
1360.85,0.098588,635805,506683
1364.17,0.101174,633413,501780
1367.49,0.103959,631026,496693
1370.81,0.106574,628050,491383
1374.12,0.109216,625034,486058
1378.54,0.113433,620272,477693
1381.84,0.117470,616892,470694
1385.14,0.122220,613613,463100
1388.43,0.127724,611526,455712
1391.72,0.133986,610663,448555
1395.01,0.139756,610634,442614
1398.29,0.147090,611700,435962
1402.66,0.155994,614051,428756
1405.93,0.162939,616268,423478
1409.2,0.170864,617795,416851
1412.46,0.176350,618872,412336
1415.72,0.181939,619795,407670
1418.98,0.186914,620495,403482
1422.23,0.191873,621087,399282
1426.56,0.197126,621375,394664
1429.8,0.200067,621616,392153
1433.04,0.203274,622129,389589
1436.27,0.206078,621526,386706
1439.5,0.208625,621113,384190
1442.72,0.210681,620921,382257
1445.94,0.213786,620270,379136
1450.23,0.217434,618860,375110
1453.44,0.220485,617697,371784
1456.64,0.223366,616264,368469
1459.85,0.225700,614413,365393
1463.04,0.228938,612307,361436
1466.24,0.231527,610032,357953
1469.43,0.234123,607345,354252
1473.67,0.238735,603789,348458
1476.85,0.243264,601175,343350
1480.02,0.248371,597737,337395
1483.19,0.254281,594479,331021
1486.36,0.259458,591232,325312
1489.52,0.264098,587853,320015
1492.68,0.267906,583875,315075
1496.89,0.270394,578062,310156
1500.03,0.271368,574159,307372
1503.18,0.271885,570285,304935
1506.32,0.271323,565444,302738
1509.45,0.270647,560571,300596
1512.58,0.268264,555821,299689
1515.71,0.266539,550344,297917
1519.87,0.263026,543983,296865
1522.99,0.260941,538764,295432
1526.1,0.258052,533692,294604
1529.21,0.255449,527902,293160
1532.32,0.251444,521886,292504
1535.42,0.248960,515888,290801
1538.51,0.245740,509987,289614
1541.6,0.242606,503936,288250
1545.72,0.237395,494694,286379
1548.8,0.235011,488378,284279
1551.88,0.231488,481832,282753
1554.95,0.228779,474989,280482
1558.02,0.226676,467818,277588
1561.08,0.225449,460730,274156
1564.15,0.224284,454170,270978
1568.22,0.223644,444181,265409
1571.27,0.222433,436947,261816
1574.32,0.221345,429598,258058
1577.36,0.219871,422039,254379
1580.4,0.218451,414375,250578
1583.43,0.216621,406354,246765
1586.46,0.214086,398475,243397
1590.49,0.212123,388982,238675
1593.51,0.209192,380708,235180
1596.53,0.206954,372727,231439
1599.54,0.204452,365060,227988
1602.55,0.202197,357543,224456
1605.55,0.199948,349495,220543
1608.55,0.196389,341154,217051
1612.54,0.194547,330877,211407
1615.53,0.192246,322904,207409
1618.51,0.191855,315116,202589
1621.49,0.190315,307217,198212
1624.47,0.187146,299481,194636
1627.44,0.185705,292112,190478
1630.41,0.184420,284245,185897
1634.36,0.182138,274079,180193
1637.32,0.181403,266916,175781
1640.27,0.181982,259612,170743
1643.22,0.178913,251804,166782
1646.16,0.179653,244348,161568
1649.1,0.179595,236703,156534
1652.04,0.177312,228171,151687
1655.95,0.175557,215408,143782
1658.88,0.173138,204937,137557
1661.8,0.173084,193395,129826
1664.72,0.172632,179728,120777
1667.63,0.168865,163642,110925
1670.54,0.163802,146312,100341
1673.44,0.159387,128451,88992
1677.31,0.157965,105080,73039
1680.21,0.158991,88906,61651
1683.1,0.159433,75033,51978
1685.99,0.166663,63520,43276
1688.87,0.168223,53714,36464
1691.75,0.174671,45653,30535
1694.62,0.181439,39137,25772
1697.49,0.181376,33776,22245
1701.31,0.188435,28175,18257