Folder: textile_sorting_NIRSCAN_/samples/wool/wool-000811 (part 88)

File: Column 1_050578_20150331_121314.csv
Method:,Column 1,,
Host Date-Time:,31/3/15 @ 12:13:14,,
Header Version:,1,,
System Temp (C):,33.81,,
Detector Temp (C):,34.62,,
Humidity (%):,2.05,,
Lamp PD:,3819,,
Shift Vector Coefficients:,-10.5391,0.0761263,-0.000134223,,
Pixel to Wavelength Coefficients:,1775.68,-0.916766,-0.000235065,,
Serial Number:,5510004,,
Scan Config Name:,Column 1,,
Scan Config Type:,Slew,,
Section 1,,
Start wavelength (nm):,900,,
End wavelength (nm):,1700,,
Pattern Pixel Width (nm):,   7.03,,,,
Exposure (ms):,  0.635,,,,
Digital Resolution:,228,,
Num Repeats:,6,,
PGA Gain:,64,,
Total Measurement Time in sec:,  2.729,,
Wavelength (nm),Absorbance (AU),Reference Signal (unitless),Sample Signal (unitless)
901.51,0.072257,108485,91857
905.376,0.076685,121306,101671
909.237,0.081023,131909,109459
913.095,0.080415,143299,119077
916.948,0.080875,156982,130309
922.079,0.084012,179937,148289
925.923,0.085076,200504,164834
929.762,0.085129,222660,183026
933.597,0.084843,244426,201050
937.427,0.083046,263972,218028
941.254,0.083516,281845,232538
945.076,0.082013,297271,246116
950.165,0.082206,315605,261179
953.978,0.080885,328029,272287
957.786,0.080779,340470,282683
961.59,0.081215,352317,292226
965.389,0.081362,363056,301031
969.185,0.081268,373162,309478
972.976,0.081525,382632,317144
976.763,0.082069,391202,323841
981.806,0.082661,400190,330830
985.583,0.083721,406088,334888
989.355,0.083404,410162,338494
993.124,0.083901,412868,340338
996.888,0.084412,414263,341086
1000.65,0.085445,415476,341272
1004.4,0.086487,415479,340457
1009.41,0.087748,414358,338554
1013.15,0.087638,412923,337467
1016.89,0.088508,411526,335652
1020.63,0.088081,409066,333974
1024.36,0.088832,406777,331531
1028.09,0.088371,404427,329966
1031.82,0.088259,401911,327998
1036.78,0.087691,398410,325566
1040.49,0.087504,396204,323903
1044.2,0.087590,394236,322230
1047.91,0.087040,392042,320843
1051.61,0.086803,389823,319201
1055.31,0.086747,388234,317941
1059,0.086111,387599,317886
1063.92,0.085900,386688,317293
1067.61,0.085077,386598,317821
1071.29,0.085097,387377,318447
1074.96,0.084304,388536,319983
1078.63,0.083306,389855,321808
1082.3,0.082275,391215,323698
1085.96,0.081898,393215,325636
1090.84,0.081096,396270,328772
1094.49,0.080358,398760,331401
1098.14,0.079778,400987,333697
1101.79,0.079427,403477,336041
1105.43,0.079568,406116,338129
1109.06,0.078842,407701,340016
1112.7,0.077973,409859,342501
1117.53,0.077988,412494,344691
1121.15,0.078882,414909,345996
1124.77,0.078576,416559,347617
1128.38,0.079729,418532,348337
1131.99,0.080605,419956,348818
1135.6,0.082091,421946,349274
1139.2,0.083439,423881,349788
1143.99,0.085230,426786,350736
1147.58,0.086291,428617,351381
1151.17,0.087142,431169,352781
1154.75,0.088330,433579,353784
1158.33,0.089996,436264,354612
1161.91,0.091289,439132,355882
1165.48,0.093992,442389,356297
1169.04,0.095800,446101,357794
1173.79,0.099044,451929,359771
1177.34,0.101261,456026,361184
1180.9,0.103128,461306,363799
1184.44,0.105089,467657,367146
1187.99,0.106312,473969,371055
1191.52,0.106507,479856,375495
1195.06,0.105501,487372,382261
1199.76,0.105031,497347,390507
1203.29,0.104400,504311,396550
1206.81,0.104022,511507,402559
1210.33,0.103445,519078,409061
1213.84,0.103091,527163,415771
1217.35,0.102447,534208,421952
1220.85,0.101523,540472,427809
1225.51,0.101099,549929,435720
1229.01,0.100206,556888,442142
1232.5,0.099788,562180,446773
1235.98,0.098967,567975,452233
1239.46,0.098326,574815,458355
1242.94,0.097547,582782,465542
1246.41,0.096843,591476,473254
1251.03,0.096682,604016,483467
1254.5,0.096775,612289,489984
1257.96,0.097093,619125,495091
1261.41,0.097729,624551,498700
1264.86,0.098340,629900,502264
1268.31,0.098966,634345,505079
1271.75,0.099238,638574,508128
1276.33,0.099942,642499,510423
1279.76,0.099467,645905,513691
1283.19,0.099131,648307,516000
1286.61,0.098773,650446,518130
1290.03,0.097988,652132,520412
1293.44,0.097905,653907,521928
1296.85,0.098032,655963,523416
1301.39,0.097724,657349,524894
1304.8,0.097746,657558,525035
1308.19,0.097954,658515,525547
1311.58,0.097833,658804,525924
1314.97,0.098761,659011,524967
1318.36,0.099394,658272,523614
1321.73,0.099232,658022,523610
1326.23,0.100671,657870,521758
1329.6,0.101712,656482,519411
1332.97,0.102629,654926,517086
1336.33,0.103689,653727,514882
1339.69,0.105565,652497,511698
1343.04,0.107132,649913,507836
1346.39,0.109238,647671,503636
1349.73,0.111069,645338,499710
1354.18,0.114070,641175,493068
1357.52,0.116424,638376,488262
1360.85,0.118265,635805,484238
1364.17,0.120158,633413,480318
1367.49,0.122651,631026,475769
1370.81,0.124275,628050,471758
1374.12,0.127220,625034,466320
1378.54,0.129956,620272,459861
1381.84,0.133326,616892,453819
1385.14,0.137272,613613,447324
1388.43,0.141849,611526,441129
1391.72,0.146738,610663,435576
1395.01,0.152066,610634,430244
1398.29,0.157433,611700,425702
1402.66,0.164696,614051,420251
1405.93,0.170781,616268,415900
1409.2,0.176050,617795,411902
1412.46,0.181802,618872,407192
1415.72,0.186283,619795,403613
1418.98,0.190457,620495,400204
1422.23,0.194869,621087,396537
1426.56,0.198883,621375,393071
1429.8,0.201916,621616,390487
1433.04,0.204268,622129,388698
1436.27,0.207111,621526,385788
1439.5,0.208707,621113,384117
1442.72,0.211442,620921,381588
1445.94,0.213994,620270,378954
1450.23,0.216919,618860,375555
1453.44,0.219478,617697,372647
1456.64,0.222360,616264,369323
1459.85,0.224453,614413,366444
1463.04,0.227136,612307,362939
1466.24,0.230108,610032,359124
1469.43,0.232747,607345,355376
1473.67,0.237801,603789,349208
1476.85,0.242814,601175,343706
1480.02,0.247754,597737,337875
1483.19,0.252847,594479,332116
1486.36,0.257328,591232,326911
1489.52,0.261949,587853,321603
1492.68,0.264169,583875,317798
1496.89,0.266490,578062,312957
1500.03,0.267512,574159,310113
1503.18,0.266661,570285,308625
1506.32,0.265708,565444,306677
1509.45,0.264450,560571,304916
1512.58,0.263477,555821,303011
1515.71,0.261161,550344,301629
1519.87,0.258240,543983,300155
1522.99,0.255196,538764,299366
1526.1,0.252956,533692,298081
1529.21,0.250549,527902,296486
1532.32,0.248159,521886,294725
1535.42,0.244613,515888,293726
1538.51,0.242492,509987,291788
1541.6,0.239518,503936,290307
1545.72,0.234899,494694,288030
1548.8,0.232392,488378,285999
1551.88,0.229269,481832,284202
1554.95,0.227843,474989,281087
1558.02,0.225653,467818,278243
1561.08,0.224800,460730,274566
1564.15,0.223308,454170,271588
1568.22,0.222318,444181,266221
1571.27,0.222209,436947,261951
1574.32,0.221367,429598,258045
1577.36,0.219832,422039,254402
1580.4,0.219160,414375,250169
1583.43,0.217230,406354,246419
1586.46,0.215396,398475,242664
1590.49,0.213652,388982,237836
1593.51,0.212145,380708,233586
1596.53,0.208976,372727,230364
1599.54,0.207198,365060,226551
1602.55,0.205514,357543,222748
1605.55,0.204433,349495,218277
1608.55,0.201001,341154,214758
1612.54,0.198924,330877,209287
1615.53,0.198380,322904,204500
1618.51,0.196753,315116,200317
1621.49,0.195222,307217,195985
1624.47,0.193965,299481,191604
1627.44,0.193645,292112,187027
1630.41,0.192309,284245,182551
1634.36,0.192037,274079,176132
1637.32,0.190276,266916,172226
1640.27,0.189528,259612,167802
1643.22,0.188510,251804,163137
1646.16,0.188736,244348,158224
1649.1,0.187070,236703,153863
1652.04,0.185593,228171,148822
1655.95,0.181656,215408,141777
1658.88,0.178634,204937,135827
1661.8,0.172866,193395,129891
1664.72,0.164400,179728,123088
1667.63,0.154646,163642,114617
1670.54,0.140302,146312,105920
1673.44,0.125192,128451,96282
1677.31,0.105451,105080,82427
1680.21,0.092226,88906,71896
1683.1,0.090271,75033,60951
1685.99,0.092133,63520,51378
1688.87,0.093249,53714,43335
1691.75,0.098034,45653,36428
1694.62,0.104206,39137,30788
1697.49,0.106478,33776,26432
1701.31,0.115672,28175,21587

File: Column 1_050578_20150331_121320.csv
Method:,Column 1,,
Host Date-Time:,31/3/15 @ 12:13:20,,
Header Version:,1,,
System Temp (C):,33.82,,
Detector Temp (C):,34.65,,
Humidity (%):,2.05,,
Lamp PD:,3819,,
Shift Vector Coefficients:,-10.5391,0.0761263,-0.000134223,,
Pixel to Wavelength Coefficients:,1775.68,-0.916766,-0.000235065,,
Serial Number:,5510004,,
Scan Config Name:,Column 1,,
Scan Config Type:,Slew,,
Section 1,,
Start wavelength (nm):,900,,
End wavelength (nm):,1700,,
Pattern Pixel Width (nm):,   7.03,,,,
Exposure (ms):,  0.635,,,,
Digital Resolution:,228,,
Num Repeats:,6,,
PGA Gain:,64,,
Total Measurement Time in sec:,  2.678,,
Wavelength (nm),Absorbance (AU),Reference Signal (unitless),Sample Signal (unitless)
901.51,0.071341,108485,92051
905.376,0.076630,121306,101684
909.237,0.081726,131909,109282
913.095,0.078981,143299,119471
916.948,0.081669,156982,130071
922.079,0.082529,179937,148796
925.923,0.083233,200504,165535
929.762,0.084831,222660,183152
933.597,0.084599,244426,201163
937.427,0.083969,263972,217565
941.254,0.082666,281845,232994
945.076,0.082306,297271,245950
950.165,0.081988,315605,261310
953.978,0.080476,328029,272544
957.786,0.080967,340470,282561
961.59,0.081270,352317,292189
965.389,0.081184,363056,301155
969.185,0.081433,373162,309360
972.976,0.081662,382632,317044
976.763,0.082431,391202,323571
981.806,0.082940,400190,330618
985.583,0.083386,406088,335146
989.355,0.083421,410162,338481
993.124,0.083577,412868,340592
996.888,0.084519,414263,341002
1000.65,0.085482,415476,341243
1004.4,0.086197,415479,340684
1009.41,0.087300,414358,338903
1013.15,0.087570,412923,337520
1016.89,0.088015,411526,336033
1020.63,0.088035,409066,334009
1024.36,0.088776,406777,331574
1028.09,0.088441,404427,329913
1031.82,0.088091,401911,328125
1036.78,0.087382,398410,325798
1040.49,0.087591,396204,323838
1044.2,0.087644,394236,322190
1047.91,0.087427,392042,320557
1051.61,0.086696,389823,319280
1055.31,0.086172,388234,318362
1059,0.085931,387599,318018
1063.92,0.085260,386688,317761
1067.61,0.084641,386598,318140
1071.29,0.084061,387377,319207
1074.96,0.083736,388536,320402
1078.63,0.082896,389855,322112
1082.3,0.082653,391215,323417
1085.96,0.081931,393215,325611
1090.84,0.080802,396270,328995
1094.49,0.080279,398760,331461
1098.14,0.079588,400987,333843
1101.79,0.079366,403477,336088
1105.43,0.079159,406116,338447
1109.06,0.078438,407701,340333
1112.7,0.078079,409859,342417
1117.53,0.077407,412494,345152
1121.15,0.078554,414909,346257
1124.77,0.078703,416559,347515
1128.38,0.079171,418532,348785
1131.99,0.080153,419956,349181
1135.6,0.081991,421946,349354
1139.2,0.083088,423881,350071
1143.99,0.085408,426786,350592
1147.58,0.086274,428617,351395
1151.17,0.087626,431169,352388
1154.75,0.088319,433579,353793
1158.33,0.089657,436264,354889
1161.91,0.091517,439132,355695
1165.48,0.093968,442389,356317
1169.04,0.096177,446101,357484
1173.79,0.099271,451929,359583
1177.34,0.101342,456026,361117
1180.9,0.103458,461306,363522
1184.44,0.104299,467657,367814
1187.99,0.106167,473969,371179
1191.52,0.106356,479856,375625
1195.06,0.105938,487372,381876
1199.76,0.104988,497347,390545
1203.29,0.104118,504311,396808
1206.81,0.104273,511507,402326
1210.33,0.103245,519078,409249
1213.84,0.102734,527163,416113
1217.35,0.102372,534208,422025
1220.85,0.101377,540472,427953
1225.51,0.101107,549929,435712
1229.01,0.100767,556888,441571
1232.5,0.100147,562180,446404
1235.98,0.099327,567975,451858
1239.46,0.098213,574815,458474
1242.94,0.097352,582782,465751
1246.41,0.097104,591476,472969
1251.03,0.096806,604016,483328
1254.5,0.096852,612289,489897
1257.96,0.097111,619125,495071
1261.41,0.097897,624551,498507
1264.86,0.098002,629900,502655
1268.31,0.098684,634345,505407
1271.75,0.099098,638574,508292
1276.33,0.099560,642499,510873
1279.76,0.099863,645905,513223
1283.19,0.098766,648307,516434
1286.61,0.098670,650446,518252
1290.03,0.098381,652132,519941
1293.44,0.098128,653907,521660
1296.85,0.097678,655963,523843
1301.39,0.097534,657349,525124
1304.8,0.097694,657558,525098
1308.19,0.098057,658515,525422
1311.58,0.097789,658804,525977
1314.97,0.098881,659011,524821
1318.36,0.099067,658272,524009
1321.73,0.099432,658022,523370
1326.23,0.100524,657870,521934
1329.6,0.101197,656482,520027
1332.97,0.102186,654926,517614
1336.33,0.103486,653727,515122
1339.69,0.105450,652497,511833
1343.04,0.107031,649913,507954
1346.39,0.109304,647671,503559
1349.73,0.110770,645338,500054
1354.18,0.113887,641175,493275
1357.52,0.115770,638376,488997
1360.85,0.118252,635805,484253
1364.17,0.119972,633413,480524
1367.49,0.122268,631026,476189
1370.81,0.124875,628050,471107
1374.12,0.127117,625034,466430
1378.54,0.130215,620272,459586
1381.84,0.133433,616892,453708
1385.14,0.137323,613613,447272
1388.43,0.141821,611526,441158
1391.72,0.146575,610663,435739
1395.01,0.151330,610634,430974
1398.29,0.156800,611700,426323
1402.66,0.164499,614051,420441
1405.93,0.170758,616268,415922
1409.2,0.176818,617795,411175
1412.46,0.181732,618872,407257
1415.72,0.186480,619795,403430
1418.98,0.190295,620495,400353
1422.23,0.194048,621087,397287
1426.56,0.198701,621375,393236
1429.8,0.201717,621616,390666
1433.04,0.204008,622129,388931
1436.27,0.206472,621526,386356
1439.5,0.208389,621113,384398
1442.72,0.211115,620921,381875
1445.94,0.213463,620270,379418
1450.23,0.216604,618860,375827
1453.44,0.219062,617697,373004
1456.64,0.221544,616264,370018
1459.85,0.224094,614413,366747
1463.04,0.227103,612307,362966
1466.24,0.229569,610032,359570
1469.43,0.232717,607345,355401
1473.67,0.237697,603789,349292
1476.85,0.241993,601175,344356
1480.02,0.247268,597737,338253
1483.19,0.252286,594479,332545
1486.36,0.257530,591232,326759
1489.52,0.261309,587853,322077
1492.68,0.264062,583875,317876
1496.89,0.266029,578062,313289
1500.03,0.266578,574159,310781
1503.18,0.265699,570285,309309
1506.32,0.265602,565444,306752
1509.45,0.263460,560571,305612
1512.58,0.262968,555821,303366
1515.71,0.260351,550344,302192
1519.87,0.257728,543983,300509
1522.99,0.255331,538764,299273
1526.1,0.253331,533692,297824
1529.21,0.250732,527902,296361
1532.32,0.247895,521886,294904
1535.42,0.244289,515888,293945
1538.51,0.242368,509987,291871
1541.6,0.239311,503936,290445
1545.72,0.235284,494694,287775
1548.8,0.232215,488378,286115
1551.88,0.230254,481832,283558
1554.95,0.228084,474989,280931
1558.02,0.226227,467818,277875
1561.08,0.224680,460730,274642
1564.15,0.223796,454170,271283
1568.22,0.222306,444181,266228
1571.27,0.222386,436947,261844
1574.32,0.221478,429598,257979
1577.36,0.219769,422039,254439
1580.4,0.218588,414375,250499
1583.43,0.217051,406354,246521
1586.46,0.214772,398475,243013
1590.49,0.213595,388982,237867
1593.51,0.210634,380708,234400
1596.53,0.209035,372727,230333
1599.54,0.207068,365060,226619
1602.55,0.204942,357543,223042
1605.55,0.203290,349495,218852
1608.55,0.200643,341154,214935
1612.54,0.199001,330877,209250
1615.53,0.198053,322904,204654
1618.51,0.196644,315116,200367
1621.49,0.195841,307217,195706
1624.47,0.193811,299481,191672
1627.44,0.193132,292112,187248
1630.41,0.191931,284245,182710
1634.36,0.190806,274079,176632
1637.32,0.189296,266916,172615
1640.27,0.189070,259612,167979
1643.22,0.188872,251804,163001
1646.16,0.187799,244348,158566
1649.1,0.187442,236703,153731
1652.04,0.184672,228171,149138
1655.95,0.181380,215408,141867
1658.88,0.178711,204937,135803
1661.8,0.171554,193395,130284
1664.72,0.165814,179728,122688
1667.63,0.153001,163642,115052
1670.54,0.138571,146312,106343
1673.44,0.123652,128451,96624
1677.31,0.104519,105080,82604
1680.21,0.093854,88906,71627
1683.1,0.088295,75033,61229
1685.99,0.089437,63520,51698
1688.87,0.093710,53714,43289
1691.75,0.101854,45653,36109
1694.62,0.100344,39137,31063
1697.49,0.106823,33776,26411
1701.31,0.116880,28175,21527

File: Column 1_050578_20150331_121323.csv
Method:,Column 1,,
Host Date-Time:,31/3/15 @ 12:13:23,,
Header Version:,1,,
System Temp (C):,33.81,,
Detector Temp (C):,34.64,,
Humidity (%):,2.05,,
Lamp PD:,3819,,
Shift Vector Coefficients:,-10.5391,0.0761263,-0.000134223,,
Pixel to Wavelength Coefficients:,1775.68,-0.916766,-0.000235065,,
Serial Number:,5510004,,
Scan Config Name:,Column 1,,
Scan Config Type:,Slew,,
Section 1,,
Start wavelength (nm):,900,,
End wavelength (nm):,1700,,
Pattern Pixel Width (nm):,   7.03,,,,
Exposure (ms):,  0.635,,,,
Digital Resolution:,228,,
Num Repeats:,6,,
PGA Gain:,64,,
Total Measurement Time in sec:,  2.675,,
Wavelength (nm),Absorbance (AU),Reference Signal (unitless),Sample Signal (unitless)
901.51,0.071681,108485,91979
905.376,0.078453,121306,101258
909.237,0.080535,131909,109582
913.095,0.080846,143299,118959
916.948,0.080742,156982,130349
922.079,0.082357,179937,148855
925.923,0.084489,200504,165057
929.762,0.085087,222660,183044
933.597,0.083935,244426,201471
937.427,0.084013,263972,217543
941.254,0.083025,281845,232801
945.076,0.082682,297271,245737
950.165,0.081823,315605,261409
953.978,0.079828,328029,272951
957.786,0.080982,340470,282551
961.59,0.081194,352317,292240
965.389,0.080377,363056,301715
969.185,0.081272,373162,309475
972.976,0.081865,382632,316896
976.763,0.082201,391202,323743
981.806,0.082324,400190,331087
985.583,0.083190,406088,335297
989.355,0.083152,410162,338691
993.124,0.084136,412868,340154
996.888,0.084358,414263,341129
1000.65,0.084703,415476,341856
1004.4,0.086072,415479,340782
1009.41,0.087473,414358,338768
1013.15,0.087782,412923,337355
1016.89,0.088754,411526,335462
1020.63,0.088170,409066,333905
1024.36,0.088565,406777,331735
1028.09,0.088503,404427,329866
1031.82,0.088092,401911,328124
1036.78,0.088193,398410,325190
1040.49,0.087293,396204,324060
1044.2,0.087756,394236,322107
1047.91,0.087496,392042,320506
1051.61,0.086746,389823,319243
1055.31,0.086477,388234,318139
1059,0.085770,387599,318136
1063.92,0.085144,386688,317846
1067.61,0.084614,386598,318160
1071.29,0.084139,387377,319150
1074.96,0.083839,388536,320326
1078.63,0.083382,389855,321752
1082.3,0.082596,391215,323459
1085.96,0.081915,393215,325623
1090.84,0.080790,396270,329004
1094.49,0.080212,398760,331512
1098.14,0.079471,400987,333933
1101.79,0.079315,403477,336127
1105.43,0.079236,406116,338387
1109.06,0.078302,407701,340439
1112.7,0.078158,409859,342355
1117.53,0.077609,412494,344992
1121.15,0.078461,414909,346331
1124.77,0.078628,416559,347575
1128.38,0.079341,418532,348648
1131.99,0.080404,419956,348979
1135.6,0.082545,421946,348909
1139.2,0.083476,423881,349758
1143.99,0.085359,426786,350632
1147.58,0.086533,428617,351185
1151.17,0.087161,431169,352766
1154.75,0.088593,433579,353570
1158.33,0.090007,436264,354603
1161.91,0.091305,439132,355869
1165.48,0.093795,442389,356459
1169.04,0.096121,446101,357530
1173.79,0.099429,451929,359452
1177.34,0.101366,456026,361097
1180.9,0.103678,461306,363338
1184.44,0.105148,467657,367096
1187.99,0.105931,473969,371380
1191.52,0.106190,479856,375769
1195.06,0.105860,487372,381945
1199.76,0.105198,497347,390357
1203.29,0.104478,504311,396479
1206.81,0.103862,511507,402707
1210.33,0.103137,519078,409351
1213.84,0.102834,527163,416017
1217.35,0.102271,534208,422123
1220.85,0.101484,540472,427848
1225.51,0.100309,549929,436513
1229.01,0.100096,556888,442254
1232.5,0.099701,562180,446863
1235.98,0.099269,567975,451919
1239.46,0.098334,574815,458347
1242.94,0.097194,582782,465921
1246.41,0.096789,591476,473313
1251.03,0.096644,604016,483509
1254.5,0.096810,612289,489944
1257.96,0.097201,619125,494968
1261.41,0.097561,624551,498892
1264.86,0.098083,629900,502561
1268.31,0.098667,634345,505427
1271.75,0.099613,638574,507690
1276.33,0.099671,642499,510742
1279.76,0.099251,645905,513946
1283.19,0.098897,648307,516278
1286.61,0.098793,650446,518106
1290.03,0.098473,652132,519831
1293.44,0.097383,653907,522556
1296.85,0.097432,655963,524140
1301.39,0.097341,657349,525357
1304.8,0.097647,657558,525154
1308.19,0.098017,658515,525471
1311.58,0.098024,658804,525693
1314.97,0.098840,659011,524871
1318.36,0.098876,658272,524239
1321.73,0.099506,658022,523280
1326.23,0.100243,657870,522273
1329.6,0.101316,656482,519885
1332.97,0.102437,654926,517315
1336.33,0.103671,653727,514903
1339.69,0.105335,652497,511969
1343.04,0.106539,649913,508530
1346.39,0.108790,647671,504155
1349.73,0.110876,645338,499932
1354.18,0.113799,641175,493376
1357.52,0.116263,638376,488443
1360.85,0.117702,635805,484866
1364.17,0.120118,633413,480362
1367.49,0.122308,631026,476145
1370.81,0.124554,628050,471455
1374.12,0.126588,625034,466999
1378.54,0.129884,620272,459937
1381.84,0.133496,616892,453642
1385.14,0.137584,613613,447003
1388.43,0.141552,611526,441431
1391.72,0.146643,610663,435671
1395.01,0.151595,610634,430711
1398.29,0.157558,611700,425579
1402.66,0.164576,614051,420367
1405.93,0.170949,616268,415739
1409.2,0.176159,617795,411799
1412.46,0.181499,618872,407476
1415.72,0.186642,619795,403279
1418.98,0.190268,620495,400378
1422.23,0.194233,621087,397118
1426.56,0.198593,621375,393333
1429.8,0.201126,621616,391198
1433.04,0.203855,622129,389068
1436.27,0.206500,621526,386331
1439.5,0.208072,621113,384679
1442.72,0.211073,620921,381912
1445.94,0.213021,620270,379804
1450.23,0.216125,618860,376242
1453.44,0.219212,617697,372875
1456.64,0.221914,616264,369703
1459.85,0.224641,614413,366285
1463.04,0.226397,612307,363557
1466.24,0.229331,610032,359767
1469.43,0.232700,607345,355415
1473.67,0.237854,603789,349165
1476.85,0.242262,601175,344143
1480.02,0.246885,597737,338552
1483.19,0.252760,594479,332182
1486.36,0.257865,591232,326507
1489.52,0.261008,587853,322300
1492.68,0.264143,583875,317817
1496.89,0.265590,578062,313606
1500.03,0.266564,574159,310791
1503.18,0.266181,570285,308966
1506.32,0.265424,565444,306878
1509.45,0.264764,560571,304696
1512.58,0.262469,555821,303715
1515.71,0.260104,550344,302364
1519.87,0.258050,543983,300286
1522.99,0.254723,538764,299692
1526.1,0.252814,533692,298179
1529.21,0.250498,527902,296521
1532.32,0.247564,521886,295129
1535.42,0.244450,515888,293836
1538.51,0.241098,509987,292726
1541.6,0.238466,503936,291011
1545.72,0.235092,494694,287902
1548.8,0.231974,488378,286274
1551.88,0.229464,481832,284074
1554.95,0.228532,474989,280641
1558.02,0.226489,467818,277708
1561.08,0.224520,460730,274743
1564.15,0.223767,454170,271301
1568.22,0.222265,444181,266253
1571.27,0.221882,436947,262148
1574.32,0.221515,429598,257957
1577.36,0.219829,422039,254404
1580.4,0.218496,414375,250552
1583.43,0.216468,406354,246852
1586.46,0.215226,398475,242759
1590.49,0.212709,388982,238353
1593.51,0.210766,380708,234329
1596.53,0.208867,372727,230422
1599.54,0.206993,365060,226658
1602.55,0.206365,357543,222312
1605.55,0.203082,349495,218957
1608.55,0.200379,341154,215066
1612.54,0.198060,330877,209704
1615.53,0.197659,322904,204840
1618.51,0.196698,315116,200342
1621.49,0.196139,307217,195572
1624.47,0.193652,299481,191742
1627.44,0.192416,292112,187557
1630.41,0.192030,284245,182668
1634.36,0.190696,274079,176677
1637.32,0.189364,266916,172588
1640.27,0.188703,259612,168121
1643.22,0.189849,251804,162635
1646.16,0.188764,244348,158214
1649.1,0.186957,236703,153903
1652.04,0.184270,228171,149276
1655.95,0.181821,215408,141723
1658.88,0.183606,204937,134281
1661.8,0.173127,193395,129813
1664.72,0.165538,179728,122766
1667.63,0.153499,163642,114920
1670.54,0.139925,146312,106012
1673.44,0.123985,128451,96550
1677.31,0.103102,105080,82874
1680.21,0.092692,88906,71819
1683.1,0.087827,75033,61295
1685.99,0.092683,63520,51313
1688.87,0.090472,53714,43613
1691.75,0.097843,45653,36444
1694.62,0.101759,39137,30962
1697.49,0.109198,33776,26267
1701.31,0.109241,28175,21909