Folder: textile_sorting_NIRSCAN_/samples/wool/wool-000811 (part 77)

File: Column 1_050572_20150331_121012.csv
Method:,Column 1,,
Host Date-Time:,31/3/15 @ 12:10:12,,
Header Version:,1,,
System Temp (C):,34.11,,
Detector Temp (C):,34.22,,
Humidity (%):,1.76,,
Lamp PD:,3818,,
Shift Vector Coefficients:,-10.5391,0.0761263,-0.000134223,,
Pixel to Wavelength Coefficients:,1775.68,-0.916766,-0.000235065,,
Serial Number:,5510004,,
Scan Config Name:,Column 1,,
Scan Config Type:,Slew,,
Section 1,,
Start wavelength (nm):,900,,
End wavelength (nm):,1700,,
Pattern Pixel Width (nm):,   7.03,,,,
Exposure (ms):,  0.635,,,,
Digital Resolution:,228,,
Num Repeats:,6,,
PGA Gain:,64,,
Total Measurement Time in sec:,  2.735,,
Wavelength (nm),Absorbance (AU),Reference Signal (unitless),Sample Signal (unitless)
901.51,0.034394,108485,100225
905.376,0.040206,121306,110580
909.237,0.043150,131909,119433
913.095,0.044165,143299,129443
916.948,0.045542,156982,141354
922.079,0.047306,179937,161367
925.923,0.048661,200504,179251
929.762,0.050455,222660,198238
933.597,0.050303,244426,217693
937.427,0.049123,263972,235741
941.254,0.048033,281845,252335
945.076,0.047548,297271,266443
950.165,0.047114,315605,283159
953.978,0.046397,328029,294792
957.786,0.047112,340470,305469
961.59,0.047050,352317,316143
965.389,0.046663,363056,326070
969.185,0.047471,373162,334523
972.976,0.047501,382632,342989
976.763,0.047920,391202,350333
981.806,0.049294,400190,357250
985.583,0.049362,406088,362458
989.355,0.049752,410162,365766
993.124,0.050658,412868,367412
996.888,0.050902,414263,368446
1000.65,0.051569,415476,368958
1004.4,0.052895,415479,367836
1009.41,0.053812,414358,366070
1013.15,0.054941,412923,363855
1016.89,0.054682,411526,362840
1020.63,0.055326,409066,360137
1024.36,0.055112,406777,358298
1028.09,0.054751,404427,356524
1031.82,0.054743,401911,354313
1036.78,0.054117,398410,351733
1040.49,0.053881,396204,349976
1044.2,0.053572,394236,348485
1047.91,0.053411,392042,346674
1051.61,0.052279,389823,345612
1055.31,0.051930,388234,344480
1059,0.051509,387599,344250
1063.92,0.050189,386688,344486
1067.61,0.049646,386598,344837
1071.29,0.049271,387377,345830
1074.96,0.048746,388536,347284
1078.63,0.048165,389855,348930
1082.3,0.046813,391215,351239
1085.96,0.046308,393215,353445
1090.84,0.045829,396270,356584
1094.49,0.045739,398760,358899
1098.14,0.045083,400987,361449
1101.79,0.044225,403477,364413
1105.43,0.045034,406116,366114
1109.06,0.044006,407701,368414
1112.7,0.044313,409859,370102
1117.53,0.044134,412494,372635
1121.15,0.045444,414909,373688
1124.77,0.045770,416559,374892
1128.38,0.047019,418532,375586
1131.99,0.047656,419956,376312
1135.6,0.050793,421946,375374
1139.2,0.051635,423881,376365
1143.99,0.054039,426786,376852
1147.58,0.055081,428617,377562
1151.17,0.056168,431169,378861
1154.75,0.057779,433579,379568
1158.33,0.059202,436264,380669
1161.91,0.061164,439132,381444
1165.48,0.064152,442389,381639
1169.04,0.066148,446101,383076
1173.79,0.070074,451929,384588
1177.34,0.072679,456026,385754
1180.9,0.074949,461306,388186
1184.44,0.076718,467657,391931
1187.99,0.077775,473969,396255
1191.52,0.077013,479856,401881
1195.06,0.077204,487372,407997
1199.76,0.076509,497347,417014
1203.29,0.074977,504311,424347
1206.81,0.074383,511507,430991
1210.33,0.073440,519078,438321
1213.84,0.073080,527163,445518
1217.35,0.072562,534208,452010
1220.85,0.071401,540472,458535
1225.51,0.070261,549929,467784
1229.01,0.069285,556888,474770
1232.5,0.068942,562180,479660
1235.98,0.068531,567975,485063
1239.46,0.067673,574815,491875
1242.94,0.066311,582782,500259
1246.41,0.065762,591476,508364
1251.03,0.065773,604016,519129
1254.5,0.066001,612289,525963
1257.96,0.066399,619125,531348
1261.41,0.066984,624551,535283
1264.86,0.067788,629900,538869
1268.31,0.068032,634345,542367
1271.75,0.068560,638574,545320
1276.33,0.068729,642499,548458
1279.76,0.068703,645905,551398
1283.19,0.068326,648307,553930
1286.61,0.068189,650446,555933
1290.03,0.067821,652132,557846
1293.44,0.067265,653907,560081
1296.85,0.066853,655963,562375
1301.39,0.066785,657349,563652
1304.8,0.066823,657558,563782
1308.19,0.067273,658515,564017
1311.58,0.067460,658804,564022
1314.97,0.067734,659011,563844
1318.36,0.067980,658272,562893
1321.73,0.068510,658022,561993
1326.23,0.069790,657870,560209
1329.6,0.070218,656482,558477
1332.97,0.071382,654926,555661
1336.33,0.072456,653727,553274
1339.69,0.074060,652497,550197
1343.04,0.075694,649913,545961
1346.39,0.077969,647671,541235
1349.73,0.079908,645338,536882
1354.18,0.083159,641175,529441
1357.52,0.085037,638376,524855
1360.85,0.087657,635805,519597
1364.17,0.089725,633413,515184
1367.49,0.092653,631026,509794
1370.81,0.094837,628050,504844
1374.12,0.097397,625034,499467
1378.54,0.100634,620272,491981
1381.84,0.103890,616892,485645
1385.14,0.107825,613613,478707
1388.43,0.111669,611526,472874
1391.72,0.116424,610663,467065
1395.01,0.121221,610634,461913
1398.29,0.126586,611700,457038
1402.66,0.133099,614051,451966
1405.93,0.138972,616268,447505
1409.2,0.144293,617795,443151
1412.46,0.148954,618872,439184
1415.72,0.153382,619795,435378
1418.98,0.157848,620495,431410
1422.23,0.160981,621087,428718
1426.56,0.165358,621375,424615
1429.8,0.168005,621616,422199
1433.04,0.171264,622129,419388
1436.27,0.173385,621526,416941
1439.5,0.175536,621113,414605
1442.72,0.177919,620921,412209
1445.94,0.180496,620270,409341
1450.23,0.183914,618860,405208
1453.44,0.187092,617697,401498
1456.64,0.190636,616264,397311
1459.85,0.193170,614413,393813
1463.04,0.196056,612307,389864
1466.24,0.199352,610032,385479
1469.43,0.203032,607345,380543
1473.67,0.208975,603789,373173
1476.85,0.215124,601175,366334
1480.02,0.221379,597737,359030
1483.19,0.228764,594479,351053
1486.36,0.235184,591232,344012
1489.52,0.240125,587853,338177
1492.68,0.243882,583875,332995
1496.89,0.246604,578062,327620
1500.03,0.247122,574159,325020
1503.18,0.247004,570285,322915
1506.32,0.246432,565444,320596
1509.45,0.244818,560571,319016
1512.58,0.243339,555821,317392
1515.71,0.240707,550344,316175
1519.87,0.237712,543983,314683
1522.99,0.234697,538764,313835
1526.1,0.232791,533692,312248
1529.21,0.229186,527902,311435
1532.32,0.226713,521886,309644
1535.42,0.222371,515888,309161
1538.51,0.219971,509987,307318
1541.6,0.216046,503936,306429
1545.72,0.211933,494694,303671
1548.8,0.208779,488378,301979
1551.88,0.205744,481832,300021
1554.95,0.203788,474989,297095
1558.02,0.202248,467818,293649
1561.08,0.200956,460730,290062
1564.15,0.200282,454170,286376
1568.22,0.198549,444181,281197
1571.27,0.198968,436947,276351
1574.32,0.198003,429598,272307
1577.36,0.196342,422039,268541
1580.4,0.194605,414375,264721
1583.43,0.192928,406354,260601
1586.46,0.191403,398475,256447
1590.49,0.189371,388982,251512
1593.51,0.186820,380708,247612
1596.53,0.184455,372727,243745
1599.54,0.183291,365060,239372
1602.55,0.180481,357543,235965
1605.55,0.178639,349495,231634
1608.55,0.176332,341154,227310
1612.54,0.173310,330877,222002
1615.53,0.171496,322904,217559
1618.51,0.171398,315116,212360
1621.49,0.169745,307217,207826
1624.47,0.168636,299481,203111
1627.44,0.167255,292112,198744
1630.41,0.166200,284245,193862
1634.36,0.163725,274079,187997
1637.32,0.163124,266916,183337
1640.27,0.163164,259612,178304
1643.22,0.160299,251804,174086
1646.16,0.160739,244348,168760
1649.1,0.160420,236703,163600
1652.04,0.157599,228171,158731
1655.95,0.156418,215408,150260
1658.88,0.152854,204937,144134
1661.8,0.148743,193395,137310
1664.72,0.141221,179728,129836
1667.63,0.130145,163642,121269
1670.54,0.117433,146312,111647
1673.44,0.101681,128451,101638
1677.31,0.086461,105080,86111
1680.21,0.075610,88906,74700
1683.1,0.073410,75033,63364
1685.99,0.076795,63520,53225
1688.87,0.078800,53714,44801
1691.75,0.087644,45653,37310
1694.62,0.086719,39137,32053
1697.49,0.096585,33776,27041
1701.31,0.100800,28175,22339

File: Column 1_050572_20150331_121020.csv
Method:,Column 1,,
Host Date-Time:,31/3/15 @ 12:10:20,,
Header Version:,1,,
System Temp (C):,34.14,,
Detector Temp (C):,34.3,,
Humidity (%):,1.76,,
Lamp PD:,3818,,
Shift Vector Coefficients:,-10.5391,0.0761263,-0.000134223,,
Pixel to Wavelength Coefficients:,1775.68,-0.916766,-0.000235065,,
Serial Number:,5510004,,
Scan Config Name:,Column 1,,
Scan Config Type:,Slew,,
Section 1,,
Start wavelength (nm):,900,,
End wavelength (nm):,1700,,
Pattern Pixel Width (nm):,   7.03,,,,
Exposure (ms):,  0.635,,,,
Digital Resolution:,228,,
Num Repeats:,6,,
PGA Gain:,64,,
Total Measurement Time in sec:,  2.678,,
Wavelength (nm),Absorbance (AU),Reference Signal (unitless),Sample Signal (unitless)
901.51,0.034949,108485,100097
905.376,0.040701,121306,110454
909.237,0.043685,131909,119286
913.095,0.043628,143299,129603
916.948,0.045247,156982,141450
922.079,0.046593,179937,161632
925.923,0.048109,200504,179479
929.762,0.050122,222660,198390
933.597,0.049671,244426,218010
937.427,0.048350,263972,236161
941.254,0.048441,281845,252098
945.076,0.047441,297271,266509
950.165,0.047084,315605,283178
953.978,0.046316,328029,294847
957.786,0.046366,340470,305994
961.59,0.046840,352317,316296
965.389,0.046586,363056,326128
969.185,0.047060,373162,334840
972.976,0.048043,382632,342561
976.763,0.048290,391202,350035
981.806,0.048559,400190,357855
985.583,0.049243,406088,362558
989.355,0.049701,410162,365809
993.124,0.050295,412868,367719
996.888,0.050538,414263,368755
1000.65,0.051428,415476,369078
1004.4,0.052846,415479,367877
1009.41,0.054231,414358,365717
1013.15,0.054560,412923,364174
1016.89,0.055113,411526,362480
1020.63,0.054907,409066,360484
1024.36,0.055093,406777,358314
1028.09,0.054697,404427,356569
1031.82,0.054030,401911,354895
1036.78,0.053876,398410,351928
1040.49,0.053489,396204,350292
1044.2,0.053264,394236,348732
1047.91,0.052518,392042,347388
1051.61,0.052281,389823,345610
1055.31,0.052295,388234,344190
1059,0.051540,387599,344225
1063.92,0.050217,386688,344464
1067.61,0.049558,386598,344907
1071.29,0.049272,387377,345829
1074.96,0.048663,388536,347351
1078.63,0.048266,389855,348849
1082.3,0.046826,391215,351228
1085.96,0.046440,393215,353338
1090.84,0.045278,396270,357037
1094.49,0.045251,398760,359303
1098.14,0.045123,400987,361416
1101.79,0.044444,403477,364229
1105.43,0.045030,406116,366117
1109.06,0.044344,407701,368127
1112.7,0.043742,409859,370589
1117.53,0.044193,412494,372584
1121.15,0.044557,414909,374452
1124.77,0.045501,416559,375125
1128.38,0.046503,418532,376033
1131.99,0.047313,419956,376609
1135.6,0.049912,421946,376136
1139.2,0.051303,423881,376653
1143.99,0.054057,426786,376837
1147.58,0.054782,428617,377822
1151.17,0.056343,431169,378708
1154.75,0.057023,433579,380229
1158.33,0.059083,436264,380773
1161.91,0.061488,439132,381160
1165.48,0.063459,442389,382248
1169.04,0.066000,446101,383207
1173.79,0.070356,451929,384339
1177.34,0.072534,456026,385883
1180.9,0.074626,461306,388475
1184.44,0.076438,467657,392184
1187.99,0.077534,473969,396475
1191.52,0.077052,479856,401845
1195.06,0.076938,487372,408247
1199.76,0.075998,497347,417505
1203.29,0.074998,504311,424327
1206.81,0.074366,511507,431008
1210.33,0.073321,519078,438441
1213.84,0.072706,527163,445902
1217.35,0.071901,534208,452699
1220.85,0.071278,540472,458665
1225.51,0.069783,549929,468299
1229.01,0.069651,556888,474370
1232.5,0.068868,562180,479742
1235.98,0.068357,567975,485258
1239.46,0.067442,574815,492137
1242.94,0.066576,582782,499954
1246.41,0.065652,591476,508493
1251.03,0.065476,604016,519484
1254.5,0.065971,612289,526000
1257.96,0.066238,619125,531545
1261.41,0.066725,624551,535603
1264.86,0.067202,629900,539597
1268.31,0.067874,634345,542565
1271.75,0.068950,638574,544830
1276.33,0.068959,642499,548168
1279.76,0.069173,645905,550802
1283.19,0.068482,648307,553731
1286.61,0.067948,650446,556241
1290.03,0.067815,652132,557854
1293.44,0.066810,653907,560668
1296.85,0.067235,655963,561881
1301.39,0.067019,657349,563348
1304.8,0.067062,657558,563472
1308.19,0.067013,658515,564355
1311.58,0.067501,658804,563969
1314.97,0.067692,659011,563898
1318.36,0.067605,658272,563379
1321.73,0.068513,658022,561989
1326.23,0.069087,657870,561116
1329.6,0.070214,656482,558481
1332.97,0.071006,654926,556143
1336.33,0.072543,653727,553164
1339.69,0.073925,652497,550368
1343.04,0.075786,649913,545845
1346.39,0.077662,647671,541617
1349.73,0.079840,645338,536966
1354.18,0.083204,641175,529386
1357.52,0.085410,638376,524405
1360.85,0.087446,635805,519850
1364.17,0.089698,633413,515216
1367.49,0.092335,631026,510167
1370.81,0.094689,628050,505016
1374.12,0.097338,625034,499535
1378.54,0.100551,620272,492075
1381.84,0.103689,616892,485870
1385.14,0.107100,613613,479507
1388.43,0.111643,611526,472903
1391.72,0.116314,610663,467184
1395.01,0.120798,610634,462363
1398.29,0.126126,611700,457523
1402.66,0.133079,614051,451986
1405.93,0.138859,616268,447621
1409.2,0.144015,617795,443434
1412.46,0.149100,618872,439037
1415.72,0.153387,619795,435373
1418.98,0.157622,620495,431635
1422.23,0.161028,621087,428671
1426.56,0.165376,621375,424598
1429.8,0.167868,621616,422332
1433.04,0.170409,622129,420215
1436.27,0.173070,621526,417243
1439.5,0.175292,621113,414838
1442.72,0.177337,620921,412762
1445.94,0.180317,620270,409509
1450.23,0.183543,618860,405555
1453.44,0.186977,617697,401604
1456.64,0.189562,616264,398295
1459.85,0.193113,614413,393865
1463.04,0.195730,612307,390157
1466.24,0.199235,610032,385583
1469.43,0.203396,607345,380224
1473.67,0.209409,603789,372800
1476.85,0.215439,601175,366068
1480.02,0.221665,597737,358794
1483.19,0.228873,594479,350965
1486.36,0.234356,591232,344669
1489.52,0.240202,587853,338117
1492.68,0.242991,583875,333679
1496.89,0.246698,578062,327549
1500.03,0.247756,574159,324546
1503.18,0.246696,570285,323144
1506.32,0.246391,565444,320626
1509.45,0.245404,560571,318586
1512.58,0.242938,555821,317685
1515.71,0.241067,550344,315913
1519.87,0.237108,543983,315121
1522.99,0.234472,538764,313998
1526.1,0.232370,533692,312551
1529.21,0.229533,527902,311186
1532.32,0.226442,521886,309837
1535.42,0.222670,515888,308948
1538.51,0.219563,509987,307607
1541.6,0.216237,503936,306294
1545.72,0.211470,494694,303995
1548.8,0.208873,488378,301914
1551.88,0.206029,481832,299824
1554.95,0.203902,474989,297017
1558.02,0.202660,467818,293371
1561.08,0.200999,460730,290033
1564.15,0.200528,454170,286214
1568.22,0.199655,444181,280482
1571.27,0.198583,436947,276596
1574.32,0.197204,429598,272809
1577.36,0.195943,422039,268788
1580.4,0.194600,414375,264724
1583.43,0.193652,406354,260167
1586.46,0.191385,398475,256458
1590.49,0.188989,388982,251733
1593.51,0.186954,380708,247536
1596.53,0.184708,372727,243603
1599.54,0.182403,365060,239862
1602.55,0.180264,357543,236083
1605.55,0.178183,349495,231877
1608.55,0.176259,341154,227348
1612.54,0.173740,330877,221782
1615.53,0.172012,322904,217301
1618.51,0.170789,315116,212658
1621.49,0.169597,307217,207897
1624.47,0.167916,299481,203448
1627.44,0.166443,292112,199116
1630.41,0.165249,284245,194287
1634.36,0.164180,274079,187800
1637.32,0.163461,266916,183195
1640.27,0.163327,259612,178237
1643.22,0.161583,251804,173572
1646.16,0.160729,244348,168764
1649.1,0.160078,236703,163729
1652.04,0.158670,228171,158340
1655.95,0.154740,215408,150842
1658.88,0.150318,204937,144978
1661.8,0.147278,193395,137774
1664.72,0.141562,179728,129734
1667.63,0.130324,163642,121219
1670.54,0.120356,146312,110898
1673.44,0.103072,128451,101313
1677.31,0.085978,105080,86207
1680.21,0.077125,88906,74440
1683.1,0.074384,75033,63222
1685.99,0.077342,63520,53158
1688.87,0.081610,53714,44512
1691.75,0.079297,45653,38034
1694.62,0.092900,39137,31600
1697.49,0.087479,33776,27614
1701.31,0.110512,28175,21845

File: Column 1_050572_20150331_121032.csv
Method:,Column 1,,
Host Date-Time:,31/3/15 @ 12:10:32,,
Header Version:,1,,
System Temp (C):,34.15,,
Detector Temp (C):,34.23,,
Humidity (%):,1.76,,
Lamp PD:,3818,,
Shift Vector Coefficients:,-10.5391,0.0761263,-0.000134223,,
Pixel to Wavelength Coefficients:,1775.68,-0.916766,-0.000235065,,
Serial Number:,5510004,,
Scan Config Name:,Column 1,,
Scan Config Type:,Slew,,
Section 1,,
Start wavelength (nm):,900,,
End wavelength (nm):,1700,,
Pattern Pixel Width (nm):,   7.03,,,,
Exposure (ms):,  0.635,,,,
Digital Resolution:,228,,
Num Repeats:,6,,
PGA Gain:,64,,
Total Measurement Time in sec:,  2.683,,
Wavelength (nm),Absorbance (AU),Reference Signal (unitless),Sample Signal (unitless)
901.51,0.035040,108485,100076
905.376,0.040984,121306,110382
909.237,0.045615,131909,118757
913.095,0.044762,143299,129265
916.948,0.045572,156982,141344
922.079,0.046365,179937,161717
925.923,0.048598,200504,179277
929.762,0.049261,222660,198784
933.597,0.049725,244426,217983
937.427,0.048740,263972,235949
941.254,0.048422,281845,252109
945.076,0.047811,297271,266282
950.165,0.046602,315605,283493
953.978,0.046700,328029,294586
957.786,0.046666,340470,305783
961.59,0.046515,352317,316533
965.389,0.047468,363056,325466
969.185,0.047465,373162,334528
972.976,0.047752,382632,342791
976.763,0.048309,391202,350019
981.806,0.048462,400190,357935
985.583,0.049660,406088,362210
989.355,0.049842,410162,365690
993.124,0.050044,412868,367932
996.888,0.050997,414263,368366
1000.65,0.051628,415476,368908
1004.4,0.052884,415479,367845
1009.41,0.054298,414358,365660
1013.15,0.054497,412923,364227
1016.89,0.055324,411526,362304
1020.63,0.055105,409066,360320
1024.36,0.054773,406777,358578
1028.09,0.054945,404427,356365
1031.82,0.054576,401911,354449
1036.78,0.054205,398410,351662
1040.49,0.053449,396204,350324
1044.2,0.053792,394236,348309
1047.91,0.053053,392042,346960
1051.61,0.052544,389823,345401
1055.31,0.051767,388234,344609
1059,0.050875,387599,344753
1063.92,0.050446,386688,344282
1067.61,0.050033,386598,344530
1071.29,0.048967,387377,346072
1074.96,0.048744,388536,347286
1078.63,0.047887,389855,349153
1082.3,0.046987,391215,351098
1085.96,0.046087,393215,353625
1090.84,0.046006,396270,356439
1094.49,0.045451,398760,359137
1098.14,0.045135,400987,361406
1101.79,0.044549,403477,364141
1105.43,0.044955,406116,366180
1109.06,0.043809,407701,368581
1112.7,0.044007,409859,370363
1117.53,0.044466,412494,372350
1121.15,0.044455,414909,374540
1124.77,0.044782,416559,375746
1128.38,0.046735,418532,375832
1131.99,0.047753,419956,376228
1135.6,0.049997,421946,376062
1139.2,0.052374,423881,375725
1143.99,0.054301,426786,376625
1147.58,0.054998,428617,377634
1151.17,0.056001,431169,379006
1154.75,0.057192,433579,380081
1158.33,0.058971,436264,380871
1161.91,0.061002,439132,381587
1165.48,0.063802,442389,381946
1169.04,0.066080,446101,383136
1173.79,0.069962,451929,384688
1177.34,0.072225,456026,386158
1180.9,0.074682,461306,388425
1184.44,0.076985,467657,391690
1187.99,0.077102,473969,396870
1191.52,0.077397,479856,401526
1195.06,0.076666,487372,408502
1199.76,0.075698,497347,417793
1203.29,0.075351,504311,423982
1206.81,0.074964,511507,430415
1210.33,0.073625,519078,438135
1213.84,0.072856,527163,445748
1217.35,0.072175,534208,452413
1220.85,0.070868,540472,459098
1225.51,0.070158,549929,467895
1229.01,0.069826,556888,474178
1232.5,0.068970,562180,479629
1235.98,0.068687,567975,484889
1239.46,0.067502,574815,492069
1242.94,0.066033,582782,500580
1246.41,0.065951,591476,508143
1251.03,0.065714,604016,519200
1254.5,0.065587,612289,526465
1257.96,0.066011,619125,531823
1261.41,0.066778,624551,535537
1264.86,0.067394,629900,539359
1268.31,0.068043,634345,542354
1271.75,0.068725,638574,545113
1276.33,0.069326,642499,547705
1279.76,0.068859,645905,551200
1283.19,0.068472,648307,553744
1286.61,0.068149,650446,555984
1290.03,0.067904,652132,557740
1293.44,0.067242,653907,560111
1296.85,0.067359,655963,561721
1301.39,0.067040,657349,563321
1304.8,0.066840,657558,563760
1308.19,0.067133,658515,564200
1311.58,0.067166,658804,564404
1314.97,0.067647,659011,563956
1318.36,0.068012,658272,562851
1321.73,0.068401,658022,562133
1326.23,0.069678,657870,560353
1329.6,0.070181,656482,558524
1332.97,0.071269,654926,555806
1336.33,0.072534,653727,553175
1339.69,0.074018,652497,550251
1343.04,0.075617,649913,546057
1346.39,0.077535,647671,541776
1349.73,0.079896,645338,536897
1354.18,0.083423,641175,529119
1357.52,0.085579,638376,524201
1360.85,0.087751,635805,519485
1364.17,0.089946,633413,514922
1367.49,0.092093,631026,510451
1370.81,0.094484,628050,505254
1374.12,0.097095,625034,499814
1378.54,0.100351,620272,492301
1381.84,0.103770,616892,485779
1385.14,0.107587,613613,478969
1388.43,0.111495,611526,473064
1391.72,0.116165,610663,467344
1395.01,0.120696,610634,462472
1398.29,0.126299,611700,457340
1402.66,0.132781,614051,452297
1405.93,0.138635,616268,447852
1409.2,0.143860,617795,443593
1412.46,0.148472,618872,439672
1415.72,0.153167,619795,435593
1418.98,0.157487,620495,431769
1422.23,0.160551,621087,429142
1426.56,0.164880,621375,425083
1429.8,0.167752,621616,422445
1433.04,0.170459,622129,420167
1436.27,0.172598,621526,417697
1439.5,0.174878,621113,415234
1442.72,0.177784,620921,412337
1445.94,0.180012,620270,409797
1450.23,0.183764,618860,405348
1453.44,0.186780,617697,401787
1456.64,0.189750,616264,398123
1459.85,0.192839,614413,394114
1463.04,0.196270,612307,389672
1466.24,0.199121,610032,385684
1469.43,0.202916,607345,380644
1473.67,0.209346,603789,372854
1476.85,0.215242,601175,366234
1480.02,0.221545,597737,358893
1483.19,0.229088,594479,350791
1486.36,0.234377,591232,344652
1489.52,0.239693,587853,338513
1492.68,0.243218,583875,333505
1496.89,0.246387,578062,327784
1500.03,0.247007,574159,325106
1503.18,0.246832,570285,323043
1506.32,0.245802,565444,321061
1509.45,0.244796,560571,319032
1512.58,0.243104,555821,317564
1515.71,0.240380,550344,316413
1519.87,0.238393,543983,314190
1522.99,0.234920,538764,313674
1526.1,0.232666,533692,312338
1529.21,0.229119,527902,311483
1532.32,0.225510,521886,310503
1535.42,0.223079,515888,308657
1538.51,0.219330,509987,307772
1541.6,0.216099,503936,306391
1545.72,0.212104,494694,303552
1548.8,0.208716,488378,302023
1551.88,0.206642,481832,299401
1554.95,0.203610,474989,297217
1558.02,0.201928,467818,293866
1561.08,0.201314,460730,289823
1564.15,0.200323,454170,286349
1568.22,0.198971,444181,280924
1571.27,0.199016,436947,276320
1574.32,0.198080,429598,272259
1577.36,0.195951,422039,268783
1580.4,0.194794,414375,264606
1583.43,0.193085,406354,260507
1586.46,0.191490,398475,256396
1590.49,0.188770,388982,251860
1593.51,0.186692,380708,247685
1596.53,0.184471,372727,243736
1599.54,0.182591,365060,239758
1602.55,0.180278,357543,236075
1605.55,0.178135,349495,231903
1608.55,0.175494,341154,227749
1612.54,0.173040,330877,222140
1615.53,0.171778,322904,217418
1618.51,0.171154,315116,212479
1621.49,0.169933,307217,207736
1624.47,0.168305,299481,203266
1627.44,0.167013,292112,198855
1630.41,0.165309,284245,194260
1634.36,0.163780,274079,187973
1637.32,0.164199,266916,182884
1640.27,0.162670,259612,178507
1643.22,0.161295,251804,173687
1646.16,0.159970,244348,169059
1649.1,0.159818,236703,163827
1652.04,0.159032,228171,158208
1655.95,0.155737,215408,150496
1658.88,0.151326,204937,144642
1661.8,0.148579,193395,137362
1664.72,0.140035,179728,130191
1667.63,0.130998,163642,121031
1670.54,0.119476,146312,111123
1673.44,0.104734,128451,100926
1677.31,0.084303,105080,86540
1680.21,0.076757,88906,74503
1683.1,0.072424,75033,63508
1685.99,0.072686,63520,53731
1688.87,0.082783,53714,44392
1691.75,0.085450,45653,37499
1694.62,0.093671,39137,31544
1697.49,0.096473,33776,27048
1701.31,0.097971,28175,22485