Folder: textile_sorting_NIRSCAN_/samples/wool/wool-000811 (part 34)

File: Column 1_050549_20150331_115931.csv
Method:,Column 1,,
Host Date-Time:,31/3/15 @ 11:59:31,,
Header Version:,1,,
System Temp (C):,33.3,,
Detector Temp (C):,32.09,,
Humidity (%):,2.25,,
Lamp PD:,3822,,
Shift Vector Coefficients:,-10.5391,0.0761263,-0.000134223,,
Pixel to Wavelength Coefficients:,1775.68,-0.916766,-0.000235065,,
Serial Number:,5510004,,
Scan Config Name:,Column 1,,
Scan Config Type:,Slew,,
Section 1,,
Start wavelength (nm):,900,,
End wavelength (nm):,1700,,
Pattern Pixel Width (nm):,   7.03,,,,
Exposure (ms):,  0.635,,,,
Digital Resolution:,228,,
Num Repeats:,6,,
PGA Gain:,64,,
Total Measurement Time in sec:,  2.675,,
Wavelength (nm),Absorbance (AU),Reference Signal (unitless),Sample Signal (unitless)
901.51,0.047306,108485,97289
905.376,0.051401,121306,107766
909.237,0.054247,131909,116420
913.095,0.053665,143299,126642
916.948,0.054507,156982,138466
922.079,0.054667,179937,158655
925.923,0.054326,200504,176928
929.762,0.056149,222660,195656
933.597,0.056759,244426,214481
937.427,0.055988,263972,232044
941.254,0.056035,281845,247728
945.076,0.055646,297271,261521
950.165,0.055354,315605,277837
953.978,0.054708,328029,289204
957.786,0.055404,340470,299692
961.59,0.056029,352317,309674
965.389,0.056073,363056,319081
969.185,0.056266,373162,327817
972.976,0.056875,382632,335665
976.763,0.057569,391202,342635
981.806,0.058265,400190,349946
985.583,0.058937,406088,354555
989.355,0.059088,410162,357987
993.124,0.059691,412868,359849
996.888,0.060524,414263,360373
1000.65,0.060947,415476,361076
1004.4,0.061905,415479,360283
1009.41,0.063701,414358,357828
1013.15,0.063443,412923,356801
1016.89,0.064065,411526,355085
1020.63,0.064256,409066,352807
1024.36,0.064121,406777,350942
1028.09,0.063317,404427,349561
1031.82,0.063390,401911,347328
1036.78,0.063121,398410,344516
1040.49,0.062236,396204,343307
1044.2,0.061589,394236,342111
1047.91,0.061370,392042,340379
1051.61,0.060217,389823,339352
1055.31,0.060016,388234,338125
1059,0.058923,387599,338423
1063.92,0.058307,386688,338107
1067.61,0.056831,386598,339179
1071.29,0.055847,387377,340633
1074.96,0.055428,388536,341982
1078.63,0.054258,389855,344069
1082.3,0.053258,391215,346065
1085.96,0.052513,393215,348431
1090.84,0.052327,396270,351289
1094.49,0.051678,398760,354025
1098.14,0.051684,400987,355997
1101.79,0.051072,403477,358713
1105.43,0.051202,406116,360951
1109.06,0.050615,407701,362850
1112.7,0.050681,409859,364715
1117.53,0.050808,412494,366952
1121.15,0.051593,414909,368434
1124.77,0.052661,416559,368991
1128.38,0.053638,418532,369905
1131.99,0.055152,419956,369872
1135.6,0.057119,421946,369946
1139.2,0.058945,423881,370083
1143.99,0.061896,426786,370096
1147.58,0.063241,428617,370534
1151.17,0.064628,431169,371552
1154.75,0.065384,433579,372979
1158.33,0.067419,436264,373534
1161.91,0.070361,439132,373451
1165.48,0.073368,442389,373625
1169.04,0.076260,446101,374260
1173.79,0.079987,451929,375909
1177.34,0.082876,456026,376802
1180.9,0.085753,461306,378648
1184.44,0.087461,467657,382355
1187.99,0.088651,473969,386455
1191.52,0.088264,479856,391604
1195.06,0.087554,487372,398388
1199.76,0.085687,497347,408294
1203.29,0.084207,504311,415424
1206.81,0.083545,511507,421994
1210.33,0.081795,519078,429969
1213.84,0.080686,527163,437783
1217.35,0.080274,534208,444055
1220.85,0.078633,540472,450962
1225.51,0.077235,549929,460333
1229.01,0.077304,556888,466084
1232.5,0.076218,562180,471691
1235.98,0.075091,567975,477791
1239.46,0.073562,574815,485251
1242.94,0.073013,582782,492598
1246.41,0.072123,591476,500973
1251.03,0.071616,604016,512191
1254.5,0.071379,612289,519490
1257.96,0.072387,619125,524073
1261.41,0.072740,624551,528236
1264.86,0.073263,629900,532119
1268.31,0.073822,634345,535184
1271.75,0.074734,638574,537622
1276.33,0.074865,642499,540763
1279.76,0.074670,645905,543874
1283.19,0.074133,648307,546572
1286.61,0.074080,650446,548443
1290.03,0.073686,652132,550363
1293.44,0.072775,653907,553020
1296.85,0.073073,655963,554378
1301.39,0.072574,657349,556189
1304.8,0.072341,657558,556664
1308.19,0.073211,658515,556359
1311.58,0.072803,658804,557126
1314.97,0.073403,659011,556532
1318.36,0.073827,658272,555365
1321.73,0.074025,658022,554901
1326.23,0.075526,657870,552859
1329.6,0.076306,656482,550702
1332.97,0.077298,654926,548144
1336.33,0.078806,653727,545244
1339.69,0.080671,652497,541885
1343.04,0.082392,649913,537605
1346.39,0.084513,647671,533140
1349.73,0.087059,645338,528115
1354.18,0.090751,641175,520266
1357.52,0.093262,638376,515009
1360.85,0.095652,635805,510120
1364.17,0.098159,633413,505275
1367.49,0.100746,631026,500381
1370.81,0.103627,628050,494729
1374.12,0.105865,625034,489822
1378.54,0.109714,620272,481801
1381.84,0.113722,616892,474774
1385.14,0.118676,613613,466894
1388.43,0.122902,611526,460800
1391.72,0.128696,610663,454052
1395.01,0.134266,610634,448244
1398.29,0.139755,611700,443388
1402.66,0.148092,614051,436629
1405.93,0.153942,616268,432342
1409.2,0.160622,617795,426798
1412.46,0.165879,618872,422398
1415.72,0.170717,619795,418342
1418.98,0.175602,620495,414130
1422.23,0.179745,621087,410589
1426.56,0.184638,621375,406177
1429.8,0.187409,621616,403751
1433.04,0.189984,622129,401695
1436.27,0.192456,621526,399028
1439.5,0.194826,621113,396593
1442.72,0.197139,620921,394364
1445.94,0.199394,620270,391910
1450.23,0.203895,618860,386988
1453.44,0.206499,617697,383952
1456.64,0.209589,616264,380345
1459.85,0.212459,614413,376705
1463.04,0.214769,612307,373422
1466.24,0.218344,610032,368985
1469.43,0.221435,607345,364754
1473.67,0.227463,603789,357620
1476.85,0.232973,601175,351583
1480.02,0.238925,597737,344814
1483.19,0.245202,594479,338014
1486.36,0.252032,591232,330922
1489.52,0.256754,587853,325473
1492.68,0.260504,583875,320491
1496.89,0.262813,578062,315618
1500.03,0.264940,574159,311955
1503.18,0.265468,570285,309474
1506.32,0.264413,565444,307593
1509.45,0.263030,560571,305915
1512.58,0.261476,555821,304410
1515.71,0.259408,550344,302849
1519.87,0.256063,543983,301663
1522.99,0.252929,538764,300933
1526.1,0.251101,533692,299357
1529.21,0.247410,527902,298637
1532.32,0.244752,521886,297046
1535.42,0.240781,515888,296329
1538.51,0.237363,509987,295254
1541.6,0.234154,503936,293915
1545.72,0.229318,494694,291755
1548.8,0.226754,488378,289736
1551.88,0.223369,481832,288089
1554.95,0.221322,474989,285339
1558.02,0.219588,467818,282156
1561.08,0.217901,460730,278962
1564.15,0.217696,454170,275120
1568.22,0.216590,444181,269755
1571.27,0.215213,436947,266205
1574.32,0.214837,429598,261954
1577.36,0.213388,422039,258205
1580.4,0.211465,414375,254641
1583.43,0.209539,406354,250822
1586.46,0.207128,398475,247328
1590.49,0.205005,388982,242619
1593.51,0.202814,380708,238659
1596.53,0.200817,372727,234733
1599.54,0.197896,365060,231456
1602.55,0.195515,357543,227936
1605.55,0.193263,349495,223964
1608.55,0.191221,341154,219649
1612.54,0.188766,330877,214240
1615.53,0.186732,322904,210059
1618.51,0.184780,315116,205916
1621.49,0.182535,307217,201795
1624.47,0.182139,299481,196893
1627.44,0.179225,292112,193341
1630.41,0.179006,284245,188229
1634.36,0.176813,274079,182416
1637.32,0.176423,266916,177808
1640.27,0.175023,259612,173501
1643.22,0.173991,251804,168683
1646.16,0.173984,244348,163691
1649.1,0.171789,236703,159373
1652.04,0.170726,228171,154005
1655.95,0.168285,215408,146210
1658.88,0.166228,204937,139763
1661.8,0.163012,193395,132872
1664.72,0.160057,179728,124325
1667.63,0.150975,163642,115590
1670.54,0.143326,146312,105185
1673.44,0.133434,128451,94472
1677.31,0.124674,105080,78858
1680.21,0.121491,88906,67211
1683.1,0.121761,75033,56688
1685.99,0.124930,63520,47641
1688.87,0.129910,53714,39827
1691.75,0.133259,45653,33590
1694.62,0.136130,39137,28606
1697.49,0.144201,33776,24233
1701.31,0.142346,28175,20301

File: Column 1_050549_20150331_115934.csv
Method:,Column 1,,
Host Date-Time:,31/3/15 @ 11:59:34,,
Header Version:,1,,
System Temp (C):,33.28,,
Detector Temp (C):,32.07,,
Humidity (%):,2.25,,
Lamp PD:,3822,,
Shift Vector Coefficients:,-10.5391,0.0761263,-0.000134223,,
Pixel to Wavelength Coefficients:,1775.68,-0.916766,-0.000235065,,
Serial Number:,5510004,,
Scan Config Name:,Column 1,,
Scan Config Type:,Slew,,
Section 1,,
Start wavelength (nm):,900,,
End wavelength (nm):,1700,,
Pattern Pixel Width (nm):,   7.03,,,,
Exposure (ms):,  0.635,,,,
Digital Resolution:,228,,
Num Repeats:,6,,
PGA Gain:,64,,
Total Measurement Time in sec:,  2.661,,
Wavelength (nm),Absorbance (AU),Reference Signal (unitless),Sample Signal (unitless)
901.51,0.045493,108485,97696
905.376,0.050471,121306,107997
909.237,0.054031,131909,116478
913.095,0.054551,143299,126384
916.948,0.054118,156982,138590
922.079,0.054757,179937,158622
925.923,0.055782,200504,176336
929.762,0.056744,222660,195388
933.597,0.056759,244426,214481
937.427,0.056313,263972,231870
941.254,0.056586,281845,247414
945.076,0.054908,297271,261966
950.165,0.055268,315605,277892
953.978,0.054712,328029,289201
957.786,0.055775,340470,299436
961.59,0.056533,352317,309315
965.389,0.056194,363056,318992
969.185,0.056657,373162,327522
972.976,0.056619,382632,335863
976.763,0.057036,391202,343056
981.806,0.058032,400190,350134
985.583,0.058263,406088,355105
989.355,0.059129,410162,357953
993.124,0.060124,412868,359490
996.888,0.060215,414263,360629
1000.65,0.061393,415476,360706
1004.4,0.061950,415479,360246
1009.41,0.063598,414358,357913
1013.15,0.063760,412923,356541
1016.89,0.064259,411526,354926
1020.63,0.063625,409066,353320
1024.36,0.064023,406777,351021
1028.09,0.064099,404427,348932
1031.82,0.063877,401911,346939
1036.78,0.063113,398410,344522
1040.49,0.062363,396204,343207
1044.2,0.062217,394236,341617
1047.91,0.061606,392042,340194
1051.61,0.060536,389823,339103
1055.31,0.060370,388234,337850
1059,0.059511,387599,337965
1063.92,0.058282,386688,338126
1067.61,0.056660,386598,339312
1071.29,0.056234,387377,340330
1074.96,0.055863,388536,341640
1078.63,0.054376,389855,343975
1082.3,0.053692,391215,345719
1085.96,0.052936,393215,348092
1090.84,0.052414,396270,351218
1094.49,0.052368,398760,353463
1098.14,0.051546,400987,356110
1101.79,0.051235,403477,358578
1105.43,0.051476,406116,360723
1109.06,0.051482,407701,362126
1112.7,0.050776,409859,364635
1117.53,0.051121,412494,366688
1121.15,0.051390,414909,368606
1124.77,0.052130,416559,369442
1128.38,0.053397,418532,370111
1131.99,0.055184,419956,369845
1135.6,0.057376,421946,369727
1139.2,0.058645,423881,370339
1143.99,0.061850,426786,370135
1147.58,0.063205,428617,370565
1151.17,0.064778,431169,371424
1154.75,0.066538,433579,371989
1158.33,0.067606,436264,373373
1161.91,0.070573,439132,373269
1165.48,0.073404,442389,373594
1169.04,0.076372,446101,374163
1173.79,0.080560,451929,375414
1177.34,0.083087,456026,376619
1180.9,0.085357,461306,378994
1184.44,0.087709,467657,382136
1187.99,0.088395,473969,386683
1191.52,0.087610,479856,392194
1195.06,0.087533,487372,398408
1199.76,0.085890,497347,408103
1203.29,0.084805,504311,414852
1206.81,0.083625,511507,421917
1210.33,0.082400,519078,429371
1213.84,0.081102,527163,437364
1217.35,0.080450,534208,443875
1220.85,0.079062,540472,450517
1225.51,0.077693,549929,459847
1229.01,0.077071,556888,466334
1232.5,0.076093,562180,471827
1235.98,0.075169,567975,477706
1239.46,0.073971,574815,484794
1242.94,0.072862,582782,492770
1246.41,0.072467,591476,500576
1251.03,0.072029,604016,511705
1254.5,0.072147,612289,518572
1257.96,0.072517,619125,523916
1261.41,0.072714,624551,528268
1264.86,0.073823,629900,531433
1268.31,0.074083,634345,534863
1271.75,0.075078,638574,537197
1276.33,0.075356,642499,540153
1279.76,0.075096,645905,543341
1283.19,0.074059,648307,546666
1286.61,0.074248,650446,548230
1290.03,0.073469,652132,550638
1293.44,0.073042,653907,552680
1296.85,0.073122,655963,554316
1301.39,0.072489,657349,556298
1304.8,0.072293,657558,556726
1308.19,0.072938,658515,556708
1311.58,0.073150,658804,556681
1314.97,0.073739,659011,556101
1318.36,0.074015,658272,555124
1321.73,0.074167,658022,554720
1326.23,0.075301,657870,553145
1329.6,0.076609,656482,550318
1332.97,0.077351,654926,548077
1336.33,0.078990,653727,545013
1339.69,0.081075,652497,541382
1343.04,0.082238,649913,537795
1346.39,0.085077,647671,532448
1349.73,0.087588,645338,527472
1354.18,0.091133,641175,519809
1357.52,0.093419,638376,514822
1360.85,0.096299,635805,509360
1364.17,0.098522,633413,504853
1367.49,0.100629,631026,500516
1370.81,0.103881,628050,494440
1374.12,0.106343,625034,489284
1378.54,0.110378,620272,481066
1381.84,0.113933,616892,474544
1385.14,0.118538,613613,467043
1388.43,0.123425,611526,460246
1391.72,0.129155,610663,453572
1395.01,0.134047,610634,448471
1398.29,0.140140,611700,442995
1402.66,0.148397,614051,436322
1405.93,0.154565,616268,431722
1409.2,0.160776,617795,426647
1412.46,0.166500,618872,421794
1415.72,0.171695,619795,417401
1418.98,0.176043,620495,413709
1422.23,0.180008,621087,410341
1426.56,0.184651,621375,406165
1429.8,0.187498,621616,403668
1433.04,0.190430,622129,401283
1436.27,0.192749,621526,398759
1439.5,0.194614,621113,396786
1442.72,0.197790,620921,393773
1445.94,0.200324,620270,391072
1450.23,0.204252,618860,386670
1453.44,0.206809,617697,383678
1456.64,0.209577,616264,380356
1459.85,0.212396,614413,376760
1463.04,0.215180,612307,373069
1466.24,0.218741,610032,368648
1469.43,0.222205,607345,364108
1473.67,0.227734,603789,357397
1476.85,0.233347,601175,351280
1480.02,0.239148,597737,344637
1483.19,0.246230,594479,337215
1486.36,0.251770,591232,331122
1489.52,0.256891,587853,325370
1492.68,0.260743,583875,320315
1496.89,0.264133,578062,314660
1500.03,0.265180,574159,311783
1503.18,0.265520,570285,309437
1506.32,0.264864,565444,307274
1509.45,0.263004,560571,305933
1512.58,0.262166,555821,303927
1515.71,0.259814,550344,302566
1519.87,0.256562,543983,301317
1522.99,0.253878,538764,300276
1526.1,0.250963,533692,299452
1529.21,0.247488,527902,298583
1532.32,0.244920,521886,296931
1535.42,0.242308,515888,295289
1538.51,0.238505,509987,294479
1541.6,0.234792,503936,293483
1545.72,0.229571,494694,291585
1548.8,0.226563,488378,289863
1551.88,0.223800,481832,287803
1554.95,0.221166,474989,285442
1558.02,0.219990,467818,281895
1561.08,0.217607,460730,279151
1564.15,0.218022,454170,274914
1568.22,0.216232,444181,269978
1571.27,0.215353,436947,266119
1574.32,0.214319,429598,262267
1577.36,0.212692,422039,258619
1580.4,0.211271,414375,254755
1583.43,0.208382,406354,251491
1586.46,0.208132,398475,246757
1590.49,0.205023,388982,242609
1593.51,0.202374,380708,238901
1596.53,0.200484,372727,234913
1599.54,0.197965,365060,231419
1602.55,0.196059,357543,227651
1605.55,0.193515,349495,223834
1608.55,0.191077,341154,219722
1612.54,0.189050,330877,214100
1615.53,0.185962,322904,210432
1618.51,0.184652,315116,205977
1621.49,0.182630,307217,201751
1624.47,0.182274,299481,196832
1627.44,0.181430,292112,192362
1630.41,0.179477,284245,188025
1634.36,0.177499,274079,182128
1637.32,0.176438,266916,177802
1640.27,0.175005,259612,173508
1643.22,0.174058,251804,168657
1646.16,0.173491,244348,163877
1649.1,0.172902,236703,158965
1652.04,0.171234,228171,153825
1655.95,0.169037,215408,145957
1658.88,0.165381,204937,140036
1661.8,0.163198,193395,132815
1664.72,0.157984,179728,124920
1667.63,0.150498,163642,115717
1670.54,0.143149,146312,105228
1673.44,0.133338,128451,94493
1677.31,0.122647,105080,79227
1680.21,0.122260,88906,67092
1683.1,0.120690,75033,56828
1685.99,0.126354,63520,47485
1688.87,0.127268,53714,40070
1691.75,0.137704,45653,33248
1694.62,0.146066,39137,27959
1697.49,0.148035,33776,24020
1701.31,0.147360,28175,20068

File: Column 1_050550_20150331_115940.csv
Method:,Column 1,,
Host Date-Time:,31/3/15 @ 11:59:40,,
Header Version:,1,,
System Temp (C):,33.29,,
Detector Temp (C):,32.09,,
Humidity (%):,2.15,,
Lamp PD:,3822,,
Shift Vector Coefficients:,-10.5391,0.0761263,-0.000134223,,
Pixel to Wavelength Coefficients:,1775.68,-0.916766,-0.000235065,,
Serial Number:,5510004,,
Scan Config Name:,Column 1,,
Scan Config Type:,Slew,,
Section 1,,
Start wavelength (nm):,900,,
End wavelength (nm):,1700,,
Pattern Pixel Width (nm):,   7.03,,,,
Exposure (ms):,  0.635,,,,
Digital Resolution:,228,,
Num Repeats:,6,,
PGA Gain:,64,,
Total Measurement Time in sec:,  2.671,,
Wavelength (nm),Absorbance (AU),Reference Signal (unitless),Sample Signal (unitless)
901.51,0.043980,108485,98037
905.376,0.050141,121306,108079
909.237,0.051084,131909,117271
913.095,0.051452,143299,127289
916.948,0.052923,156982,138972
922.079,0.053997,179937,158900
925.923,0.054879,200504,176703
929.762,0.055823,222660,195803
933.597,0.055858,244426,214926
937.427,0.054579,263972,232798
941.254,0.054352,281845,248690
945.076,0.054636,297271,262130
950.165,0.055324,315605,277856
953.978,0.053472,328029,290028
957.786,0.053686,340470,300880
961.59,0.054893,352317,310485
965.389,0.054892,363056,319950
969.185,0.055893,373162,328099
972.976,0.055818,382632,336483
976.763,0.056347,391202,343601
981.806,0.056868,400190,351074
985.583,0.057623,406088,355629
989.355,0.058434,410162,358527
993.124,0.059069,412868,360365
996.888,0.059183,414263,361487
1000.65,0.060189,415476,361707
1004.4,0.061478,415479,360638
1009.41,0.062677,414358,358673
1013.15,0.062502,412923,357575
1016.89,0.063663,411526,355414
1020.63,0.062806,409066,353987
1024.36,0.063595,406777,351367
1028.09,0.062633,404427,350112
1031.82,0.063046,401911,347603
1036.78,0.062044,398410,345371
1040.49,0.061461,396204,343920
1044.2,0.061155,394236,342453
1047.91,0.060285,392042,341230
1051.61,0.059635,389823,339807
1055.31,0.059486,388234,338538
1059,0.058045,387599,339108
1063.92,0.057028,386688,339104
1067.61,0.056064,386598,339778
1071.29,0.055539,387377,340875
1074.96,0.055525,388536,341906
1078.63,0.053832,389855,344406
1082.3,0.053242,391215,346078
1085.96,0.051699,393215,349085
1090.84,0.051703,396270,351794
1094.49,0.051968,398760,353788
1098.14,0.051149,400987,356436
1101.79,0.050478,403477,359204
1105.43,0.050779,406116,361303
1109.06,0.049608,407701,363692
1112.7,0.050505,409859,364863
1117.53,0.050435,412494,367268
1121.15,0.050761,414909,369141
1124.77,0.051391,416559,370071
1128.38,0.052732,418532,370678
1131.99,0.054664,419956,370288
1135.6,0.056663,421946,370334
1139.2,0.058458,423881,370498
1143.99,0.061234,426786,370660
1147.58,0.062051,428617,371551
1151.17,0.063209,431169,372768
1154.75,0.065559,433579,372829
1158.33,0.067327,436264,373613
1161.91,0.069751,439132,373976
1165.48,0.072474,442389,374395
1169.04,0.075236,446101,375143
1173.79,0.079418,451929,376402
1177.34,0.082548,456026,377087
1180.9,0.084888,461306,379403
1184.44,0.086857,467657,382887
1187.99,0.087799,473969,387214
1191.52,0.087468,479856,392322
1195.06,0.086629,487372,399238
1199.76,0.085261,497347,408694
1203.29,0.084224,504311,415408
1206.81,0.083510,511507,422028
1210.33,0.081115,519078,430643
1213.84,0.080678,527163,437791
1217.35,0.079745,534208,444596
1220.85,0.078469,540472,451133
1225.51,0.076746,549929,460851
1229.01,0.076171,556888,467301
1232.5,0.075992,562180,471936
1235.98,0.074582,567975,478352
1239.46,0.073473,574815,485350
1242.94,0.072404,582782,493290
1246.41,0.071193,591476,502047
1251.03,0.071177,604016,512710
1254.5,0.071208,612289,519695
1257.96,0.071670,619125,524938
1261.41,0.072623,624551,528378
1264.86,0.072867,629900,532604
1268.31,0.073757,634345,535265
1271.75,0.074454,638574,537969
1276.33,0.074640,642499,541044
1279.76,0.074357,645905,544266
1283.19,0.073866,648307,546909
1286.61,0.073830,650446,548758
1290.03,0.072900,652132,551360
1293.44,0.072618,653907,553220
1296.85,0.072418,655963,555215
1301.39,0.072023,657349,556894
1304.8,0.071976,657558,557132
1308.19,0.071803,658515,558165
1311.58,0.072609,658804,557375
1314.97,0.073324,659011,556632
1318.36,0.073603,658272,555651
1321.73,0.073949,658022,554998
1326.23,0.074986,657870,553546
1329.6,0.076135,656482,550919
1332.97,0.077115,654926,548375
1336.33,0.078073,653727,546164
1339.69,0.080192,652497,542484
1343.04,0.081926,649913,538182
1346.39,0.084683,647671,532932
1349.73,0.086974,645338,528218
1354.18,0.090272,641175,520840
1357.52,0.092415,638376,516014
1360.85,0.095767,635805,509984
1364.17,0.097895,633413,505583
1367.49,0.100099,631026,501128
1370.81,0.103140,628050,495284
1374.12,0.106116,625034,489539
1378.54,0.109183,620272,482391
1381.84,0.113388,616892,475140
1385.14,0.117847,613613,467786
1388.43,0.122614,611526,461106
1391.72,0.127778,610663,455013
1395.01,0.133462,610634,449075
1398.29,0.139424,611700,443726
1402.66,0.147349,614051,437377
1405.93,0.153609,616268,432674
1409.2,0.160060,617795,427351
1412.46,0.165447,618872,422818
1415.72,0.170287,619795,418756
1418.98,0.174917,620495,414783
1422.23,0.179126,621087,411175
1426.56,0.183428,621375,407311
1429.8,0.186553,621616,404547
1433.04,0.188795,622129,402796
1436.27,0.191589,621526,399825
1439.5,0.194028,621113,397322
1442.72,0.196655,620921,394804
1445.94,0.198744,620270,392497
1450.23,0.202564,618860,388176
1453.44,0.205897,617697,384484
1456.64,0.208849,616264,380994
1459.85,0.212070,614413,377043
1463.04,0.214469,612307,373680
1466.24,0.217437,610032,369756
1469.43,0.220824,607345,365268
1473.67,0.226735,603789,358220
1476.85,0.231690,601175,352623
1480.02,0.238200,597737,345390
1483.19,0.244506,594479,338556
1486.36,0.250916,591232,331774
1489.52,0.256455,587853,325697
1492.68,0.259508,583875,321227
1496.89,0.262594,578062,315777
1500.03,0.263913,574159,312694
1503.18,0.263679,570285,310751
1506.32,0.263080,565444,308539
1509.45,0.262367,560571,306382
1512.58,0.260699,555821,304955
1515.71,0.258970,550344,303155
1519.87,0.255688,543983,301924
1522.99,0.252826,538764,301004
1526.1,0.250366,533692,299864
1529.21,0.247274,527902,298730
1532.32,0.243825,521886,297681
1535.42,0.240056,515888,296824
1538.51,0.237409,509987,295223
1541.6,0.234152,503936,293916
1545.72,0.228871,494694,292056
1548.8,0.225776,488378,290389
1551.88,0.223069,481832,288288
1554.95,0.220576,474989,285830
1558.02,0.217962,467818,283214
1561.08,0.216555,460730,279828
1564.15,0.216917,454170,275614
1568.22,0.215077,444181,270697
1571.27,0.215359,436947,266115
1574.32,0.213141,429598,262979
1577.36,0.211553,422039,259298
1580.4,0.210101,414375,255442
1583.43,0.208325,406354,251524
1586.46,0.206505,398475,247683
1590.49,0.203279,388982,243585
1593.51,0.201695,380708,239275
1596.53,0.199348,372727,235528
1599.54,0.196078,365060,232427
1602.55,0.194282,357543,228584
1605.55,0.192492,349495,224362
1608.55,0.189897,341154,220320
1612.54,0.186671,330877,215276
1615.53,0.185273,322904,210766
1618.51,0.183868,315116,206349
1621.49,0.181263,307217,202387
1624.47,0.179752,299481,197978
1627.44,0.179340,292112,193290
1630.41,0.177654,284245,188816
1634.36,0.175907,274079,182797
1637.32,0.175179,266916,178318
1640.27,0.174180,259612,173838
1643.22,0.173086,251804,169035
1646.16,0.172271,244348,164338
1649.1,0.171492,236703,159482
1652.04,0.170325,228171,154147
1655.95,0.167181,215408,146582
1658.88,0.164854,204937,140206
1661.8,0.161045,193395,133475
1664.72,0.156308,179728,125403
1667.63,0.148028,163642,116377
1670.54,0.141871,146312,105538
1673.44,0.132755,128451,94620
1677.31,0.121738,105080,79393
1680.21,0.115319,88906,68173
1683.1,0.118396,75033,57129
1685.99,0.122403,63520,47919
1688.87,0.126391,53714,40151
1691.75,0.131260,45653,33745
1694.62,0.128978,39137,29081
1697.49,0.134524,33776,24779
1701.31,0.150487,28175,19924