Folder: textile_sorting_NIRSCAN_/samples/wool/wool-000811 (part 22)

File: Column 1_050543_20150331_115620.csv
Method:,Column 1,,
Host Date-Time:,31/3/15 @ 11:56:20,,
Header Version:,1,,
System Temp (C):,32.59,,
Detector Temp (C):,30.94,,
Humidity (%):,2.78,,
Lamp PD:,3824,,
Shift Vector Coefficients:,-10.5391,0.0761263,-0.000134223,,
Pixel to Wavelength Coefficients:,1775.68,-0.916766,-0.000235065,,
Serial Number:,5510004,,
Scan Config Name:,Column 1,,
Scan Config Type:,Slew,,
Section 1,,
Start wavelength (nm):,900,,
End wavelength (nm):,1700,,
Pattern Pixel Width (nm):,   7.03,,,,
Exposure (ms):,  0.635,,,,
Digital Resolution:,228,,
Num Repeats:,6,,
PGA Gain:,64,,
Total Measurement Time in sec:,  2.670,,
Wavelength (nm),Absorbance (AU),Reference Signal (unitless),Sample Signal (unitless)
901.51,0.045675,108485,97655
905.376,0.051014,121306,107862
909.237,0.052200,131909,116970
913.095,0.052833,143299,126885
916.948,0.053498,156982,138788
922.079,0.053297,179937,159156
925.923,0.053973,200504,177072
929.762,0.053796,222660,196719
933.597,0.054638,244426,215531
937.427,0.054640,263972,232765
941.254,0.054286,281845,248728
945.076,0.054856,297271,261997
950.165,0.054470,315605,278403
953.978,0.054456,328029,289372
957.786,0.054709,340470,300172
961.59,0.055477,352317,310068
965.389,0.055609,363056,319422
969.185,0.055969,373162,328041
972.976,0.055750,382632,336536
976.763,0.056928,391202,343141
981.806,0.057155,400190,350842
985.583,0.058438,406088,354962
989.355,0.058515,410162,358460
993.124,0.059037,412868,360391
996.888,0.059894,414263,360896
1000.65,0.061053,415476,360988
1004.4,0.061747,415479,360414
1009.41,0.063293,414358,358165
1013.15,0.063807,412923,356502
1016.89,0.063836,411526,355272
1020.63,0.064164,409066,352882
1024.36,0.063452,406777,351483
1028.09,0.064099,404427,348932
1031.82,0.063343,401911,347366
1036.78,0.062568,398410,344955
1040.49,0.061372,396204,343991
1044.2,0.061989,394236,341796
1047.91,0.060930,392042,340724
1051.61,0.060610,389823,339045
1055.31,0.060034,388234,338111
1059,0.058998,387599,338364
1063.92,0.058129,386688,338245
1067.61,0.057162,386598,338920
1071.29,0.055838,387377,340640
1074.96,0.055424,388536,341985
1078.63,0.054376,389855,343975
1082.3,0.053119,391215,346176
1085.96,0.052814,393215,348190
1090.84,0.052243,396270,351357
1094.49,0.052529,398760,353332
1098.14,0.051732,400987,355958
1101.79,0.051444,403477,358406
1105.43,0.051456,406116,360740
1109.06,0.050674,407701,362800
1112.7,0.050455,409859,364905
1117.53,0.050559,412494,367163
1121.15,0.052099,414909,368005
1124.77,0.052324,416559,369277
1128.38,0.054177,418532,369447
1131.99,0.055157,419956,369868
1135.6,0.057305,421946,369787
1139.2,0.059531,423881,369584
1143.99,0.061756,426786,370215
1147.58,0.063319,428617,370468
1151.17,0.064371,431169,371772
1154.75,0.066192,433579,372286
1158.33,0.068447,436264,372651
1161.91,0.070616,439132,373232
1165.48,0.074058,442389,373032
1169.04,0.076249,446101,374269
1173.79,0.080510,451929,375457
1177.34,0.083532,456026,376234
1180.9,0.085965,461306,378464
1184.44,0.087507,467657,382314
1187.99,0.088535,473969,386558
1191.52,0.088040,479856,391806
1195.06,0.087525,487372,398415
1199.76,0.086136,497347,407872
1203.29,0.084211,504311,415420
1206.81,0.083282,511507,422250
1210.33,0.082482,519078,429290
1213.84,0.081169,527163,437296
1217.35,0.080262,534208,444067
1220.85,0.078841,540472,450746
1225.51,0.077607,549929,459938
1229.01,0.077712,556888,465646
1232.5,0.075978,562180,471952
1235.98,0.075525,567975,477314
1239.46,0.074179,574815,484562
1242.94,0.073285,582782,492290
1246.41,0.072171,591476,500917
1251.03,0.071935,604016,511815
1254.5,0.071741,612289,519057
1257.96,0.072583,619125,523836
1261.41,0.072776,624551,528192
1264.86,0.073162,629900,532242
1268.31,0.074145,634345,534787
1271.75,0.074996,638574,537298
1276.33,0.075237,642499,540300
1279.76,0.075113,645905,543320
1283.19,0.074532,648307,546071
1286.61,0.074054,650446,548476
1290.03,0.073973,652132,550000
1293.44,0.073158,653907,552533
1296.85,0.073264,655963,554135
1301.39,0.072635,657349,556111
1304.8,0.072966,657558,555864
1308.19,0.073255,658515,556302
1311.58,0.073260,658804,556540
1314.97,0.073897,659011,555899
1318.36,0.074599,658272,554379
1321.73,0.075008,658022,553646
1326.23,0.076065,657870,552173
1329.6,0.076969,656482,549862
1332.97,0.077981,654926,547282
1336.33,0.079695,653727,544129
1339.69,0.081635,652497,540684
1343.04,0.083336,649913,536437
1346.39,0.085857,647671,531493
1349.73,0.088159,645338,526779
1354.18,0.091820,641175,518987
1357.52,0.093853,638376,514308
1360.85,0.096659,635805,508938
1364.17,0.099310,633413,503938
1367.49,0.101775,631026,499197
1370.81,0.104505,628050,493730
1374.12,0.107068,625034,488467
1378.54,0.111043,620272,480329
1381.84,0.114853,616892,473539
1385.14,0.119488,613613,466022
1388.43,0.124776,611526,458816
1391.72,0.130997,610663,451653
1395.01,0.136516,610634,445928
1398.29,0.142480,611700,440614
1402.66,0.150539,614051,434176
1405.93,0.157859,616268,428460
1409.2,0.163918,617795,423571
1412.46,0.170019,618872,418391
1415.72,0.175694,619795,413575
1418.98,0.179553,620495,410379
1422.23,0.184180,621087,406418
1426.56,0.188932,621375,402181
1429.8,0.191520,621616,399947
1433.04,0.194061,622129,397942
1436.27,0.197370,621526,394538
1439.5,0.199436,621113,392405
1442.72,0.202260,620921,389741
1445.94,0.204790,620270,387071
1450.23,0.207995,618860,383352
1453.44,0.211318,617697,379715
1456.64,0.214331,616264,376215
1459.85,0.216757,614413,372995
1463.04,0.220204,612307,368778
1466.24,0.222616,610032,365373
1469.43,0.225515,607345,361344
1473.67,0.231331,603789,354449
1476.85,0.236050,601175,349101
1480.02,0.241987,597737,342392
1483.19,0.248808,594479,335219
1486.36,0.253609,591232,329723
1489.52,0.258936,587853,323842
1492.68,0.263381,583875,318375
1496.89,0.266254,578062,313127
1500.03,0.267035,574159,310454
1503.18,0.267486,570285,308039
1506.32,0.266763,565444,305933
1509.45,0.265579,560571,304125
1512.58,0.263666,555821,302879
1515.71,0.262094,550344,300982
1519.87,0.258690,543983,299844
1522.99,0.255225,538764,299346
1526.1,0.252690,533692,298264
1529.21,0.250227,527902,296706
1532.32,0.247156,521886,295406
1535.42,0.243565,515888,294436
1538.51,0.241389,509987,292530
1541.6,0.237051,503936,291961
1545.72,0.232139,494694,289866
1548.8,0.228981,488378,288254
1551.88,0.225961,481832,286375
1554.95,0.224046,474989,283555
1558.02,0.221858,467818,280685
1561.08,0.219702,460730,277808
1564.15,0.219655,454170,273882
1568.22,0.218039,444181,268857
1571.27,0.218639,436947,264113
1574.32,0.216943,429598,260687
1577.36,0.214990,422039,257254
1580.4,0.214012,414375,253152
1583.43,0.211526,406354,249677
1586.46,0.209591,398475,245929
1590.49,0.207918,388982,240997
1593.51,0.204503,380708,237733
1596.53,0.202323,372727,233920
1599.54,0.200225,365060,230218
1602.55,0.197243,357543,227031
1605.55,0.194930,349495,223106
1608.55,0.193394,341154,218553
1612.54,0.190845,330877,213217
1615.53,0.188574,322904,209170
1618.51,0.186609,315116,205051
1621.49,0.185470,307217,200436
1624.47,0.183073,299481,196470
1627.44,0.181776,292112,192209
1630.41,0.180812,284245,187448
1634.36,0.179574,274079,181260
1637.32,0.179362,266916,176609
1640.27,0.177108,259612,172670
1643.22,0.175115,251804,168247
1646.16,0.175384,244348,163164
1649.1,0.174984,236703,158205
1652.04,0.173209,228171,153127
1655.95,0.172047,215408,144949
1658.88,0.169854,204937,138601
1661.8,0.168501,193395,131203
1664.72,0.165541,179728,122765
1667.63,0.159607,163642,113315
1670.54,0.153460,146312,102759
1673.44,0.149109,128451,91123
1677.31,0.141696,105080,75827
1680.21,0.140788,88906,64290
1683.1,0.141141,75033,54214
1685.99,0.148089,63520,45167
1688.87,0.159171,53714,37232
1691.75,0.159604,45653,31613
1694.62,0.160228,39137,27062
1697.49,0.165448,33776,23076
1701.31,0.173126,28175,18912

File: Column 1_050543_20150331_115626.csv
Method:,Column 1,,
Host Date-Time:,31/3/15 @ 11:56:26,,
Header Version:,1,,
System Temp (C):,32.62,,
Detector Temp (C):,30.97,,
Humidity (%):,2.74,,
Lamp PD:,3824,,
Shift Vector Coefficients:,-10.5391,0.0761263,-0.000134223,,
Pixel to Wavelength Coefficients:,1775.68,-0.916766,-0.000235065,,
Serial Number:,5510004,,
Scan Config Name:,Column 1,,
Scan Config Type:,Slew,,
Section 1,,
Start wavelength (nm):,900,,
End wavelength (nm):,1700,,
Pattern Pixel Width (nm):,   7.03,,,,
Exposure (ms):,  0.635,,,,
Digital Resolution:,228,,
Num Repeats:,6,,
PGA Gain:,64,,
Total Measurement Time in sec:,  2.738,,
Wavelength (nm),Absorbance (AU),Reference Signal (unitless),Sample Signal (unitless)
901.51,0.043927,108485,98049
905.376,0.051010,121306,107863
909.237,0.053092,131909,116730
913.095,0.052173,143299,127078
916.948,0.052413,156982,139135
922.079,0.052118,179937,159589
925.923,0.052617,200504,177626
929.762,0.052984,222660,197087
933.597,0.054706,244426,215497
937.427,0.054198,263972,233002
941.254,0.054558,281845,248572
945.076,0.054659,297271,262116
950.165,0.054631,315605,278300
953.978,0.054025,328029,289659
957.786,0.054677,340470,300194
961.59,0.054302,352317,310908
965.389,0.055461,363056,319531
969.185,0.055328,373162,328526
972.976,0.055528,382632,336708
976.763,0.056708,391202,343315
981.806,0.057239,400190,350774
985.583,0.058010,406088,355312
989.355,0.058646,410162,358352
993.124,0.058716,412868,360658
996.888,0.059316,414263,361377
1000.65,0.060093,415476,361787
1004.4,0.061422,415479,360684
1009.41,0.063455,414358,358031
1013.15,0.063304,412923,356915
1016.89,0.063945,411526,355183
1020.63,0.063465,409066,353450
1024.36,0.063699,406777,351283
1028.09,0.063776,404427,349192
1031.82,0.063224,401911,347461
1036.78,0.062361,398410,345119
1040.49,0.061713,396204,343721
1044.2,0.061596,394236,342106
1047.91,0.060558,392042,341016
1051.61,0.060053,389823,339480
1055.31,0.059214,388234,338750
1059,0.058744,387599,338562
1063.92,0.057034,386688,339099
1067.61,0.056379,386598,339532
1071.29,0.055818,387377,340656
1074.96,0.055414,388536,341993
1078.63,0.054571,389855,343821
1082.3,0.053139,391215,346160
1085.96,0.052495,393215,348446
1090.84,0.052280,396270,351327
1094.49,0.051311,398760,354324
1098.14,0.051534,400987,356120
1101.79,0.050889,403477,358864
1105.43,0.051001,406116,361118
1109.06,0.051082,407701,362460
1112.7,0.050120,409859,365186
1117.53,0.049991,412494,367643
1121.15,0.051418,414909,368583
1124.77,0.051461,416559,370012
1128.38,0.053295,418532,370198
1131.99,0.055428,419956,369637
1135.6,0.056966,421946,370076
1139.2,0.058731,423881,370265
1143.99,0.061594,426786,370353
1147.58,0.062864,428617,370856
1151.17,0.064272,431169,371857
1154.75,0.065732,433579,372680
1158.33,0.067851,436264,373163
1161.91,0.070056,439132,373714
1165.48,0.073134,442389,373827
1169.04,0.075653,446101,374783
1173.79,0.080236,451929,375694
1177.34,0.083032,456026,376667
1180.9,0.085596,461306,378785
1184.44,0.087116,467657,382659
1187.99,0.088381,473969,386695
1191.52,0.087672,479856,392138
1195.06,0.086952,487372,398941
1199.76,0.086095,497347,407910
1203.29,0.084319,504311,415317
1206.81,0.083156,511507,422372
1210.33,0.082215,519078,429554
1213.84,0.080989,527163,437478
1217.35,0.080843,534208,443473
1220.85,0.078814,540472,450774
1225.51,0.077288,549929,460276
1229.01,0.076610,556888,466829
1232.5,0.076199,562180,471711
1235.98,0.075466,567975,477379
1239.46,0.073840,574815,484940
1242.94,0.072831,582782,492805
1246.41,0.071840,591476,501299
1251.03,0.071680,604016,512116
1254.5,0.071648,612289,519169
1257.96,0.071876,619125,524689
1261.41,0.072612,624551,528392
1264.86,0.073458,629900,531880
1268.31,0.073746,634345,535278
1271.75,0.074477,638574,537940
1276.33,0.075032,642499,540556
1279.76,0.074904,645905,543581
1283.19,0.074392,648307,546246
1286.61,0.073839,650446,548747
1290.03,0.073529,652132,550562
1293.44,0.072635,653907,553198
1296.85,0.072658,655963,554908
1301.39,0.072441,657349,556359
1304.8,0.072265,657558,556761
1308.19,0.072994,658515,556636
1311.58,0.072943,658804,556946
1314.97,0.073581,659011,556303
1318.36,0.074190,658272,554901
1321.73,0.074551,658022,554229
1326.23,0.075411,657870,553005
1329.6,0.076609,656482,550318
1332.97,0.077900,654926,547384
1336.33,0.079224,653727,544719
1339.69,0.081128,652497,541315
1343.04,0.083013,649913,536837
1346.39,0.085282,647671,532197
1349.73,0.087753,645338,527272
1354.18,0.091431,641175,519452
1357.52,0.094010,638376,514122
1360.85,0.096204,635805,509472
1364.17,0.098538,633413,504835
1367.49,0.101409,631026,499618
1370.81,0.104215,628050,494059
1374.12,0.107063,625034,488473
1378.54,0.110535,620272,480892
1381.84,0.114314,616892,474128
1385.14,0.119166,613613,466368
1388.43,0.124372,611526,459243
1391.72,0.129820,610663,452878
1395.01,0.135642,610634,446827
1398.29,0.141972,611700,441130
1402.66,0.150666,614051,434049
1405.93,0.157083,616268,429227
1409.2,0.163543,617795,423937
1412.46,0.169009,618872,419365
1415.72,0.174471,619795,414741
1418.98,0.178973,620495,410928
1422.23,0.183583,621087,406977
1426.56,0.188495,621375,402586
1429.8,0.191417,621616,400042
1433.04,0.194067,622129,397936
1436.27,0.196670,621526,395175
1439.5,0.198664,621113,393103
1442.72,0.201816,620921,390140
1445.94,0.204149,620270,387643
1450.23,0.207575,618860,383723
1453.44,0.210448,617697,380476
1456.64,0.213915,616264,376575
1459.85,0.216270,614413,373414
1463.04,0.219237,612307,369600
1466.24,0.222097,610032,365810
1469.43,0.225664,607345,361220
1473.67,0.230765,603789,354912
1476.85,0.235600,601175,349463
1480.02,0.241509,597737,342769
1483.19,0.247870,594479,335944
1486.36,0.253624,591232,329711
1489.52,0.259177,587853,323662
1492.68,0.263180,583875,318522
1496.89,0.265745,578062,313494
1500.03,0.266255,574159,311012
1503.18,0.266458,570285,308769
1506.32,0.265295,565444,306969
1509.45,0.265146,560571,304428
1512.58,0.262894,555821,303418
1515.71,0.261292,550344,301538
1519.87,0.258424,543983,300028
1522.99,0.255351,538764,299259
1526.1,0.253108,533692,297977
1529.21,0.250108,527902,296787
1532.32,0.246387,521886,295930
1535.42,0.243581,515888,294425
1538.51,0.239992,509987,293472
1541.6,0.237213,503936,291852
1545.72,0.231916,494694,290015
1548.8,0.228439,488378,288614
1551.88,0.225547,481832,286648
1554.95,0.223373,474989,283995
1558.02,0.221449,467818,280949
1561.08,0.219886,460730,277690
1564.15,0.218573,454170,274565
1568.22,0.217906,444181,268939
1571.27,0.217567,436947,264766
1574.32,0.216029,429598,261236
1577.36,0.214768,422039,257386
1580.4,0.213640,414375,253369
1583.43,0.211270,406354,249824
1586.46,0.209651,398475,245895
1590.49,0.207052,388982,241478
1593.51,0.204548,380708,237708
1596.53,0.201884,372727,234157
1599.54,0.199479,365060,230614
1602.55,0.196714,357543,227308
1605.55,0.194879,349495,223132
1608.55,0.192782,341154,218861
1612.54,0.189846,330877,213708
1615.53,0.187154,322904,209855
1618.51,0.184671,315116,205968
1621.49,0.184387,307217,200936
1624.47,0.183407,299481,196319
1627.44,0.182140,292112,192048
1630.41,0.180231,284245,187699
1634.36,0.178497,274079,181710
1637.32,0.177568,266916,177340
1640.27,0.176186,259612,173037
1643.22,0.175660,251804,168036
1646.16,0.174855,244348,163363
1649.1,0.174317,236703,158448
1652.04,0.172622,228171,153334
1655.95,0.170330,215408,145523
1658.88,0.168946,204937,138891
1661.8,0.167847,193395,131401
1664.72,0.163241,179728,123417
1667.63,0.158337,163642,113647
1670.54,0.152928,146312,102885
1673.44,0.146027,128451,91772
1677.31,0.140518,105080,76033
1680.21,0.137101,88906,64838
1683.1,0.140205,75033,54331
1685.99,0.148224,63520,45153
1688.87,0.153274,53714,37741
1691.75,0.152788,45653,32113
1694.62,0.163854,39137,26837
1697.49,0.160936,33776,23317
1701.31,0.162577,28175,19377

File: Column 1_050543_20150331_115632.csv
Method:,Column 1,,
Host Date-Time:,31/3/15 @ 11:56:32,,
Header Version:,1,,
System Temp (C):,32.64,,
Detector Temp (C):,30.97,,
Humidity (%):,2.74,,
Lamp PD:,3824,,
Shift Vector Coefficients:,-10.5391,0.0761263,-0.000134223,,
Pixel to Wavelength Coefficients:,1775.68,-0.916766,-0.000235065,,
Serial Number:,5510004,,
Scan Config Name:,Column 1,,
Scan Config Type:,Slew,,
Section 1,,
Start wavelength (nm):,900,,
End wavelength (nm):,1700,,
Pattern Pixel Width (nm):,   7.03,,,,
Exposure (ms):,  0.635,,,,
Digital Resolution:,228,,
Num Repeats:,6,,
PGA Gain:,64,,
Total Measurement Time in sec:,  2.725,,
Wavelength (nm),Absorbance (AU),Reference Signal (unitless),Sample Signal (unitless)
901.51,0.045875,108485,97610
905.376,0.053137,121306,107336
909.237,0.053773,131909,116547
913.095,0.053162,143299,126789
916.948,0.052173,156982,139212
922.079,0.053000,179937,159265
925.923,0.054579,200504,176825
929.762,0.054908,222660,196216
933.597,0.054884,244426,215409
937.427,0.054730,263972,232717
941.254,0.054336,281845,248699
945.076,0.055110,297271,261844
950.165,0.054987,315605,278072
953.978,0.054723,328029,289194
957.786,0.055114,340470,299892
961.59,0.055555,352317,310012
965.389,0.055397,363056,319578
969.185,0.055967,373162,328043
972.976,0.056918,382632,335632
976.763,0.056863,391202,343193
981.806,0.057954,400190,350197
985.583,0.058196,406088,355160
989.355,0.059406,410162,357725
993.124,0.059170,412868,360281
996.888,0.060400,414263,360476
1000.65,0.060691,415476,361289
1004.4,0.061999,415479,360205
1009.41,0.063732,414358,357803
1013.15,0.063667,412923,356617
1016.89,0.064335,411526,354864
1020.63,0.064347,409066,352733
1024.36,0.064553,406777,350593
1028.09,0.063775,404427,349193
1031.82,0.064055,401911,346797
1036.78,0.062966,398410,344639
1040.49,0.062330,396204,343233
1044.2,0.061200,394236,342418
1047.91,0.061435,392042,340328
1051.61,0.060555,389823,339088
1055.31,0.060064,388234,338088
1059,0.059639,387599,337865
1063.92,0.057702,386688,338578
1067.61,0.056735,386598,339254
1071.29,0.056059,387377,340467
1074.96,0.055880,388536,341626
1078.63,0.055289,389855,343253
1082.3,0.053810,391215,345625
1085.96,0.053261,393215,347832
1090.84,0.052486,396270,351160
1094.49,0.052508,398760,353349
1098.14,0.051834,400987,355874
1101.79,0.051297,403477,358527
1105.43,0.051680,406116,360554
1109.06,0.050436,407701,362999
1112.7,0.050800,409859,364615
1117.53,0.050593,412494,367134
1121.15,0.051191,414909,368775
1124.77,0.052147,416559,369428
1128.38,0.053770,418532,369793
1131.99,0.055526,419956,369554
1135.6,0.057779,421946,369384
1139.2,0.059182,423881,369881
1143.99,0.061966,426786,370036
1147.58,0.063688,428617,370153
1151.17,0.064427,431169,371724
1154.75,0.066330,433579,372167
1158.33,0.068229,436264,372838
1161.91,0.070961,439132,372936
1165.48,0.073661,442389,373373
1169.04,0.076742,446101,373845
1173.79,0.080478,451929,375485
1177.34,0.083304,456026,376431
1180.9,0.086271,461306,378197
1184.44,0.087791,467657,382064
1187.99,0.089027,473969,386121
1191.52,0.088290,479856,391580
1195.06,0.087458,487372,398476
1199.76,0.086196,497347,407815
1203.29,0.084933,504311,414730
1206.81,0.083497,511507,422041
1210.33,0.082529,519078,429243
1213.84,0.081450,527163,437014
1217.35,0.080812,534208,443505
1220.85,0.079157,540472,450418
1225.51,0.078113,549929,459403
1229.01,0.077133,556888,466267
1232.5,0.076454,562180,471435
1235.98,0.075512,567975,477328
1239.46,0.074557,574815,484140
1242.94,0.072930,582782,492693
1246.41,0.072545,591476,500486
1251.03,0.071938,604016,511812
1254.5,0.071931,612289,518830
1257.96,0.072348,619125,524120
1261.41,0.073098,624551,527801
1264.86,0.073396,629900,531956
1268.31,0.074034,634345,534923
1271.75,0.075045,638574,537237
1276.33,0.075347,642499,540164
1279.76,0.075070,645905,543374
1283.19,0.074685,648307,545878
1286.61,0.074404,650446,548034
1290.03,0.073577,652132,550501
1293.44,0.073313,653907,552335
1296.85,0.072971,655963,554509
1301.39,0.072557,657349,556210
1304.8,0.072763,657558,556123
1308.19,0.073471,658515,556025
1311.58,0.073021,658804,556846
1314.97,0.073957,659011,555822
1318.36,0.074227,658272,554853
1321.73,0.074991,658022,553668
1326.23,0.075933,657870,552341
1329.6,0.076981,656482,549847
1332.97,0.078122,654926,547104
1336.33,0.079618,653727,544225
1339.69,0.081376,652497,541006
1343.04,0.083717,649913,535967
1346.39,0.085720,647671,531661
1349.73,0.087970,645338,527008
1354.18,0.091511,641175,519356
1357.52,0.093922,638376,514227
1360.85,0.096516,635805,509106
1364.17,0.099325,633413,503921
1367.49,0.102059,631026,498871
1370.81,0.104693,628050,493516
1374.12,0.107324,625034,488180
1378.54,0.111450,620272,479879
1381.84,0.115407,616892,472936
1385.14,0.119689,613613,465807
1388.43,0.125074,611526,458502
1391.72,0.130710,610663,451951
1395.01,0.136028,610634,446430
1398.29,0.142412,611700,440683
1402.66,0.150934,614051,433781
1405.93,0.157386,616268,428927
1409.2,0.163890,617795,423598
1412.46,0.169532,618872,418860
1415.72,0.174683,619795,414539
1418.98,0.179278,620495,410639
1422.23,0.183697,621087,406870
1426.56,0.188777,621375,402325
1429.8,0.191201,621616,400241
1433.04,0.194379,622129,397650
1436.27,0.197205,621526,394688
1439.5,0.198654,621113,393112
1442.72,0.201590,620921,390343
1445.94,0.204298,620270,387510
1450.23,0.208320,618860,383065
1453.44,0.210771,617697,380193
1456.64,0.214001,616264,376501
1459.85,0.217163,614413,372647
1463.04,0.219234,612307,369603
1466.24,0.222773,610032,365241
1469.43,0.226041,607345,360906
1473.67,0.230827,603789,354861
1476.85,0.236299,601175,348901
1480.02,0.242240,597737,342192
1483.19,0.248012,594479,335834
1486.36,0.254326,591232,329179
1489.52,0.259313,587853,323561
1492.68,0.263365,583875,318387
1496.89,0.266320,578062,313079
1500.03,0.267068,574159,310430
1503.18,0.266941,570285,308426
1506.32,0.266323,565444,306243
1509.45,0.265500,560571,304180
1512.58,0.263617,555821,302913
1515.71,0.261955,550344,301078
1519.87,0.258655,543983,299868
1522.99,0.255931,538764,298860
1526.1,0.253171,533692,297934
1529.21,0.249725,527902,297049
1532.32,0.246735,521886,295693
1535.42,0.243504,515888,294477
1538.51,0.240745,509987,292964
1541.6,0.236717,503936,292185
1545.72,0.231904,494694,290023
1548.8,0.228654,488378,288471
1551.88,0.225526,481832,286662
1554.95,0.223924,474989,283635
1558.02,0.222211,467818,280457
1561.08,0.220173,460730,277507
1564.15,0.219558,454170,273943
1568.22,0.219012,444181,268255
1571.27,0.217294,436947,264932
1574.32,0.216738,429598,260810
1577.36,0.214773,422039,257383
1580.4,0.212960,414375,253766
1583.43,0.211255,406354,249833
1586.46,0.209798,398475,245812
1590.49,0.207550,388982,241201
1593.51,0.204526,380708,237720
1596.53,0.201991,372727,234099
1599.54,0.201549,365060,229517
1602.55,0.198224,357543,226519
1605.55,0.195536,349495,222795
1608.55,0.192681,341154,218912
1612.54,0.190490,330877,213391
1615.53,0.188086,322904,209405
1618.51,0.187126,315116,204807
1621.49,0.185680,307217,200339
1624.47,0.183648,299481,196210
1627.44,0.182386,292112,191939
1630.41,0.181058,284245,187342
1634.36,0.178564,274079,181682
1637.32,0.177509,266916,177364
1640.27,0.177347,259612,172575
1643.22,0.175818,251804,167975
1646.16,0.175411,244348,163154
1649.1,0.174495,236703,158383
1652.04,0.172945,228171,153220
1655.95,0.171864,215408,145010
1658.88,0.169892,204937,138589
1661.8,0.167444,193395,131523
1664.72,0.164128,179728,123165
1667.63,0.158669,163642,113560
1670.54,0.152793,146312,102917
1673.44,0.145677,128451,91846
1677.31,0.139662,105080,76183
1680.21,0.135510,88906,65076
1683.1,0.138362,75033,54562
1685.99,0.144003,63520,45594
1688.87,0.151402,53714,37904
1691.75,0.155883,45653,31885
1694.62,0.158402,39137,27176
1697.49,0.168659,33776,22906
1701.31,0.167264,28175,19169