Folder: textile_sorting_NIRSCAN_/samples/wool/wool-000811 (part 15)

File: Column 1_050538_20150331_115424.csv
Method:,Column 1,,
Host Date-Time:,31/3/15 @ 11:54:24,,
Header Version:,1,,
System Temp (C):,31.98,,
Detector Temp (C):,30.32,,
Humidity (%):,3.27,,
Lamp PD:,3825,,
Shift Vector Coefficients:,-10.5391,0.0761263,-0.000134223,,
Pixel to Wavelength Coefficients:,1775.68,-0.916766,-0.000235065,,
Serial Number:,5510004,,
Scan Config Name:,Column 1,,
Scan Config Type:,Slew,,
Section 1,,
Start wavelength (nm):,900,,
End wavelength (nm):,1700,,
Pattern Pixel Width (nm):,   7.03,,,,
Exposure (ms):,  0.635,,,,
Digital Resolution:,228,,
Num Repeats:,6,,
PGA Gain:,64,,
Total Measurement Time in sec:,  2.693,,
Wavelength (nm),Absorbance (AU),Reference Signal (unitless),Sample Signal (unitless)
901.51,0.045364,108485,97725
905.376,0.048493,121306,108490
909.237,0.052085,131909,117001
913.095,0.050835,143299,127470
916.948,0.051977,156982,139275
922.079,0.051430,179937,159842
925.923,0.052164,200504,177811
929.762,0.052801,222660,197170
933.597,0.054559,244426,215570
937.427,0.053857,263972,233185
941.254,0.054516,281845,248596
945.076,0.054232,297271,262374
950.165,0.054378,315605,278462
953.978,0.053384,328029,290087
957.786,0.054806,340470,300105
961.59,0.055169,352317,310288
965.389,0.055383,363056,319588
969.185,0.055657,373162,328277
972.976,0.056408,382632,336026
976.763,0.056901,391202,343163
981.806,0.057640,400190,350450
985.583,0.058797,406088,354669
989.355,0.059031,410162,358034
993.124,0.059101,412868,360338
996.888,0.060069,414263,360751
1000.65,0.060566,415476,361393
1004.4,0.062015,415479,360192
1009.41,0.063228,414358,358218
1013.15,0.063629,412923,356648
1016.89,0.064761,411526,354516
1020.63,0.064318,409066,352757
1024.36,0.063453,406777,351482
1028.09,0.063617,404427,349320
1031.82,0.062896,401911,347723
1036.78,0.062970,398410,344636
1040.49,0.062363,396204,343207
1044.2,0.061601,394236,342102
1047.91,0.060923,392042,340729
1051.61,0.060701,389823,338974
1055.31,0.059833,388234,338268
1059,0.059208,387599,338201
1063.92,0.057662,386688,338609
1067.61,0.056663,386598,339310
1071.29,0.056267,387377,340304
1074.96,0.055822,388536,341672
1078.63,0.055089,389855,343411
1082.3,0.053921,391215,345537
1085.96,0.053091,393215,347968
1090.84,0.052761,396270,350938
1094.49,0.052283,398760,353532
1098.14,0.051423,400987,356211
1101.79,0.051292,403477,358531
1105.43,0.051384,406116,360800
1109.06,0.050499,407701,362947
1112.7,0.050718,409859,364684
1117.53,0.050507,412494,367207
1121.15,0.051640,414909,368394
1124.77,0.052483,416559,369142
1128.38,0.053765,418532,369797
1131.99,0.055365,419956,369691
1135.6,0.057490,421946,369630
1139.2,0.059148,423881,369910
1143.99,0.062443,426786,369630
1147.58,0.063233,428617,370541
1151.17,0.064623,431169,371556
1154.75,0.066773,433579,371788
1158.33,0.068547,436264,372565
1161.91,0.070937,439132,372956
1165.48,0.073841,442389,373219
1169.04,0.076319,446101,374209
1173.79,0.081370,451929,374714
1177.34,0.083945,456026,375876
1180.9,0.086273,461306,378195
1184.44,0.088458,467657,381478
1187.99,0.088814,473969,386310
1191.52,0.088671,479856,391237
1195.06,0.088315,487372,397691
1199.76,0.086360,497347,407661
1203.29,0.085262,504311,414416
1206.81,0.083952,511507,421599
1210.33,0.082940,519078,428837
1213.84,0.081686,527163,436776
1217.35,0.080877,534208,443438
1220.85,0.079357,540472,450211
1225.51,0.078368,549929,459133
1229.01,0.077615,556888,465750
1232.5,0.076894,562180,470957
1235.98,0.075848,567975,476959
1239.46,0.074635,574815,484053
1242.94,0.073348,582782,492219
1246.41,0.072583,591476,500443
1251.03,0.071956,604016,511791
1254.5,0.071955,612289,518802
1257.96,0.072407,619125,524048
1261.41,0.073269,624551,527593
1264.86,0.074018,629900,531194
1268.31,0.074738,634345,534057
1271.75,0.075292,638574,536932
1276.33,0.075478,642499,540001
1279.76,0.075421,645905,542935
1283.19,0.074980,648307,545507
1286.61,0.074454,650446,547970
1290.03,0.073870,652132,550130
1293.44,0.073405,653907,552218
1296.85,0.073479,655963,553860
1301.39,0.072908,657349,555761
1304.8,0.073171,657558,555601
1308.19,0.073475,658515,556020
1311.58,0.073535,658804,556187
1314.97,0.074406,659011,555248
1318.36,0.074669,658272,554289
1321.73,0.075148,658022,553468
1326.23,0.076412,657870,551732
1329.6,0.077386,656482,549335
1332.97,0.078916,654926,546105
1336.33,0.079817,653727,543975
1339.69,0.082122,652497,540078
1343.04,0.083850,649913,535803
1346.39,0.086811,647671,530327
1349.73,0.088717,645338,526102
1354.18,0.092580,641175,518080
1357.52,0.094951,638376,513010
1360.85,0.097535,635805,507913
1364.17,0.099553,633413,503656
1367.49,0.102562,631026,498294
1370.81,0.105198,628050,492942
1374.12,0.107675,625034,487785
1378.54,0.111641,620272,479669
1381.84,0.115738,616892,472575
1385.14,0.120716,613613,464706
1388.43,0.126270,611526,457241
1391.72,0.131403,610663,451231
1395.01,0.136903,610634,445531
1398.29,0.143603,611700,439476
1402.66,0.153143,614051,431580
1405.93,0.159848,616268,426503
1409.2,0.166068,617795,421479
1412.46,0.172333,618872,416167
1415.72,0.177721,619795,411649
1418.98,0.182336,620495,407758
1422.23,0.186723,621087,404045
1426.56,0.191147,621375,400135
1429.8,0.194964,621616,396788
1433.04,0.198009,622129,394341
1436.27,0.200365,621526,391827
1439.5,0.202551,621113,389601
1442.72,0.205325,620921,387000
1445.94,0.208074,620270,384155
1450.23,0.211997,618860,379835
1453.44,0.214430,617697,377004
1456.64,0.217427,616264,373542
1459.85,0.219961,614413,370254
1463.04,0.222272,612307,367026
1466.24,0.225179,610032,363223
1469.43,0.228731,607345,358678
1473.67,0.233253,603789,352884
1476.85,0.238205,601175,347373
1480.02,0.243966,597737,340835
1483.19,0.250541,594479,333884
1486.36,0.255484,591232,328302
1489.52,0.261151,587853,322194
1492.68,0.264738,583875,317382
1496.89,0.267258,578062,312404
1500.03,0.267641,574159,310021
1503.18,0.268774,570285,307127
1506.32,0.267922,565444,305118
1509.45,0.267108,560571,303056
1512.58,0.265885,555821,301335
1515.71,0.263365,550344,300102
1519.87,0.260176,543983,298820
1522.99,0.257704,538764,297642
1526.1,0.254600,533692,296955
1529.21,0.251383,527902,295917
1532.32,0.248688,521886,294366
1535.42,0.244959,515888,293492
1538.51,0.241764,509987,292277
1541.6,0.239501,503936,290318
1545.72,0.233905,494694,288690
1548.8,0.231244,488378,286756
1551.88,0.227591,481832,285302
1554.95,0.224797,474989,283065
1558.02,0.223218,467818,279807
1561.08,0.221729,460730,276514
1564.15,0.221489,454170,272728
1568.22,0.219871,444181,267725
1571.27,0.219073,436947,263849
1574.32,0.218216,429598,259924
1577.36,0.216346,422039,256452
1580.4,0.214644,414375,252784
1583.43,0.212613,406354,249053
1586.46,0.213038,398475,243985
1590.49,0.209082,388982,240352
1593.51,0.209463,380708,235033
1596.53,0.204570,372727,232713
1599.54,0.201983,365060,229288
1602.55,0.199514,357543,225847
1605.55,0.196842,349495,222126
1608.55,0.193674,341154,218412
1612.54,0.191660,330877,212817
1615.53,0.189378,322904,208783
1618.51,0.188066,315116,204364
1621.49,0.186157,307217,200119
1624.47,0.184022,299481,196041
1627.44,0.182594,292112,191847
1630.41,0.181891,284245,186983
1634.36,0.180334,274079,180943
1637.32,0.179849,266916,176411
1640.27,0.178806,259612,171996
1643.22,0.177613,251804,167282
1646.16,0.177220,244348,162476
1649.1,0.176036,236703,157822
1652.04,0.175929,228171,152171
1655.95,0.173469,215408,144475
1658.88,0.172100,204937,137886
1661.8,0.170628,193395,130562
1664.72,0.167616,179728,122180
1667.63,0.162750,163642,112498
1670.54,0.159576,146312,101322
1673.44,0.155287,128451,89836
1677.31,0.151719,105080,74097
1680.21,0.152738,88906,62545
1683.1,0.152479,75033,52817
1685.99,0.156821,63520,44268
1688.87,0.169249,53714,36378
1691.75,0.166639,45653,31105
1694.62,0.171313,39137,26380
1697.49,0.167712,33776,22956
1701.31,0.189030,28175,18232

File: Column 1_050539_20150331_115427.csv
Method:,Column 1,,
Host Date-Time:,31/3/15 @ 11:54:27,,
Header Version:,1,,
System Temp (C):,32.02,,
Detector Temp (C):,30.32,,
Humidity (%):,3.22,,
Lamp PD:,3825,,
Shift Vector Coefficients:,-10.5391,0.0761263,-0.000134223,,
Pixel to Wavelength Coefficients:,1775.68,-0.916766,-0.000235065,,
Serial Number:,5510004,,
Scan Config Name:,Column 1,,
Scan Config Type:,Slew,,
Section 1,,
Start wavelength (nm):,900,,
End wavelength (nm):,1700,,
Pattern Pixel Width (nm):,   7.03,,,,
Exposure (ms):,  0.635,,,,
Digital Resolution:,228,,
Num Repeats:,6,,
PGA Gain:,64,,
Total Measurement Time in sec:,  2.679,,
Wavelength (nm),Absorbance (AU),Reference Signal (unitless),Sample Signal (unitless)
901.51,0.043856,108485,98065
905.376,0.050945,121306,107879
909.237,0.052048,131909,117011
913.095,0.051633,143299,127236
916.948,0.051811,156982,139328
922.079,0.051315,179937,159884
925.923,0.052225,200504,177786
929.762,0.052960,222660,197098
933.597,0.053412,244426,216140
937.427,0.053156,263972,233562
941.254,0.053821,281845,248994
945.076,0.053820,297271,262623
950.165,0.053963,315605,278728
953.978,0.053505,328029,290006
957.786,0.053943,340470,300702
961.59,0.054232,352317,310958
965.389,0.055098,363056,319798
969.185,0.055120,373162,328683
972.976,0.055880,382632,336435
976.763,0.056927,391202,343142
981.806,0.056964,400190,350996
985.583,0.057866,406088,355430
989.355,0.058809,410162,358217
993.124,0.058361,412868,360953
996.888,0.059578,414263,361159
1000.65,0.059794,415476,362036
1004.4,0.061586,415479,360548
1009.41,0.063522,414358,357976
1013.15,0.063884,412923,356439
1016.89,0.064082,411526,355071
1020.63,0.063424,409066,353484
1024.36,0.063532,406777,351418
1028.09,0.063267,404427,349601
1031.82,0.063125,401911,347540
1036.78,0.062973,398410,344633
1040.49,0.062107,396204,343409
1044.2,0.060937,394236,342625
1047.91,0.061457,392042,340311
1051.61,0.060449,389823,339171
1055.31,0.059813,388234,338283
1059,0.058489,387599,338761
1063.92,0.057284,386688,338904
1067.61,0.056305,386598,339590
1071.29,0.055672,387377,340770
1074.96,0.055226,388536,342141
1078.63,0.054330,389855,344012
1082.3,0.053302,391215,346030
1085.96,0.052632,393215,348336
1090.84,0.051925,396270,351614
1094.49,0.051857,398760,353879
1098.14,0.051847,400987,355863
1101.79,0.051085,403477,358702
1105.43,0.051156,406116,360989
1109.06,0.050740,407701,362745
1112.7,0.050280,409859,365052
1117.53,0.050391,412494,367305
1121.15,0.051524,414909,368493
1124.77,0.052191,416559,369390
1128.38,0.053595,418532,369942
1131.99,0.054862,419956,370119
1135.6,0.057114,421946,369950
1139.2,0.059278,423881,369799
1143.99,0.062087,426786,369933
1147.58,0.062903,428617,370823
1151.17,0.064738,431169,371458
1154.75,0.065821,433579,372604
1158.33,0.068282,436264,372793
1161.91,0.070246,439132,373550
1165.48,0.073583,442389,373440
1169.04,0.076274,446101,374248
1173.79,0.080451,451929,375508
1177.34,0.083477,456026,376281
1180.9,0.085583,461306,378797
1184.44,0.087827,467657,382033
1187.99,0.088368,473969,386707
1191.52,0.088216,479856,391647
1195.06,0.087579,487372,398365
1199.76,0.085931,497347,408064
1203.29,0.084435,504311,415206
1206.81,0.083415,511507,422121
1210.33,0.082181,519078,429587
1213.84,0.081090,527163,437376
1217.35,0.080371,534208,443955
1220.85,0.078606,540472,450990
1225.51,0.077543,549929,460006
1229.01,0.077162,556888,466236
1232.5,0.076149,562180,471766
1235.98,0.075083,567975,477800
1239.46,0.074125,574815,484622
1242.94,0.073194,582782,492393
1246.41,0.072246,591476,500831
1251.03,0.071439,604016,512400
1254.5,0.071926,612289,518836
1257.96,0.072195,619125,524304
1261.41,0.072768,624551,528202
1264.86,0.073413,629900,531935
1268.31,0.074059,634345,534892
1271.75,0.075118,638574,537147
1276.33,0.075017,642499,540574
1279.76,0.075319,645905,543062
1283.19,0.074559,648307,546036
1286.61,0.074225,650446,548260
1290.03,0.073400,652132,550726
1293.44,0.073166,653907,552522
1296.85,0.073105,655963,554337
1301.39,0.072977,657349,555673
1304.8,0.073005,657558,555813
1308.19,0.072993,658515,556638
1311.58,0.073192,658804,556627
1314.97,0.073828,659011,555987
1318.36,0.074607,658272,554368
1321.73,0.074928,658022,553748
1326.23,0.075860,657870,552433
1329.6,0.077353,656482,549376
1332.97,0.077958,654926,547311
1336.33,0.079695,653727,544128
1339.69,0.081465,652497,540896
1343.04,0.083396,649913,536363
1346.39,0.086079,647671,531221
1349.73,0.088376,645338,526516
1354.18,0.092039,641175,518725
1357.52,0.094370,638376,513697
1360.85,0.096984,635805,508557
1364.17,0.099445,633413,503781
1367.49,0.101705,631026,499278
1370.81,0.105163,628050,492982
1374.12,0.107673,625034,487787
1378.54,0.111507,620272,479816
1381.84,0.115803,616892,472505
1385.14,0.119897,613613,465584
1388.43,0.126132,611526,457386
1391.72,0.131252,610663,451388
1395.01,0.137601,610634,444816
1398.29,0.143545,611700,439535
1402.66,0.152739,614051,431982
1405.93,0.159182,616268,427157
1409.2,0.166079,617795,421469
1412.46,0.171887,618872,416595
1415.72,0.177523,619795,411837
1418.98,0.182296,620495,407795
1422.23,0.186486,621087,404265
1426.56,0.190931,621375,400334
1429.8,0.194247,621616,397443
1433.04,0.197624,622129,394690
1436.27,0.199848,621526,392294
1439.5,0.201670,621113,390392
1442.72,0.205156,620921,387151
1445.94,0.207489,620270,384673
1450.23,0.210872,618860,380821
1453.44,0.214083,617697,377305
1456.64,0.217090,616264,373832
1459.85,0.219532,614413,370620
1463.04,0.222253,612307,367042
1466.24,0.225314,610032,363110
1469.43,0.228358,607345,358986
1473.67,0.233435,603789,352736
1476.85,0.238584,601175,347070
1480.02,0.243821,597737,340949
1483.19,0.250147,594479,334187
1486.36,0.255307,591232,328436
1489.52,0.260576,587853,322621
1492.68,0.264270,583875,317724
1496.89,0.267654,578062,312119
1500.03,0.267658,574159,310009
1503.18,0.268839,570285,307081
1506.32,0.267963,565444,305089
1509.45,0.266343,560571,303590
1512.58,0.265730,555821,301443
1515.71,0.263080,550344,300299
1519.87,0.259663,543983,299173
1522.99,0.256913,538764,298185
1526.1,0.254324,533692,297144
1529.21,0.251953,527902,295529
1532.32,0.248566,521886,294449
1535.42,0.244554,515888,293766
1538.51,0.241197,509987,292659
1541.6,0.238553,503936,290953
1545.72,0.233068,494694,289247
1548.8,0.229757,488378,287739
1551.88,0.226802,481832,285821
1554.95,0.225987,474989,282291
1558.02,0.223268,467818,279775
1561.08,0.221080,460730,276928
1564.15,0.221353,454170,272813
1568.22,0.219121,444181,268188
1571.27,0.218863,436947,263977
1574.32,0.217717,429598,260223
1577.36,0.216077,422039,256611
1580.4,0.214945,414375,252609
1583.43,0.212489,406354,249124
1586.46,0.210473,398475,245430
1590.49,0.207790,388982,241068
1593.51,0.206374,380708,236711
1596.53,0.203344,372727,233371
1599.54,0.201339,365060,229628
1602.55,0.199256,357543,225981
1605.55,0.195846,349495,222636
1608.55,0.194143,341154,218176
1612.54,0.191626,330877,212834
1615.53,0.188944,322904,208992
1618.51,0.187454,315116,204652
1621.49,0.184909,307217,200695
1624.47,0.183748,299481,196165
1627.44,0.183016,292112,191661
1630.41,0.181359,284245,187212
1634.36,0.180649,274079,180812
1637.32,0.178716,266916,176872
1640.27,0.177750,259612,172415
1643.22,0.176537,251804,167697
1646.16,0.176530,244348,162734
1649.1,0.175819,236703,157901
1652.04,0.174621,228171,152630
1655.95,0.173493,215408,144467
1658.88,0.171549,204937,138061
1661.8,0.169801,193395,130811
1664.72,0.167868,179728,122109
1667.63,0.163608,163642,112276
1670.54,0.158314,146312,101617
1673.44,0.154929,128451,89910
1677.31,0.151585,105080,74120
1680.21,0.153086,88906,62495
1683.1,0.152692,75033,52791
1685.99,0.163175,63520,43625
1688.87,0.161499,53714,37033
1691.75,0.168150,45653,30997
1694.62,0.172450,39137,26311
1697.49,0.176136,33776,22515
1701.31,0.177721,28175,18713

File: Column 1_050539_20150331_115429.csv
Method:,Column 1,,
Host Date-Time:,31/3/15 @ 11:54:29,,
Header Version:,1,,
System Temp (C):,32.03,,
Detector Temp (C):,30.37,,
Humidity (%):,3.22,,
Lamp PD:,3825,,
Shift Vector Coefficients:,-10.5391,0.0761263,-0.000134223,,
Pixel to Wavelength Coefficients:,1775.68,-0.916766,-0.000235065,,
Serial Number:,5510004,,
Scan Config Name:,Column 1,,
Scan Config Type:,Slew,,
Section 1,,
Start wavelength (nm):,900,,
End wavelength (nm):,1700,,
Pattern Pixel Width (nm):,   7.03,,,,
Exposure (ms):,  0.635,,,,
Digital Resolution:,228,,
Num Repeats:,6,,
PGA Gain:,64,,
Total Measurement Time in sec:,  2.676,,
Wavelength (nm),Absorbance (AU),Reference Signal (unitless),Sample Signal (unitless)
901.51,0.044600,108485,97897
905.376,0.049711,121306,108186
909.237,0.052512,131909,116886
913.095,0.050532,143299,127559
916.948,0.050371,156982,139791
922.079,0.051435,179937,159840
925.923,0.050395,200504,178537
929.762,0.051343,222660,197833
933.597,0.051850,244426,216919
937.427,0.051773,263972,234307
941.254,0.052762,281845,249602
945.076,0.052029,297271,263708
950.165,0.053292,315605,279159
953.978,0.053043,328029,290315
957.786,0.053155,340470,301248
961.59,0.053939,352317,311168
965.389,0.054068,363056,320557
969.185,0.054826,373162,328906
972.976,0.055114,382632,337029
976.763,0.055745,391202,344077
981.806,0.055920,400190,351841
985.583,0.057103,406088,356055
989.355,0.057600,410162,359216
993.124,0.057973,412868,361275
996.888,0.058557,414263,362009
1000.65,0.059739,415476,362082
1004.4,0.060792,415479,361208
1009.41,0.061603,414358,359561
1013.15,0.062649,412923,357454
1016.89,0.063309,411526,355704
1020.63,0.063079,409066,353765
1024.36,0.062625,406777,352153
1028.09,0.062463,404427,350249
1031.82,0.062255,401911,348237
1036.78,0.061645,398410,345689
1040.49,0.060470,396204,344706
1044.2,0.060874,394236,342675
1047.91,0.059950,392042,341494
1051.61,0.059281,389823,340084
1055.31,0.058282,388234,339478
1059,0.057548,387599,339496
1063.92,0.056909,386688,339197
1067.61,0.055708,386598,340057
1071.29,0.055153,387377,341178
1074.96,0.054169,388536,342975
1078.63,0.053677,389855,344529
1082.3,0.052650,391215,346550
1085.96,0.051913,393215,348913
1090.84,0.051244,396270,352166
1094.49,0.050915,398760,354647
1098.14,0.051034,400987,356530
1101.79,0.050159,403477,359468
1105.43,0.050056,406116,361905
1109.06,0.049665,407701,363644
1112.7,0.049305,409859,365872
1117.53,0.049512,412494,368049
1121.15,0.050323,414909,369513
1124.77,0.051132,416559,370292
1128.38,0.051976,418532,371324
1131.99,0.053768,419956,371053
1135.6,0.056619,421946,370372
1139.2,0.058151,423881,370760
1143.99,0.061354,426786,370558
1147.58,0.062831,428617,370884
1151.17,0.064036,431169,372059
1154.75,0.065341,433579,373016
1158.33,0.067230,436264,373697
1161.91,0.069916,439132,373834
1165.48,0.072797,442389,374117
1169.04,0.075732,446101,374715
1173.79,0.079708,451929,376151
1177.34,0.082889,456026,376791
1180.9,0.085143,461306,379181
1184.44,0.087277,467657,382517
1187.99,0.087922,473969,387104
1191.52,0.087467,479856,392323
1195.06,0.086879,487372,399008
1199.76,0.085346,497347,408614
1203.29,0.083950,504311,415670
1206.81,0.083565,511507,421975
1210.33,0.081804,519078,429961
1213.84,0.080789,527163,437679
1217.35,0.079777,534208,444563
1220.85,0.078402,540472,451202
1225.51,0.077319,549929,460243
1229.01,0.076290,556888,467173
1232.5,0.075715,562180,472237
1235.98,0.075018,567975,477872
1239.46,0.073586,574815,485224
1242.94,0.072843,582782,492791
1246.41,0.071472,591476,501724
1251.03,0.071113,604016,512785
1254.5,0.071540,612289,519298
1257.96,0.071872,619125,524694
1261.41,0.072244,624551,528840
1264.86,0.073027,629900,532408
1268.31,0.073032,634345,536159
1271.75,0.074144,638574,538353
1276.33,0.074483,642499,541240
1279.76,0.074638,645905,543914
1283.19,0.073760,648307,547042
1286.61,0.073637,650446,549003
1290.03,0.073245,652132,550923
1293.44,0.072526,653907,553337
1296.85,0.072447,655963,555178
1301.39,0.072308,657349,556529
1304.8,0.072558,657558,556386
1308.19,0.072879,658515,556784
1311.58,0.072965,658804,556918
1314.97,0.073676,659011,556182
1318.36,0.074094,658272,555024
1321.73,0.074102,658022,554803
1326.23,0.075821,657870,552483
1329.6,0.076431,656482,550544
1332.97,0.077648,654926,547702
1336.33,0.078778,653727,545279
1339.69,0.080945,652497,541544
1343.04,0.082804,649913,537095
1346.39,0.085698,647671,531687
1349.73,0.088064,645338,526894
1354.18,0.091338,641175,519563
1357.52,0.094085,638376,514034
1360.85,0.096203,635805,509473
1364.17,0.098856,633413,504465
1367.49,0.101334,631026,499705
1370.81,0.104052,628050,494245
1374.12,0.107185,625034,488336
1378.54,0.111271,620272,480077
1381.84,0.114957,616892,473426
1385.14,0.119657,613613,465841
1388.43,0.124797,611526,458794
1391.72,0.131056,610663,451591
1395.01,0.136453,610634,445993
1398.29,0.142934,611700,440154
1402.66,0.151824,614051,432893
1405.93,0.158315,616268,428011
1409.2,0.165046,617795,422472
1412.46,0.171015,618872,417432
1415.72,0.176861,619795,412465
1418.98,0.181549,620495,408497
1422.23,0.185912,621087,404800
1426.56,0.190688,621375,400558
1429.8,0.193456,621616,398168
1433.04,0.196755,622129,395481
1436.27,0.199070,621526,392997
1439.5,0.201072,621113,390930
1442.72,0.204037,620921,388150
1445.94,0.207012,620270,385096
1450.23,0.210543,618860,381109
1453.44,0.213799,617697,377552
1456.64,0.215923,616264,374838
1459.85,0.218789,614413,371254
1463.04,0.221542,612307,367644
1466.24,0.224560,610032,363741
1469.43,0.228328,607345,359011
1473.67,0.232357,603789,353613
1476.85,0.238005,601175,347533
1480.02,0.243128,597737,341493
1483.19,0.249102,594479,334992
1486.36,0.254966,591232,328694
1489.52,0.259467,587853,323446
1492.68,0.263622,583875,318198
1496.89,0.266826,578062,312715
1500.03,0.267561,574159,310078
1503.18,0.266880,570285,308469
1506.32,0.267145,565444,305664
1509.45,0.266576,560571,303427
1512.58,0.264243,555821,302477
1515.71,0.262221,550344,300894
1519.87,0.259144,543983,299531
1522.99,0.256597,538764,298402
1526.1,0.253629,533692,297620
1529.21,0.250451,527902,296553
1532.32,0.247465,521886,295196
1535.42,0.244341,515888,293910
1538.51,0.241671,509987,292340
1541.6,0.237421,503936,291712
1545.72,0.232075,494694,289909
1548.8,0.229335,488378,288019
1551.88,0.226404,481832,286083
1554.95,0.224164,474989,283478
1558.02,0.222406,467818,280331
1561.08,0.221004,460730,276976
1564.15,0.219947,454170,273698
1568.22,0.218944,444181,268297
1571.27,0.218246,436947,264352
1574.32,0.216903,429598,260711
1577.36,0.214690,422039,257432
1580.4,0.214211,414375,253036
1583.43,0.212459,406354,249141
1586.46,0.210330,398475,245511
1590.49,0.207374,388982,241299
1593.51,0.205558,380708,237156
1596.53,0.202996,372727,233558
1599.54,0.200270,365060,230194
1602.55,0.197739,357543,226772
1605.55,0.195006,349495,223067
1608.55,0.193145,341154,218678
1612.54,0.191128,330877,213078
1615.53,0.188665,322904,209126
1618.51,0.186634,315116,205039
1621.49,0.185519,307217,200413
1624.47,0.184175,299481,195972
1627.44,0.182760,292112,191774
1630.41,0.181303,284245,187236
1634.36,0.180341,274079,180940
1637.32,0.177864,266916,177219
1640.27,0.176663,259612,172847
1643.22,0.176638,251804,167658
1646.16,0.174252,244348,163590
1649.1,0.175170,236703,158137
1652.04,0.174157,228171,152793
1655.95,0.170611,215408,145429
1658.88,0.170086,204937,138527
1661.8,0.169466,193395,130912
1664.72,0.167875,179728,122107
1667.63,0.162754,163642,112497
1670.54,0.157464,146312,101816
1673.44,0.154398,128451,90020
1677.31,0.152999,105080,73879
1680.21,0.150294,88906,62898
1683.1,0.153870,75033,52648
1685.99,0.159991,63520,43946
1688.87,0.160409,53714,37126
1691.75,0.162263,45653,31420
1694.62,0.170113,39137,26453
1697.49,0.169855,33776,22843
1701.31,0.171865,28175,18967