Folder: textile_sorting_NIRSCAN_/samples/wool/wool-000811 (part 124)

File: Column 1_050600_20150331_122347.csv
Method:,Column 1,,
Host Date-Time:,31/3/15 @ 12:23:47,,
Header Version:,1,,
System Temp (C):,34,,
Detector Temp (C):,34.74,,
Humidity (%):,1.76,,
Lamp PD:,3818,,
Shift Vector Coefficients:,-10.5391,0.0761263,-0.000134223,,
Pixel to Wavelength Coefficients:,1775.68,-0.916766,-0.000235065,,
Serial Number:,5510004,,
Scan Config Name:,Column 1,,
Scan Config Type:,Slew,,
Section 1,,
Start wavelength (nm):,900,,
End wavelength (nm):,1700,,
Pattern Pixel Width (nm):,   7.03,,,,
Exposure (ms):,  0.635,,,,
Digital Resolution:,228,,
Num Repeats:,6,,
PGA Gain:,64,,
Total Measurement Time in sec:,  2.723,,
Wavelength (nm),Absorbance (AU),Reference Signal (unitless),Sample Signal (unitless)
901.51,0.068914,108485,92567
905.376,0.075027,121306,102060
909.237,0.076390,131909,110633
913.095,0.077913,143299,119765
916.948,0.078436,156982,131043
922.079,0.081279,179937,149225
925.923,0.082790,200504,165704
929.762,0.082282,222660,184230
933.597,0.082985,244426,201912
937.427,0.081771,263972,218669
941.254,0.080707,281845,234047
945.076,0.079546,297271,247518
950.165,0.078594,315605,263360
953.978,0.077978,328029,274116
957.786,0.078212,340470,284359
961.59,0.078465,352317,294082
965.389,0.078220,363056,303217
969.185,0.078340,373162,311571
972.976,0.078769,382632,319163
976.763,0.078984,391202,326150
981.806,0.079864,400190,332968
985.583,0.079905,406088,337843
989.355,0.080730,410162,340585
993.124,0.080865,412868,342725
996.888,0.081910,414263,343057
1000.65,0.082500,415476,343594
1004.4,0.082931,415479,343256
1009.41,0.085162,414358,340576
1013.15,0.084958,412923,339556
1016.89,0.085599,411526,337908
1020.63,0.085194,409066,336201
1024.36,0.085245,406777,334281
1028.09,0.085126,404427,332441
1031.82,0.085238,401911,330287
1036.78,0.085119,398410,327500
1040.49,0.084803,396204,325924
1044.2,0.084975,394236,324176
1047.91,0.084488,392042,322734
1051.61,0.084023,389823,321251
1055.31,0.083954,388234,319992
1059,0.083187,387599,320034
1063.92,0.082568,386688,319737
1067.61,0.081826,386598,320209
1071.29,0.081494,387377,321100
1074.96,0.081275,388536,322223
1078.63,0.080661,389855,323774
1082.3,0.079530,391215,325751
1085.96,0.078428,393215,328248
1090.84,0.077793,396270,331282
1094.49,0.077064,398760,333924
1098.14,0.076721,400987,336054
1101.79,0.076317,403477,338456
1105.43,0.076214,406116,340750
1109.06,0.075438,407701,342692
1112.7,0.074643,409859,345137
1117.53,0.074337,412494,347601
1121.15,0.075254,414909,348898
1124.77,0.074986,416559,350502
1128.38,0.076325,418532,351078
1131.99,0.076988,419956,351735
1135.6,0.078635,421946,352064
1139.2,0.079746,423881,352775
1143.99,0.081567,426786,353707
1147.58,0.082425,428617,354523
1151.17,0.083604,431169,355667
1154.75,0.084632,433579,356809
1158.33,0.086165,436264,357754
1161.91,0.087077,439132,359350
1165.48,0.089369,442389,360110
1169.04,0.091552,446101,361311
1173.79,0.095407,451929,362797
1177.34,0.097629,456026,364217
1180.9,0.099408,461306,366928
1184.44,0.101188,467657,370458
1187.99,0.102435,473969,374382
1191.52,0.102050,479856,379368
1195.06,0.101772,487372,385557
1199.76,0.101722,497347,393493
1203.29,0.100910,504311,399750
1206.81,0.100178,511507,406138
1210.33,0.099639,519078,412661
1213.84,0.099286,527163,419429
1217.35,0.098596,534208,425711
1220.85,0.097631,540472,431660
1225.51,0.096808,549929,440047
1229.01,0.096834,556888,445588
1232.5,0.096101,562180,450583
1235.98,0.095841,567975,455500
1239.46,0.094217,574815,462712
1242.94,0.093711,582782,469673
1246.41,0.092572,591476,477931
1251.03,0.092686,604016,487936
1254.5,0.092591,612289,494727
1257.96,0.092889,619125,499907
1261.41,0.093909,624551,503105
1264.86,0.094117,629900,507171
1268.31,0.094728,634345,510032
1271.75,0.095554,638574,512457
1276.33,0.095830,642499,515279
1279.76,0.095681,645905,518188
1283.19,0.095156,648307,520744
1286.61,0.094764,650446,522935
1290.03,0.094237,652132,524926
1293.44,0.093981,653907,526666
1296.85,0.093946,655963,528364
1301.39,0.093337,657349,530223
1304.8,0.093197,657558,530563
1308.19,0.093295,658515,531216
1311.58,0.093489,658804,531211
1314.97,0.094071,659011,530667
1318.36,0.094712,658272,529290
1321.73,0.094623,658022,529197
1326.23,0.095932,657870,527483
1329.6,0.096815,656482,525301
1332.97,0.097396,654926,523355
1336.33,0.098399,653727,521192
1339.69,0.099803,652497,518532
1343.04,0.101471,649913,514499
1346.39,0.103170,647671,510722
1349.73,0.105286,645338,506409
1354.18,0.107963,641175,500050
1357.52,0.109921,638376,495628
1360.85,0.111891,635805,491397
1364.17,0.113635,633413,487587
1367.49,0.116275,631026,482805
1370.81,0.118449,628050,478129
1374.12,0.120930,625034,473123
1378.54,0.123820,620272,466404
1381.84,0.126593,616892,460910
1385.14,0.129816,613613,455070
1388.43,0.133700,611526,449485
1391.72,0.137778,610663,444655
1395.01,0.141882,610634,440452
1398.29,0.146372,611700,436683
1402.66,0.152642,614051,432078
1405.93,0.157901,616268,428419
1409.2,0.162637,617795,424822
1412.46,0.167097,618872,421215
1415.72,0.171275,619795,417804
1418.98,0.175320,620495,414399
1422.23,0.178350,621087,411910
1426.56,0.182238,621375,408428
1429.8,0.184733,621616,406246
1433.04,0.187370,622129,404120
1436.27,0.189443,621526,401806
1439.5,0.191510,621113,399632
1442.72,0.193995,620921,397229
1445.94,0.196243,620270,394764
1450.23,0.199849,618860,390610
1453.44,0.202673,617697,387349
1456.64,0.205053,616264,384338
1459.85,0.207760,614413,380803
1463.04,0.210996,612307,376681
1466.24,0.214548,610032,372224
1469.43,0.218283,607345,367411
1473.67,0.223509,603789,360891
1476.85,0.229112,601175,354723
1480.02,0.234920,597737,348009
1483.19,0.241526,594479,340887
1486.36,0.247123,591232,334684
1489.52,0.251601,587853,329358
1492.68,0.254971,583875,324600
1496.89,0.257391,578062,319583
1500.03,0.257893,574159,317058
1503.18,0.257849,570285,314951
1506.32,0.257095,565444,312820
1509.45,0.255750,560571,311086
1512.58,0.254055,555821,309656
1515.71,0.251423,550344,308469
1519.87,0.248349,543983,307069
1522.99,0.246126,538764,305684
1526.1,0.243388,533692,304721
1529.21,0.240655,527902,303318
1532.32,0.238052,521886,301664
1535.42,0.235515,515888,299944
1538.51,0.232206,509987,298781
1541.6,0.229140,503936,297328
1545.72,0.224940,494694,294711
1548.8,0.222360,488378,292682
1551.88,0.220739,481832,289839
1554.95,0.218372,474989,287284
1558.02,0.216583,467818,284115
1561.08,0.214522,460730,281141
1564.15,0.214892,454170,276902
1568.22,0.214080,444181,271319
1571.27,0.212986,436947,267573
1574.32,0.212702,429598,263245
1577.36,0.210645,422039,259841
1580.4,0.209770,414375,255637
1583.43,0.208335,406354,251518
1586.46,0.207567,398475,247078
1590.49,0.205205,388982,242507
1593.51,0.202740,380708,238700
1596.53,0.200817,372727,234733
1599.54,0.199464,365060,230622
1602.55,0.196972,357543,227173
1605.55,0.195259,349495,222937
1608.55,0.193157,341154,218672
1612.54,0.191000,330877,213141
1615.53,0.189301,322904,208820
1618.51,0.188347,315116,204232
1621.49,0.187849,307217,199341
1624.47,0.186212,299481,195055
1627.44,0.185691,292112,190484
1630.41,0.185539,284245,185419
1634.36,0.183067,274079,179808
1637.32,0.182236,266916,175444
1640.27,0.181136,259612,171076
1643.22,0.180087,251804,166332
1646.16,0.179573,244348,161598
1649.1,0.180295,236703,156282
1652.04,0.176897,228171,151832
1655.95,0.174691,215408,144069
1658.88,0.171892,204937,137952
1661.8,0.165329,193395,132165
1664.72,0.157914,179728,124940
1667.63,0.145275,163642,117117
1670.54,0.132122,146312,107934
1673.44,0.115601,128451,98432
1677.31,0.093432,105080,84740
1680.21,0.081699,88906,73660
1683.1,0.077514,75033,62768
1685.99,0.078323,63520,53038
1688.87,0.082597,53714,44411
1691.75,0.086157,45653,37438
1694.62,0.094153,39137,31509
1697.49,0.098485,33776,26923
1701.31,0.102768,28175,22238

File: Column 1_050601_20150331_122352.csv
Method:,Column 1,,
Host Date-Time:,31/3/15 @ 12:23:52,,
Header Version:,1,,
System Temp (C):,33.97,,
Detector Temp (C):,34.8,,
Humidity (%):,1.76,,
Lamp PD:,3818,,
Shift Vector Coefficients:,-10.5391,0.0761263,-0.000134223,,
Pixel to Wavelength Coefficients:,1775.68,-0.916766,-0.000235065,,
Serial Number:,5510004,,
Scan Config Name:,Column 1,,
Scan Config Type:,Slew,,
Section 1,,
Start wavelength (nm):,900,,
End wavelength (nm):,1700,,
Pattern Pixel Width (nm):,   7.03,,,,
Exposure (ms):,  0.635,,,,
Digital Resolution:,228,,
Num Repeats:,6,,
PGA Gain:,64,,
Total Measurement Time in sec:,  2.676,,
Wavelength (nm),Absorbance (AU),Reference Signal (unitless),Sample Signal (unitless)
901.51,0.067597,108485,92848
905.376,0.072325,121306,102697
909.237,0.076916,131909,110499
913.095,0.077026,143299,120010
916.948,0.078589,156982,130997
922.079,0.079194,179937,149943
925.923,0.080307,200504,166654
929.762,0.082131,222660,184294
933.597,0.081692,244426,202514
937.427,0.079382,263972,219875
941.254,0.079346,281845,234782
945.076,0.079284,297271,247667
950.165,0.078601,315605,263356
953.978,0.077321,328029,274531
957.786,0.077699,340470,284695
961.59,0.077931,352317,294444
965.389,0.077662,363056,303607
969.185,0.078243,373162,311641
972.976,0.078245,382632,319548
976.763,0.078477,391202,326531
981.806,0.078725,400190,333842
985.583,0.079665,406088,338030
989.355,0.079876,410162,341255
993.124,0.080413,412868,343082
996.888,0.081291,414263,343546
1000.65,0.081722,415476,344210
1004.4,0.082906,415479,343276
1009.41,0.083601,414358,341802
1013.15,0.084630,412923,339812
1016.89,0.085319,411526,338126
1020.63,0.084533,409066,336713
1024.36,0.085024,406777,334451
1028.09,0.084530,404427,332897
1031.82,0.085463,401911,330116
1036.78,0.084679,398410,327832
1040.49,0.084262,396204,326330
1044.2,0.083802,394236,325053
1047.91,0.083630,392042,323372
1051.61,0.083512,389823,321629
1055.31,0.082955,388234,320729
1059,0.082814,387599,320309
1063.92,0.081561,386688,320479
1067.61,0.080918,386598,320879
1071.29,0.080603,387377,321759
1074.96,0.080176,388536,323039
1078.63,0.079734,389855,324466
1082.3,0.078463,391215,326552
1085.96,0.078424,393215,328251
1090.84,0.077081,396270,331826
1094.49,0.076092,398760,334672
1098.14,0.076258,400987,336413
1101.79,0.075515,403477,339081
1105.43,0.075201,406116,341546
1109.06,0.073884,407701,343920
1112.7,0.074091,409859,345576
1117.53,0.073951,412494,347910
1121.15,0.074191,414909,349753
1124.77,0.074133,416559,351191
1128.38,0.075824,418532,351483
1131.99,0.076475,419956,352151
1135.6,0.077626,421946,352883
1139.2,0.079212,423881,353209
1143.99,0.081483,426786,353775
1147.58,0.082176,428617,354726
1151.17,0.082523,431169,356553
1154.75,0.084485,433579,356930
1158.33,0.085740,436264,358104
1161.91,0.087081,439132,359347
1165.48,0.089168,442389,360277
1169.04,0.091420,446101,361421
1173.79,0.094577,451929,363491
1177.34,0.096805,456026,364909
1180.9,0.099027,461306,367250
1184.44,0.100890,467657,370713
1187.99,0.101274,473969,375384
1191.52,0.101603,479856,379759
1195.06,0.101418,487372,385871
1199.76,0.101072,497347,394083
1203.29,0.100352,504311,400264
1206.81,0.099957,511507,406345
1210.33,0.098917,519078,413348
1213.84,0.098545,527163,420146
1217.35,0.098078,534208,426219
1220.85,0.097405,540472,431885
1225.51,0.096417,549929,440443
1229.01,0.096209,556888,446230
1232.5,0.095166,562180,451554
1235.98,0.095069,567975,456310
1239.46,0.094024,574815,462918
1242.94,0.093001,582782,470441
1246.41,0.092153,591476,478392
1251.03,0.092247,604016,488429
1254.5,0.092538,612289,494787
1257.96,0.092985,619125,499797
1261.41,0.093652,624551,503403
1264.86,0.094138,629900,507147
1268.31,0.094548,634345,510244
1271.75,0.094815,638574,513329
1276.33,0.094906,642499,516377
1279.76,0.095146,645905,518827
1283.19,0.094506,648307,521524
1286.61,0.094185,650446,523632
1290.03,0.093943,652132,525282
1293.44,0.093574,653907,527159
1296.85,0.093452,655963,528966
1301.39,0.093261,657349,530316
1304.8,0.093168,657558,530598
1308.19,0.093168,658515,531371
1311.58,0.093502,658804,531195
1314.97,0.093933,659011,530835
1318.36,0.094321,658272,529766
1321.73,0.094744,658022,529050
1326.23,0.095597,657870,527889
1329.6,0.096023,656482,526259
1332.97,0.096907,654926,523944
1336.33,0.098010,653727,521659
1339.69,0.099237,652497,519208
1343.04,0.101192,649913,514829
1346.39,0.103265,647671,510610
1349.73,0.104963,645338,506785
1354.18,0.107877,641175,500149
1357.52,0.110083,638376,495443
1360.85,0.111673,635805,491644
1364.17,0.113787,633413,487416
1367.49,0.115697,631026,483449
1370.81,0.117850,628050,478789
1374.12,0.120299,625034,473811
1378.54,0.122898,620272,467395
1381.84,0.126249,616892,461275
1385.14,0.129052,613613,455872
1388.43,0.132831,611526,450385
1391.72,0.137379,610663,445064
1395.01,0.140928,610634,441421
1398.29,0.145743,611700,437316
1402.66,0.152075,614051,432643
1405.93,0.157285,616268,429027
1409.2,0.162227,617795,425224
1412.46,0.166419,618872,421873
1415.72,0.170907,619795,418159
1418.98,0.174541,620495,415143
1422.23,0.177612,621087,412611
1426.56,0.181571,621375,409056
1429.8,0.184001,621616,406931
1433.04,0.187240,622129,404241
1436.27,0.188828,621526,402375
1439.5,0.191194,621113,399923
1442.72,0.193253,620921,397909
1445.94,0.195484,620270,395455
1450.23,0.198743,618860,391606
1453.44,0.201426,617697,388463
1456.64,0.204739,616264,384616
1459.85,0.207735,614413,380825
1463.04,0.210175,612307,377393
1466.24,0.213601,610032,373037
1469.43,0.216944,607345,368546
1473.67,0.223289,603789,361074
1476.85,0.228338,601175,355355
1480.02,0.234035,597737,348719
1483.19,0.241396,594479,340989
1486.36,0.245944,591232,335594
1489.52,0.250848,587853,329929
1492.68,0.254112,583875,325243
1496.89,0.255969,578062,320631
1500.03,0.256658,574159,317961
1503.18,0.256417,570285,315991
1506.32,0.255933,565444,313658
1509.45,0.254544,560571,311951
1512.58,0.253493,555821,310057
1515.71,0.250934,550344,308816
1519.87,0.247205,543983,307879
1522.99,0.245525,538764,306107
1526.1,0.242762,533692,305161
1529.21,0.239157,527902,304366
1532.32,0.237461,521886,302075
1535.42,0.234292,515888,300790
1538.51,0.230507,509987,299952
1541.6,0.228168,503936,297994
1545.72,0.224292,494694,295151
1548.8,0.221851,488378,293025
1551.88,0.219174,481832,290885
1554.95,0.217205,474989,288057
1558.02,0.215950,467818,284529
1561.08,0.214376,460730,281236
1564.15,0.213458,454170,277818
1568.22,0.213641,444181,271593
1571.27,0.212521,436947,267860
1574.32,0.211420,429598,264023
1577.36,0.210037,422039,260205
1580.4,0.211962,414375,254350
1583.43,0.208330,406354,251521
1586.46,0.205750,398475,248114
1590.49,0.203431,388982,243500
1593.51,0.201448,380708,239411
1596.53,0.199883,372727,235238
1599.54,0.197641,365060,231592
1602.55,0.197050,357543,227132
1605.55,0.194685,349495,223232
1608.55,0.192615,341154,218945
1612.54,0.190143,330877,213562
1615.53,0.188190,322904,209355
1618.51,0.187412,315116,204672
1621.49,0.186374,307217,200019
1624.47,0.185096,299481,195557
1627.44,0.185363,292112,190628
1630.41,0.183902,284245,186119
1634.36,0.182960,274079,179852
1637.32,0.181704,266916,175659
1640.27,0.181501,259612,170932
1643.22,0.179526,251804,166547
1646.16,0.179782,244348,161520
1649.1,0.179370,236703,156615
1652.04,0.176457,228171,151986
1655.95,0.174387,215408,144170
1658.88,0.169823,204937,138611
1661.8,0.164420,193395,132442
1664.72,0.156280,179728,125411
1667.63,0.144142,163642,117423
1670.54,0.129494,146312,108589
1673.44,0.112958,128451,99033
1677.31,0.093319,105080,84762
1680.21,0.081723,88906,73656
1683.1,0.076450,75033,62922
1685.99,0.074703,63520,53482
1688.87,0.082333,53714,44438
1691.75,0.082944,45653,37716
1694.62,0.081614,39137,32432
1697.49,0.089433,33776,27490
1701.31,0.094796,28175,22650

File: Column 1_050601_20150331_122358.csv
Method:,Column 1,,
Host Date-Time:,31/3/15 @ 12:23:58,,
Header Version:,1,,
System Temp (C):,34,,
Detector Temp (C):,34.82,,
Humidity (%):,1.76,,
Lamp PD:,3818,,
Shift Vector Coefficients:,-10.5391,0.0761263,-0.000134223,,
Pixel to Wavelength Coefficients:,1775.68,-0.916766,-0.000235065,,
Serial Number:,5510004,,
Scan Config Name:,Column 1,,
Scan Config Type:,Slew,,
Section 1,,
Start wavelength (nm):,900,,
End wavelength (nm):,1700,,
Pattern Pixel Width (nm):,   7.03,,,,
Exposure (ms):,  0.635,,,,
Digital Resolution:,228,,
Num Repeats:,6,,
PGA Gain:,64,,
Total Measurement Time in sec:,  2.711,,
Wavelength (nm),Absorbance (AU),Reference Signal (unitless),Sample Signal (unitless)
901.51,0.070502,108485,92229
905.376,0.077172,121306,101557
909.237,0.076802,131909,110528
913.095,0.079239,143299,119400
916.948,0.079272,156982,130791
922.079,0.080044,179937,149650
925.923,0.081406,200504,166233
929.762,0.082780,222660,184019
933.597,0.081806,244426,202461
937.427,0.081296,263972,218908
941.254,0.080726,281845,234037
945.076,0.079725,297271,247416
950.165,0.078962,315605,263137
953.978,0.077458,328029,274444
957.786,0.077885,340470,284573
961.59,0.079024,352317,293704
965.389,0.078027,363056,303352
969.185,0.078676,373162,311330
972.976,0.079264,382632,318799
976.763,0.079175,391202,326006
981.806,0.079568,400190,333195
985.583,0.080308,406088,337530
989.355,0.081056,410162,340329
993.124,0.080865,412868,342725
996.888,0.081716,414263,343210
1000.65,0.082899,415476,343279
1004.4,0.082963,415479,343231
1009.41,0.084255,414358,341288
1013.15,0.084651,412923,339796
1016.89,0.085824,411526,337733
1020.63,0.085391,409066,336049
1024.36,0.085649,406777,333970
1028.09,0.085028,404427,332516
1031.82,0.084891,401911,330551
1036.78,0.084586,398410,327902
1040.49,0.084340,396204,326271
1044.2,0.085064,394236,324110
1047.91,0.083855,392042,323205
1051.61,0.083891,389823,321349
1055.31,0.083024,388234,320678
1059,0.082609,387599,320460
1063.92,0.081994,386688,320160
1067.61,0.081676,386598,320320
1071.29,0.081379,387377,321185
1074.96,0.080585,388536,322735
1078.63,0.080224,389855,324100
1082.3,0.079065,391215,326100
1085.96,0.078420,393215,328254
1090.84,0.077409,396270,331575
1094.49,0.077068,398760,333921
1098.14,0.076985,400987,335850
1101.79,0.075888,403477,338790
1105.43,0.076158,406116,340794
1109.06,0.075124,407701,342940
1112.7,0.074574,409859,345192
1117.53,0.075247,412494,346873
1121.15,0.074961,414909,349134
1124.77,0.074442,416559,350941
1128.38,0.075881,418532,351437
1131.99,0.076717,419956,351955
1135.6,0.078101,421946,352497
1139.2,0.079664,423881,352842
1143.99,0.081514,426786,353750
1147.58,0.082269,428617,354650
1151.17,0.083884,431169,355438
1154.75,0.084574,433579,356857
1158.33,0.086046,436264,357852
1161.91,0.087718,439132,358820
1165.48,0.089334,442389,360139
1169.04,0.091777,446101,361124
1173.79,0.095490,451929,362727
1177.34,0.097043,456026,364709
1180.9,0.099512,461306,366840
1184.44,0.100983,467657,370633
1187.99,0.102120,473969,374654
1191.52,0.102152,479856,379279
1195.06,0.102156,487372,385216
1199.76,0.101884,497347,393347
1203.29,0.100714,504311,399930
1206.81,0.100360,511507,405968
1210.33,0.099789,519078,412519
1213.84,0.099116,527163,419594
1217.35,0.098432,534208,425871
1220.85,0.097327,540472,431963
1225.51,0.097214,549929,439635
1229.01,0.096362,556888,446073
1232.5,0.095924,562180,450766
1235.98,0.095692,567975,455656
1239.46,0.094203,574815,462727
1242.94,0.093041,582782,470398
1246.41,0.092509,591476,478000
1251.03,0.092671,604016,487952
1254.5,0.092775,612289,494517
1257.96,0.093212,619125,499535
1261.41,0.093547,624551,503525
1264.86,0.094433,629900,506802
1268.31,0.094586,634345,510199
1271.75,0.095293,638574,512765
1276.33,0.095509,642499,515660
1279.76,0.095535,645905,518362
1283.19,0.094717,648307,521271
1286.61,0.094745,650446,522957
1290.03,0.094775,652132,524277
1293.44,0.093717,653907,526986
1296.85,0.093881,655963,528443
1301.39,0.093192,657349,530400
1304.8,0.093527,657558,530160
1308.19,0.093617,658515,530822
1311.58,0.093651,658804,531013
1314.97,0.094011,659011,530740
1318.36,0.094678,658272,529331
1321.73,0.094504,658022,529342
1326.23,0.095820,657870,527618
1329.6,0.096449,656482,525743
1332.97,0.097198,654926,523594
1336.33,0.098311,653727,521297
1339.69,0.099847,652497,518480
1343.04,0.101707,649913,514219
1346.39,0.103315,647671,510551
1349.73,0.105684,645338,505945
1354.18,0.108198,641175,499780
1357.52,0.110076,638376,495451
1360.85,0.111823,635805,491474
1364.17,0.113748,633413,487460
1367.49,0.116507,631026,482548
1370.81,0.118426,628050,478154
1374.12,0.120629,625034,473451
1378.54,0.123655,620272,466581
1381.84,0.126539,616892,460967
1385.14,0.129589,613613,455308
1388.43,0.133759,611526,449424
1391.72,0.137320,610663,445125
1395.01,0.141676,610634,440661
1398.29,0.146654,611700,436400
1402.66,0.152725,614051,431996
1405.93,0.157630,616268,428686
1409.2,0.162808,617795,424655
1412.46,0.167072,618872,421239
1415.72,0.170546,619795,418506
1418.98,0.174163,620495,415504
1422.23,0.178363,621087,411898
1426.56,0.182206,621375,408458
1429.8,0.184368,621616,406588
1433.04,0.186871,622129,404585
1436.27,0.189025,621526,402193
1439.5,0.191154,621113,399960
1442.72,0.193975,620921,397248
1445.94,0.195899,620270,395077
1450.23,0.199538,618860,390890
1453.44,0.202080,617697,387878
1456.64,0.204819,616264,384546
1459.85,0.208268,614413,380358
1463.04,0.210940,612307,376729
1466.24,0.214074,610032,372631
1469.43,0.217755,607345,367858
1473.67,0.223917,603789,360552
1476.85,0.229223,601175,354632
1480.02,0.235076,597737,347884
1483.19,0.241497,594479,340910
1486.36,0.246686,591232,335021
1489.52,0.252007,587853,329050
1492.68,0.254908,583875,324647
1496.89,0.257066,578062,319822
1500.03,0.257485,574159,317356
1503.18,0.257737,570285,315032
1506.32,0.256408,565444,313315
1509.45,0.255085,560571,311563
1512.58,0.253855,555821,309799
1515.71,0.251119,550344,308685
1519.87,0.248450,543983,306998
1522.99,0.245698,538764,305985
1526.1,0.243847,533692,304399
1529.21,0.240840,527902,303189
1532.32,0.237492,521886,302053
1535.42,0.234603,515888,300575
1538.51,0.232206,509987,298781
1541.6,0.229278,503936,297233
1545.72,0.225052,494694,294635
1548.8,0.222072,488378,292876
1551.88,0.219998,481832,290334
1554.95,0.217789,474989,287670
1558.02,0.216427,467818,284217
1561.08,0.214991,460730,280838
1564.15,0.214438,454170,277192
1568.22,0.213488,444181,271689
1571.27,0.212644,436947,267784
1574.32,0.211906,429598,263728
1577.36,0.210628,422039,259851
1580.4,0.209732,414375,255659
1583.43,0.208187,406354,251604
1586.46,0.206938,398475,247436
1590.49,0.204466,388982,242920
1593.51,0.202923,380708,238599
1596.53,0.200611,372727,234844
1599.54,0.199509,365060,230598
1602.55,0.197126,357543,227092
1605.55,0.196000,349495,222557
1608.55,0.193257,341154,218622
1612.54,0.191744,330877,212776
1615.53,0.189532,322904,208709
1618.51,0.188385,315116,204214
1621.49,0.187559,307217,199474
1624.47,0.185994,299481,195153
1627.44,0.185857,292112,190411
1630.41,0.184084,284245,186041
1634.36,0.183246,274079,179734
1637.32,0.182967,266916,175149
1640.27,0.182697,259612,170462
1643.22,0.181098,251804,165945
1646.16,0.180129,244348,161391
1649.1,0.179154,236703,156693
1652.04,0.179548,228171,150908
1655.95,0.174752,215408,144049
1658.88,0.171053,204937,138219
1661.8,0.166398,193395,131840
1664.72,0.158053,179728,124900
1667.63,0.144963,163642,117201
1670.54,0.130463,146312,108347
1673.44,0.114394,128451,98706
1677.31,0.096017,105080,84237
1680.21,0.084313,88906,73218
1683.1,0.078103,75033,62683
1685.99,0.079529,63520,52891
1688.87,0.083949,53714,44273
1691.75,0.084178,45653,37609
1694.62,0.094884,39137,31456
1697.49,0.101057,33776,26764
1701.31,0.106475,28175,22049