Folder: textile_sorting_NIRSCAN_/samples/wool/wool-000811 (part 103)

File: Column 1_050588_20150331_121748.csv
Method:,Column 1,,
Host Date-Time:,31/3/15 @ 12:17:48,,
Header Version:,1,,
System Temp (C):,33.83,,
Detector Temp (C):,34.57,,
Humidity (%):,1.86,,
Lamp PD:,3819,,
Shift Vector Coefficients:,-10.5391,0.0761263,-0.000134223,,
Pixel to Wavelength Coefficients:,1775.68,-0.916766,-0.000235065,,
Serial Number:,5510004,,
Scan Config Name:,Column 1,,
Scan Config Type:,Slew,,
Section 1,,
Start wavelength (nm):,900,,
End wavelength (nm):,1700,,
Pattern Pixel Width (nm):,   7.03,,,,
Exposure (ms):,  0.635,,,,
Digital Resolution:,228,,
Num Repeats:,6,,
PGA Gain:,64,,
Total Measurement Time in sec:,  2.676,,
Wavelength (nm),Absorbance (AU),Reference Signal (unitless),Sample Signal (unitless)
901.51,0.068618,108485,92630
905.376,0.074283,121306,102235
909.237,0.078207,131909,110171
913.095,0.078516,143299,119599
916.948,0.079720,156982,130656
922.079,0.081061,179937,149300
925.923,0.082725,200504,165729
929.762,0.082768,222660,184024
933.597,0.082646,244426,202070
937.427,0.082256,263972,218425
941.254,0.080653,281845,234076
945.076,0.079439,297271,247579
950.165,0.079051,315605,263083
953.978,0.078985,328029,273481
957.786,0.079261,340470,283673
961.59,0.078829,352317,293836
965.389,0.078786,363056,302822
969.185,0.078964,373162,311124
972.976,0.079695,382632,318483
976.763,0.080145,391202,325279
981.806,0.080143,400190,332754
985.583,0.080573,406088,337324
989.355,0.081715,410162,339813
993.124,0.082109,412868,341745
996.888,0.082566,414263,342539
1000.65,0.083441,415476,342851
1004.4,0.083924,415479,342472
1009.41,0.085319,414358,340453
1013.15,0.085485,412923,339144
1016.89,0.086175,411526,337460
1020.63,0.086289,409066,335355
1024.36,0.086479,406777,333332
1028.09,0.085833,404427,331900
1031.82,0.086053,401911,329668
1036.78,0.085441,398410,327257
1040.49,0.085620,396204,325311
1044.2,0.085335,394236,323908
1047.91,0.084982,392042,322367
1051.61,0.084970,389823,320551
1055.31,0.084404,388234,319661
1059,0.083561,387599,319758
1063.92,0.083212,386688,319263
1067.61,0.082991,386598,319351
1071.29,0.081847,387377,320839
1074.96,0.081816,388536,321822
1078.63,0.081727,389855,322980
1082.3,0.080202,391215,325247
1085.96,0.079894,393215,327142
1090.84,0.078543,396270,330711
1094.49,0.078353,398760,332934
1098.14,0.077659,400987,335329
1101.79,0.077272,403477,337712
1105.43,0.077142,406116,340023
1109.06,0.076542,407701,341822
1112.7,0.075971,409859,344083
1117.53,0.074946,412494,347114
1121.15,0.075733,414909,348514
1124.77,0.076326,416559,349422
1128.38,0.076875,418532,350634
1131.99,0.078456,419956,350548
1135.6,0.079820,421946,351105
1139.2,0.081143,423881,351642
1143.99,0.083355,426786,352253
1147.58,0.083605,428617,353561
1151.17,0.085039,431169,354494
1154.75,0.085842,433579,355817
1158.33,0.087170,436264,356927
1161.91,0.089150,439132,357639
1165.48,0.091073,442389,358700
1169.04,0.093050,446101,360067
1173.79,0.096927,451929,361529
1177.34,0.098350,456026,363613
1180.9,0.100745,461306,365800
1184.44,0.102554,467657,369295
1187.99,0.104175,473969,372885
1191.52,0.102887,479856,378638
1195.06,0.103363,487372,384147
1199.76,0.102753,497347,392560
1203.29,0.101845,504311,398890
1206.81,0.101961,511507,404474
1210.33,0.101184,519078,411196
1213.84,0.100683,527163,418082
1217.35,0.099604,534208,424724
1220.85,0.098789,540472,430511
1225.51,0.098214,549929,438624
1229.01,0.097550,556888,444854
1232.5,0.097289,562180,449352
1235.98,0.096643,567975,454659
1239.46,0.095876,574815,460948
1242.94,0.094563,582782,468752
1246.41,0.094046,591476,476312
1251.03,0.093960,604016,486506
1254.5,0.094427,612289,492640
1257.96,0.094457,619125,498106
1261.41,0.095206,624551,501605
1264.86,0.095526,629900,505529
1268.31,0.096106,634345,508416
1271.75,0.097106,638574,510629
1276.33,0.097215,642499,513638
1279.76,0.097248,645905,516322
1283.19,0.096762,648307,518822
1286.61,0.096114,650446,521311
1290.03,0.095665,652132,523203
1293.44,0.095413,653907,524932
1296.85,0.095053,655963,527019
1301.39,0.094878,657349,528346
1304.8,0.095082,657558,528265
1308.19,0.095628,658515,528370
1311.58,0.095479,658804,528783
1314.97,0.095810,659011,528546
1318.36,0.096451,658272,527174
1321.73,0.096636,658022,526750
1326.23,0.097635,657870,525418
1329.6,0.098522,656482,523240
1332.97,0.099706,654926,520579
1336.33,0.100334,653727,518875
1339.69,0.102123,652497,515769
1343.04,0.103363,649913,512262
1346.39,0.106066,647671,507327
1349.73,0.107526,645338,503803
1354.18,0.110466,641175,497176
1357.52,0.112887,638376,492254
1360.85,0.114566,635805,488380
1364.17,0.116625,633413,484242
1367.49,0.118657,631026,480165
1370.81,0.120927,628050,475409
1374.12,0.123226,625034,470628
1378.54,0.126561,620272,463470
1381.84,0.129403,616892,457937
1385.14,0.132900,613613,451850
1388.43,0.137290,611526,445784
1391.72,0.141573,610663,440787
1395.01,0.146135,610634,436160
1398.29,0.150940,611700,432114
1402.66,0.158068,614051,426714
1405.93,0.163533,616268,422899
1409.2,0.168541,617795,419086
1412.46,0.173484,618872,415066
1415.72,0.178051,619795,411336
1418.98,0.181632,620495,408419
1422.23,0.185147,621087,405514
1426.56,0.189302,621375,401839
1429.8,0.192428,621616,399111
1433.04,0.194706,622129,397351
1436.27,0.196609,621526,395230
1439.5,0.199005,621113,392795
1442.72,0.201133,620921,390754
1445.94,0.203538,620270,388189
1450.23,0.206712,618860,384486
1453.44,0.209432,617697,381367
1456.64,0.212450,616264,377848
1459.85,0.214881,614413,374610
1463.04,0.217116,612307,371410
1466.24,0.220195,610032,367416
1469.43,0.223609,607345,362933
1473.67,0.229530,603789,355922
1476.85,0.234108,601175,350665
1480.02,0.240016,597737,343949
1483.19,0.245798,594479,337550
1486.36,0.250598,591232,332017
1489.52,0.255354,587853,326524
1492.68,0.258703,583875,321823
1496.89,0.260292,578062,317455
1500.03,0.260821,574159,314928
1503.18,0.260624,570285,312945
1506.32,0.259816,565444,310866
1509.45,0.258475,560571,309140
1512.58,0.257461,555821,307237
1515.71,0.254977,550344,305955
1519.87,0.252233,543983,304335
1522.99,0.249715,538764,303168
1526.1,0.247399,533692,301920
1529.21,0.244470,527902,300665
1532.32,0.241505,521886,299275
1535.42,0.238810,515888,297677
1538.51,0.235946,509987,296219
1541.6,0.233469,503936,294379
1545.72,0.229050,494694,291935
1548.8,0.226199,488378,290106
1551.88,0.223659,481832,287897
1554.95,0.221435,474989,285265
1558.02,0.220017,467818,281877
1561.08,0.219263,460730,278089
1564.15,0.218868,454170,274379
1568.22,0.217035,444181,269479
1571.27,0.216865,436947,265194
1574.32,0.215795,429598,261377
1577.36,0.214327,422039,257647
1580.4,0.213422,414375,253496
1583.43,0.211998,406354,249406
1586.46,0.210208,398475,245580
1590.49,0.208062,388982,240917
1593.51,0.206100,380708,236860
1596.53,0.204729,372727,232628
1599.54,0.201949,365060,229306
1602.55,0.200488,357543,225341
1605.55,0.198242,349495,221411
1608.55,0.195993,341154,217249
1612.54,0.193948,330877,211699
1615.53,0.192610,322904,207235
1618.51,0.191101,315116,202941
1621.49,0.190212,307217,198259
1624.47,0.188270,299481,194133
1627.44,0.188415,292112,189293
1630.41,0.187221,284245,184702
1634.36,0.185836,274079,178665
1637.32,0.184898,266916,174372
1640.27,0.184868,259612,169612
1643.22,0.182160,251804,165540
1646.16,0.182547,244348,160495
1649.1,0.182708,236703,155416
1652.04,0.180891,228171,150442
1655.95,0.177531,215408,143130
1658.88,0.172797,204937,137665
1661.8,0.167777,193395,131422
1664.72,0.160533,179728,124189
1667.63,0.148782,163642,116175
1670.54,0.134017,146312,107464
1673.44,0.118297,128451,97823
1677.31,0.100203,105080,83429
1680.21,0.086084,88906,72920
1683.1,0.083646,75033,61888
1685.99,0.086014,63520,52107
1688.87,0.087860,53714,43876
1691.75,0.090365,45653,37077
1694.62,0.095008,39137,31447
1697.49,0.099502,33776,26860
1701.31,0.101209,28175,22318

File: Column 1_050588_20150331_121750.csv
Method:,Column 1,,
Host Date-Time:,31/3/15 @ 12:17:50,,
Header Version:,1,,
System Temp (C):,33.81,,
Detector Temp (C):,34.57,,
Humidity (%):,1.86,,
Lamp PD:,3818,,
Shift Vector Coefficients:,-10.5391,0.0761263,-0.000134223,,
Pixel to Wavelength Coefficients:,1775.68,-0.916766,-0.000235065,,
Serial Number:,5510004,,
Scan Config Name:,Column 1,,
Scan Config Type:,Slew,,
Section 1,,
Start wavelength (nm):,900,,
End wavelength (nm):,1700,,
Pattern Pixel Width (nm):,   7.03,,,,
Exposure (ms):,  0.635,,,,
Digital Resolution:,228,,
Num Repeats:,6,,
PGA Gain:,64,,
Total Measurement Time in sec:,  2.674,,
Wavelength (nm),Absorbance (AU),Reference Signal (unitless),Sample Signal (unitless)
901.51,0.068749,108485,92602
905.376,0.076139,121306,101799
909.237,0.077853,131909,110261
913.095,0.078512,143299,119600
916.948,0.079172,156982,130821
922.079,0.081515,179937,149144
925.923,0.081531,200504,166185
929.762,0.081820,222660,184426
933.597,0.082588,244426,202097
937.427,0.081181,263972,218966
941.254,0.081534,281845,233602
945.076,0.079993,297271,247263
950.165,0.079182,315605,263004
953.978,0.078995,328029,273475
957.786,0.078930,340470,283889
961.59,0.079445,352317,293419
965.389,0.079273,363056,302483
969.185,0.078682,373162,311326
972.976,0.079534,382632,318601
976.763,0.080038,391202,325359
981.806,0.080082,400190,332801
985.583,0.081247,406088,336801
989.355,0.081474,410162,340002
993.124,0.081898,412868,341911
996.888,0.082197,414263,342830
1000.65,0.083380,415476,342899
1004.4,0.083734,415479,342622
1009.41,0.086365,414358,339634
1013.15,0.086123,412923,338646
1016.89,0.086636,411526,337102
1020.63,0.086252,409066,335383
1024.36,0.085990,406777,333708
1028.09,0.086547,404427,331355
1031.82,0.086346,401911,329446
1036.78,0.085879,398410,326927
1040.49,0.085431,396204,325453
1044.2,0.086082,394236,323351
1047.91,0.084993,392042,322359
1051.61,0.084834,389823,320652
1055.31,0.084005,388234,319955
1059,0.083823,387599,319565
1063.92,0.082747,386688,319605
1067.61,0.082509,386598,319706
1071.29,0.082189,387377,320586
1074.96,0.081644,388536,321949
1078.63,0.081287,389855,323308
1082.3,0.080189,391215,325257
1085.96,0.079728,393215,327267
1090.84,0.078602,396270,330666
1094.49,0.078137,398760,333100
1098.14,0.076903,400987,335913
1101.79,0.076804,403477,338076
1105.43,0.076505,406116,340522
1109.06,0.075854,407701,342364
1112.7,0.075911,409859,344131
1117.53,0.075676,412494,346531
1121.15,0.075964,414909,348328
1124.77,0.075903,416559,349763
1128.38,0.077312,418532,350281
1131.99,0.078186,419956,350766
1135.6,0.079361,421946,351476
1139.2,0.081216,423881,351583
1143.99,0.082178,426786,353209
1147.58,0.083746,428617,353446
1151.17,0.084720,431169,354754
1154.75,0.085299,433579,356262
1158.33,0.087078,436264,357003
1161.91,0.089028,439132,357740
1165.48,0.091216,442389,358582
1169.04,0.093420,446101,359760
1173.79,0.096658,451929,361753
1177.34,0.098815,456026,363224
1180.9,0.100858,461306,365705
1184.44,0.102736,467657,369140
1187.99,0.103657,473969,373330
1191.52,0.103696,479856,377933
1195.06,0.103247,487372,384250
1199.76,0.102471,497347,392815
1203.29,0.102175,504311,398587
1206.81,0.101599,511507,404811
1210.33,0.100993,519078,411377
1213.84,0.100646,527163,418118
1217.35,0.099771,534208,424560
1220.85,0.099274,540472,430030
1225.51,0.098388,549929,438449
1229.01,0.098084,556888,444308
1232.5,0.097446,562180,449189
1235.98,0.096490,567975,454820
1239.46,0.095462,574815,461388
1242.94,0.094853,582782,468439
1246.41,0.094010,591476,476351
1251.03,0.094205,604016,486232
1254.5,0.094380,612289,492693
1257.96,0.094369,619125,498207
1261.41,0.095197,624551,501616
1264.86,0.095337,629900,505748
1268.31,0.096050,634345,508482
1271.75,0.096674,638574,511137
1276.33,0.097052,642499,513831
1279.76,0.096771,645905,516889
1283.19,0.096539,648307,519089
1286.61,0.095750,650446,521748
1290.03,0.095762,652132,523087
1293.44,0.095422,653907,524921
1296.85,0.095258,655963,526770
1301.39,0.095237,657349,527909
1304.8,0.094748,657558,528672
1308.19,0.095019,658515,529111
1311.58,0.095291,658804,529012
1314.97,0.095940,659011,528388
1318.36,0.096385,658272,527254
1321.73,0.096585,658022,526812
1326.23,0.097505,657870,525575
1329.6,0.098441,656482,523337
1332.97,0.099595,654926,520712
1336.33,0.100417,653727,518776
1339.69,0.102343,652497,515508
1343.04,0.104094,649913,511401
1346.39,0.105638,647671,507828
1349.73,0.107322,645338,504040
1354.18,0.110421,641175,497228
1357.52,0.112516,638376,492675
1360.85,0.114473,635805,488485
1364.17,0.116576,633413,484296
1367.49,0.118755,631026,480056
1370.81,0.120587,628050,475781
1374.12,0.123412,625034,470426
1378.54,0.126330,620272,463716
1381.84,0.129365,616892,457977
1385.14,0.133173,613613,451566
1388.43,0.136468,611526,446629
1391.72,0.140988,610663,441381
1395.01,0.145587,610634,436711
1398.29,0.150968,611700,432086
1402.66,0.157303,614051,427466
1405.93,0.163977,616268,422467
1409.2,0.168132,617795,419481
1412.46,0.172757,618872,415761
1415.72,0.177679,619795,411689
1418.98,0.181193,620495,408832
1422.23,0.185179,621087,405484
1426.56,0.188862,621375,402246
1429.8,0.191784,621616,399704
1433.04,0.194016,622129,397983
1436.27,0.196603,621526,395236
1439.5,0.198133,621113,393584
1442.72,0.200722,620921,391124
1445.94,0.203684,620270,388058
1450.23,0.206365,618860,384793
1453.44,0.209267,617697,381512
1456.64,0.211746,616264,378461
1459.85,0.214528,614413,374915
1463.04,0.216663,612307,371797
1466.24,0.220410,610032,367234
1469.43,0.223302,607345,363190
1473.67,0.229484,603789,355960
1476.85,0.234457,601175,350384
1480.02,0.239405,597737,344433
1483.19,0.244999,594479,338172
1486.36,0.251294,591232,331485
1489.52,0.255016,587853,326778
1492.68,0.257882,583875,322432
1496.89,0.260065,578062,317621
1500.03,0.260553,574159,315122
1503.18,0.260132,570285,313300
1506.32,0.260034,565444,310710
1509.45,0.258766,560571,308933
1512.58,0.257324,555821,307334
1515.71,0.254788,550344,306088
1519.87,0.252339,543983,304261
1522.99,0.249218,538764,303515
1526.1,0.246496,533692,302548
1529.21,0.243915,527902,301050
1532.32,0.241393,521886,299352
1535.42,0.238619,515888,297808
1538.51,0.235329,509987,296640
1541.6,0.233342,503936,294465
1545.72,0.229153,494694,291866
1548.8,0.225585,488378,290517
1551.88,0.223565,481832,287959
1554.95,0.221790,474989,285032
1558.02,0.220245,467818,281729
1561.08,0.218940,460730,278296
1564.15,0.218372,454170,274692
1568.22,0.217299,444181,269315
1571.27,0.216042,436947,265697
1574.32,0.215322,429598,261662
1577.36,0.213915,422039,257892
1580.4,0.212770,414375,253877
1583.43,0.211001,406354,249979
1586.46,0.210688,398475,245309
1590.49,0.208040,388982,240929
1593.51,0.205972,380708,236930
1596.53,0.204494,372727,232754
1599.54,0.201873,365060,229346
1602.55,0.200396,357543,225389
1605.55,0.199241,349495,220902
1608.55,0.196315,341154,217088
1612.54,0.193940,330877,211703
1615.53,0.191959,322904,207546
1618.51,0.191923,315116,202557
1621.49,0.189864,307217,198418
1624.47,0.189558,299481,193558
1627.44,0.188484,292112,189263
1630.41,0.187170,284245,184724
1634.36,0.186474,274079,178403
1637.32,0.185526,266916,174120
1640.27,0.184507,259612,169753
1643.22,0.184040,251804,164825
1646.16,0.182374,244348,160559
1649.1,0.181714,236703,155772
1652.04,0.180597,228171,150544
1655.95,0.177392,215408,143176
1658.88,0.173289,204937,137509
1661.8,0.168088,193395,131328
1664.72,0.159813,179728,124395
1667.63,0.149238,163642,116053
1670.54,0.134725,146312,107289
1673.44,0.119951,128451,97451
1677.31,0.098209,105080,83813
1680.21,0.088935,88906,72443
1683.1,0.084320,75033,61792
1685.99,0.084351,63520,52307
1688.87,0.083949,53714,44273
1691.75,0.093456,45653,36814
1694.62,0.092461,39137,31632
1697.49,0.100214,33776,26816
1701.31,0.105354,28175,22106

File: Column 1_050588_20150331_121756.csv
Method:,Column 1,,
Host Date-Time:,31/3/15 @ 12:17:56,,
Header Version:,1,,
System Temp (C):,33.8,,
Detector Temp (C):,34.57,,
Humidity (%):,1.86,,
Lamp PD:,3819,,
Shift Vector Coefficients:,-10.5391,0.0761263,-0.000134223,,
Pixel to Wavelength Coefficients:,1775.68,-0.916766,-0.000235065,,
Serial Number:,5510004,,
Scan Config Name:,Column 1,,
Scan Config Type:,Slew,,
Section 1,,
Start wavelength (nm):,900,,
End wavelength (nm):,1700,,
Pattern Pixel Width (nm):,   7.03,,,,
Exposure (ms):,  0.635,,,,
Digital Resolution:,228,,
Num Repeats:,6,,
PGA Gain:,64,,
Total Measurement Time in sec:,  2.672,,
Wavelength (nm),Absorbance (AU),Reference Signal (unitless),Sample Signal (unitless)
901.51,0.069872,108485,92363
905.376,0.076339,121306,101752
909.237,0.078665,131909,110055
913.095,0.077457,143299,119891
916.948,0.077466,156982,131336
922.079,0.080227,179937,149587
925.923,0.081547,200504,166179
929.762,0.082749,222660,184032
933.597,0.082121,244426,202314
937.427,0.081612,263972,218749
941.254,0.080924,281845,233930
945.076,0.079897,297271,247318
950.165,0.079008,315605,263109
953.978,0.078393,328029,273854
957.786,0.078608,340470,284100
961.59,0.078863,352317,293813
965.389,0.079673,363056,302204
969.185,0.079219,373162,310941
972.976,0.078682,382632,319227
976.763,0.079327,391202,325892
981.806,0.080178,400190,332727
985.583,0.080171,406088,337636
989.355,0.081465,410162,340009
993.124,0.081560,412868,342177
996.888,0.082517,414263,342578
1000.65,0.082875,415476,343298
1004.4,0.083735,415479,342621
1009.41,0.085994,414358,339924
1013.15,0.085672,412923,338998
1016.89,0.086372,411526,337307
1020.63,0.085591,409066,335894
1024.36,0.086425,406777,333374
1028.09,0.085451,404427,332192
1031.82,0.085862,401911,329813
1036.78,0.085712,398410,327053
1040.49,0.085501,396204,325400
1044.2,0.085103,394236,324081
1047.91,0.085233,392042,322181
1051.61,0.083608,389823,321558
1055.31,0.084101,388234,319884
1059,0.083749,387599,319620
1063.92,0.083000,386688,319419
1067.61,0.082550,386598,319676
1071.29,0.082093,387377,320657
1074.96,0.081191,388536,322285
1078.63,0.080734,389855,323720
1082.3,0.079707,391215,325618
1085.96,0.080182,393215,326925
1090.84,0.077991,396270,331131
1094.49,0.077938,398760,333253
1098.14,0.077502,400987,335450
1101.79,0.077247,403477,337732
1105.43,0.076493,406116,340531
1109.06,0.075756,407701,342441
1112.7,0.075878,409859,344157
1117.53,0.074822,412494,347213
1121.15,0.076124,414909,348200
1124.77,0.076202,416559,349522
1128.38,0.077034,418532,350505
1131.99,0.077486,419956,351332
1135.6,0.079025,421946,351748
1139.2,0.080477,423881,352182
1143.99,0.083120,426786,352444
1147.58,0.083569,428617,353590
1151.17,0.084534,431169,354906
1154.75,0.085322,433579,356243
1158.33,0.086725,436264,357293
1161.91,0.089332,439132,357489
1165.48,0.090926,442389,358821
1169.04,0.093189,446101,359952
1173.79,0.096222,451929,362116
1177.34,0.098614,456026,363392
1180.9,0.100497,461306,366009
1184.44,0.102246,467657,369557
1187.99,0.103635,473969,373349
1191.52,0.103171,479856,378390
1195.06,0.103070,487372,384406
1199.76,0.102652,497347,392652
1203.29,0.101941,504311,398802
1206.81,0.101528,511507,404877
1210.33,0.100737,519078,411619
1213.84,0.100358,527163,418395
1217.35,0.099570,534208,424757
1220.85,0.099260,540472,430044
1225.51,0.097930,549929,438911
1229.01,0.097735,556888,444665
1232.5,0.096972,562180,449680
1235.98,0.097000,567975,454286
1239.46,0.095615,574815,461225
1242.94,0.094837,582782,468456
1246.41,0.094383,591476,475942
1251.03,0.094205,604016,486232
1254.5,0.094336,612289,492743
1257.96,0.094807,619125,497704
1261.41,0.095268,624551,501534
1264.86,0.095611,629900,505430
1268.31,0.095924,634345,508630
1271.75,0.096797,638574,510992
1276.33,0.097442,642499,513370
1279.76,0.096885,645905,516754
1283.19,0.096239,648307,519447
1286.61,0.095806,650446,521681
1290.03,0.095670,652132,523197
1293.44,0.095150,653907,525250
1296.85,0.095495,655963,526483
1301.39,0.094962,657349,528243
1304.8,0.094806,657558,528601
1308.19,0.094946,658515,529200
1311.58,0.095084,658804,529264
1314.97,0.095667,659011,528720
1318.36,0.096240,658272,527431
1321.73,0.096703,658022,526669
1326.23,0.097446,657870,525647
1329.6,0.098436,656482,523344
1332.97,0.099562,654926,520751
1336.33,0.100683,653727,518458
1339.69,0.101936,652497,515991
1343.04,0.103510,649913,512089
1346.39,0.105685,647671,507773
1349.73,0.107352,645338,504006
1354.18,0.110572,641175,497055
1357.52,0.112537,638376,492651
1360.85,0.114363,635805,488608
1364.17,0.116727,633413,484128
1367.49,0.118630,631026,480195
1370.81,0.120925,628050,475411
1374.12,0.123580,625034,470244
1378.54,0.125977,620272,464093
1381.84,0.129388,616892,457953
1385.14,0.132733,613613,452024
1388.43,0.136951,611526,446133
1391.72,0.141061,610663,441307
1395.01,0.145933,610634,436363
1398.29,0.150723,611700,432330
1402.66,0.157454,614051,427317
1405.93,0.163050,616268,423370
1409.2,0.168414,617795,419209
1412.46,0.173735,618872,414826
1415.72,0.177561,619795,411801
1418.98,0.181068,620495,408950
1422.23,0.184490,621087,406128
1426.56,0.188899,621375,402212
1429.8,0.191658,621616,399820
1433.04,0.193456,622129,398496
1436.27,0.196501,621526,395329
1439.5,0.198433,621113,393312
1442.72,0.200596,620921,391237
1445.94,0.202507,620270,389111
1450.23,0.206078,618860,385048
1453.44,0.209304,617697,381480
1456.64,0.211809,616264,378406
1459.85,0.214732,614413,374739
1463.04,0.217312,612307,371242
1466.24,0.219827,610032,367727
1469.43,0.223464,607345,363054
1473.67,0.229221,603789,356176
1476.85,0.234066,601175,350699
1480.02,0.239857,597737,344075
1483.19,0.245418,594479,337846
1486.36,0.251029,591232,331687
1489.52,0.254721,587853,327000
1492.68,0.257777,583875,322510
1496.89,0.260213,578062,317513
1500.03,0.260931,574159,314848
1503.18,0.260754,570285,312851
1506.32,0.260152,565444,310626
1509.45,0.258484,560571,309134
1512.58,0.257194,555821,307426
1515.71,0.255080,550344,305882
1519.87,0.252313,543983,304279
1522.99,0.248778,538764,303823
1526.1,0.246842,533692,302307
1529.21,0.244543,527902,300615
1532.32,0.241305,521886,299413
1535.42,0.238777,515888,297700
1538.51,0.235555,509987,296486
1541.6,0.233050,503936,294663
1545.72,0.228529,494694,292286
1548.8,0.226078,488378,290187
1551.88,0.223859,481832,287764
1554.95,0.221738,474989,285066
1558.02,0.219980,467818,281901
1561.08,0.219441,460730,277975
1564.15,0.217992,454170,274933
1568.22,0.216718,444181,269676
1571.27,0.215991,436947,265728
1574.32,0.216131,429598,261175
1577.36,0.214727,422039,257410
1580.4,0.214071,414375,253118
1583.43,0.211498,406354,249693
1586.46,0.209770,398475,245828
1590.49,0.207939,388982,240985
1593.51,0.205979,380708,236926
1596.53,0.203906,372727,233069
1599.54,0.202432,365060,229051
1602.55,0.200326,357543,225425
1605.55,0.198481,349495,221289
1608.55,0.195815,341154,217338
1612.54,0.194539,330877,211411
1615.53,0.192181,322904,207440
1618.51,0.191062,315116,202959
1621.49,0.189092,307217,198771
1624.47,0.189850,299481,193428
1627.44,0.188176,292112,189397
1630.41,0.187522,284245,184574
1634.36,0.186023,274079,178588
1637.32,0.184268,266916,174625
1640.27,0.184948,259612,169581
1643.22,0.182774,251804,165306
1646.16,0.181736,244348,160795
1649.1,0.182711,236703,155415
1652.04,0.180510,228171,150574
1655.95,0.176555,215408,143452
1658.88,0.173176,204937,137545
1661.8,0.167387,193395,131540
1664.72,0.160218,179728,124279
1667.63,0.147994,163642,116386
1670.54,0.133944,146312,107482
1673.44,0.118550,128451,97766
1677.31,0.099231,105080,83616
1680.21,0.087648,88906,72658
1683.1,0.081853,75033,62144
1685.99,0.083041,63520,52465
1688.87,0.087455,53714,43917
1691.75,0.088087,45653,37272
1694.62,0.095216,39137,31432
1697.49,0.100392,33776,26805
1701.31,0.104353,28175,22157