Folder: textile_sorting_NIRSCAN_/samples/wool/wool-000811 (part 156)

File: Column 1_050617_20150331_123137.csv
Method:,Column 1,,
Host Date-Time:,31/3/15 @ 12:31:37,,
Header Version:,1,,
System Temp (C):,34.1,,
Detector Temp (C):,35,,
Humidity (%):,1.66,,
Lamp PD:,3818,,
Shift Vector Coefficients:,-10.5391,0.0761263,-0.000134223,,
Pixel to Wavelength Coefficients:,1775.68,-0.916766,-0.000235065,,
Serial Number:,5510004,,
Scan Config Name:,Column 1,,
Scan Config Type:,Slew,,
Section 1,,
Start wavelength (nm):,900,,
End wavelength (nm):,1700,,
Pattern Pixel Width (nm):,   7.03,,,,
Exposure (ms):,  0.635,,,,
Digital Resolution:,228,,
Num Repeats:,6,,
PGA Gain:,64,,
Total Measurement Time in sec:,  2.679,,
Wavelength (nm),Absorbance (AU),Reference Signal (unitless),Sample Signal (unitless)
901.51,0.068309,108485,92696
905.376,0.073934,121306,102317
909.237,0.077435,131909,110367
913.095,0.076939,143299,120034
916.948,0.078635,156982,130983
922.079,0.079919,179937,149693
925.923,0.080221,200504,166687
929.762,0.082442,222660,184162
933.597,0.082233,244426,202262
937.427,0.081300,263972,218906
941.254,0.079806,281845,234533
945.076,0.079028,297271,247813
950.165,0.078228,315605,263582
953.978,0.077498,328029,274419
957.786,0.076747,340470,285320
961.59,0.077063,352317,295033
965.389,0.076987,363056,304079
969.185,0.077074,373162,312481
972.976,0.077680,382632,319964
976.763,0.077936,391202,326938
981.806,0.078392,400190,334098
985.583,0.079031,406088,338524
989.355,0.079507,410162,341545
993.124,0.080298,412868,343173
996.888,0.080690,414263,344022
1000.65,0.080767,415476,344968
1004.4,0.082220,415479,343818
1009.41,0.084009,414358,341481
1013.15,0.083848,412923,340425
1016.89,0.084573,411526,338707
1020.63,0.084678,409066,336601
1024.36,0.084620,406777,334762
1028.09,0.084005,404427,333300
1031.82,0.083992,401911,331236
1036.78,0.083525,398410,328704
1040.49,0.083917,396204,326589
1044.2,0.083702,394236,325128
1047.91,0.082888,392042,323925
1051.61,0.082455,389823,322413
1055.31,0.082559,388234,321022
1059,0.082395,387599,320618
1063.92,0.081573,386688,320470
1067.61,0.080627,386598,321094
1071.29,0.079553,387377,322538
1074.96,0.079753,388536,323354
1078.63,0.079327,389855,324770
1082.3,0.077483,391215,327290
1085.96,0.077098,393215,329255
1090.84,0.076360,396270,332377
1094.49,0.075886,398760,334831
1098.14,0.075316,400987,337143
1101.79,0.074759,403477,339672
1105.43,0.075252,406116,341506
1109.06,0.074046,407701,343792
1112.7,0.073895,409859,345732
1117.53,0.073287,412494,348442
1121.15,0.073892,414909,349994
1124.77,0.073630,416559,351598
1128.38,0.074306,418532,352714
1131.99,0.075445,419956,352987
1135.6,0.076351,421946,353921
1139.2,0.078687,423881,353636
1143.99,0.080145,426786,354867
1147.58,0.081009,428617,355681
1151.17,0.081623,431169,357293
1154.75,0.082720,433579,358384
1158.33,0.084174,436264,359398
1161.91,0.086454,439132,359866
1165.48,0.088001,442389,361246
1169.04,0.090625,446101,362083
1173.79,0.093941,451929,364023
1177.34,0.095852,456026,365711
1180.9,0.097951,461306,368161
1184.44,0.099695,467657,371734
1187.99,0.100919,473969,375691
1191.52,0.100249,479856,380945
1195.06,0.100583,487372,386614
1199.76,0.099755,497347,395280
1203.29,0.099415,504311,401128
1206.81,0.098810,511507,407419
1210.33,0.097953,519078,414266
1213.84,0.097678,527163,420985
1217.35,0.096647,534208,427625
1220.85,0.096352,540472,432934
1225.51,0.095500,549929,441374
1229.01,0.095018,556888,447456
1232.5,0.094348,562180,452405
1235.98,0.093816,567975,457629
1239.46,0.092907,574815,464110
1242.94,0.091865,582782,471673
1246.41,0.091249,591476,479389
1251.03,0.091050,604016,489777
1254.5,0.091241,612289,496267
1257.96,0.091778,619125,501188
1261.41,0.092230,624551,505054
1264.86,0.093054,629900,508414
1268.31,0.093362,634345,511639
1271.75,0.094471,638574,513736
1276.33,0.094216,642499,517198
1279.76,0.094327,645905,519806
1283.19,0.093384,648307,522873
1286.61,0.093186,650446,524838
1290.03,0.092952,652132,526482
1293.44,0.091992,653907,529083
1296.85,0.092310,655963,530358
1301.39,0.091583,657349,532369
1304.8,0.091933,657558,532110
1308.19,0.091932,658515,532885
1311.58,0.091642,658804,533475
1314.97,0.092632,659011,532428
1318.36,0.093088,658272,531273
1321.73,0.092932,658022,531261
1326.23,0.093703,657870,530197
1329.6,0.094904,656482,527617
1332.97,0.095645,654926,525469
1336.33,0.096271,653727,523752
1339.69,0.097758,652497,520979
1343.04,0.099318,649913,517055
1346.39,0.101315,647671,512908
1349.73,0.102895,645338,509204
1354.18,0.105935,641175,502391
1357.52,0.108370,638376,497401
1360.85,0.109946,635805,493603
1364.17,0.111765,633413,489691
1367.49,0.114104,631026,485225
1370.81,0.116547,628050,480228
1374.12,0.118119,625034,476195
1378.54,0.120974,620272,469470
1381.84,0.124249,616892,463404
1385.14,0.126635,613613,458416
1388.43,0.130043,611526,453286
1391.72,0.134635,610663,447885
1395.01,0.138060,610634,444346
1398.29,0.142454,611700,440641
1402.66,0.148478,614051,436241
1405.93,0.153466,616268,432816
1409.2,0.157937,617795,429445
1412.46,0.162488,618872,425709
1415.72,0.166237,619795,422679
1418.98,0.169505,620495,419985
1422.23,0.172431,621087,417562
1426.56,0.176169,621375,414176
1429.8,0.178496,621616,412122
1433.04,0.181495,622129,409624
1436.27,0.183339,621526,407493
1439.5,0.185468,621113,405231
1442.72,0.187727,620921,403004
1445.94,0.190867,620270,399681
1450.23,0.194013,618860,395894
1453.44,0.196721,617697,392694
1456.64,0.200089,616264,388757
1459.85,0.202263,614413,385654
1463.04,0.204971,612307,381943
1466.24,0.208888,610032,377107
1469.43,0.212664,607345,372196
1473.67,0.219176,603789,364510
1476.85,0.225388,601175,357777
1480.02,0.231558,597737,350713
1483.19,0.237791,594479,343831
1486.36,0.243663,591232,337361
1489.52,0.248718,587853,331551
1492.68,0.251878,583875,326920
1496.89,0.254302,578062,321864
1500.03,0.254381,574159,319633
1503.18,0.254715,570285,317232
1506.32,0.254356,565444,314799
1509.45,0.252784,560571,313218
1512.58,0.251252,555821,311661
1515.71,0.248556,550344,310512
1519.87,0.245835,543983,308852
1522.99,0.242666,538764,308129
1526.1,0.240458,533692,306784
1529.21,0.237807,527902,305314
1532.32,0.234708,521886,303996
1535.42,0.231534,515888,302706
1538.51,0.229030,509987,300974
1541.6,0.225957,503936,299515
1545.72,0.221243,494694,297231
1548.8,0.219187,488378,294828
1551.88,0.216412,481832,292741
1554.95,0.215341,474989,289296
1558.02,0.212745,467818,286637
1561.08,0.212256,460730,282612
1564.15,0.211622,454170,278995
1568.22,0.211022,444181,273236
1571.27,0.210651,436947,269016
1574.32,0.209440,429598,265230
1577.36,0.208039,422039,261405
1580.4,0.206907,414375,257328
1583.43,0.205266,406354,253302
1586.46,0.204305,398475,248941
1590.49,0.202584,388982,243975
1593.51,0.200017,380708,240201
1596.53,0.197852,372727,236341
1599.54,0.195812,365060,232569
1602.55,0.194250,357543,228601
1605.55,0.192228,349495,224498
1608.55,0.189764,341154,220387
1612.54,0.188646,330877,214299
1615.53,0.185976,322904,210425
1618.51,0.185952,315116,205361
1621.49,0.184310,307217,200972
1624.47,0.183956,299481,196071
1627.44,0.183589,292112,191408
1630.41,0.181361,284245,187211
1634.36,0.180531,274079,180861
1637.32,0.180731,266916,176053
1640.27,0.180111,259612,171480
1643.22,0.177922,251804,167163
1646.16,0.177883,244348,162228
1649.1,0.176813,236703,157540
1652.04,0.174857,228171,152547
1655.95,0.172008,215408,144962
1658.88,0.168509,204937,139031
1661.8,0.162698,193395,132968
1664.72,0.155768,179728,125559
1667.63,0.141479,163642,118145
1670.54,0.128328,146312,108881
1673.44,0.110836,128451,99518
1677.31,0.093319,105080,84762
1680.21,0.078176,88906,74260
1683.1,0.071693,75033,63615
1685.99,0.069456,63520,54132
1688.87,0.078025,53714,44881
1691.75,0.080280,45653,37948
1694.62,0.088702,39137,31907
1697.49,0.094583,33776,27166
1701.31,0.100043,28175,22378

File: Column 1_050617_20150331_123151.csv
Method:,Column 1,,
Host Date-Time:,31/3/15 @ 12:31:51,,
Header Version:,1,,
System Temp (C):,34.11,,
Detector Temp (C):,34.95,,
Humidity (%):,1.66,,
Lamp PD:,3818,,
Shift Vector Coefficients:,-10.5391,0.0761263,-0.000134223,,
Pixel to Wavelength Coefficients:,1775.68,-0.916766,-0.000235065,,
Serial Number:,5510004,,
Scan Config Name:,Column 1,,
Scan Config Type:,Slew,,
Section 1,,
Start wavelength (nm):,900,,
End wavelength (nm):,1700,,
Pattern Pixel Width (nm):,   7.03,,,,
Exposure (ms):,  0.635,,,,
Digital Resolution:,228,,
Num Repeats:,6,,
PGA Gain:,64,,
Total Measurement Time in sec:,  2.722,,
Wavelength (nm),Absorbance (AU),Reference Signal (unitless),Sample Signal (unitless)
901.51,0.067878,108485,92788
905.376,0.075193,121306,102021
909.237,0.077305,131909,110400
913.095,0.077997,143299,119742
916.948,0.078526,156982,131016
922.079,0.080994,179937,149323
925.923,0.082258,200504,165907
929.762,0.082185,222660,184271
933.597,0.082607,244426,202088
937.427,0.081136,263972,218989
941.254,0.079964,281845,234448
945.076,0.078703,297271,247999
950.165,0.077673,315605,263919
953.978,0.077232,328029,274587
957.786,0.077847,340470,284598
961.59,0.077719,352317,294588
965.389,0.077731,363056,303559
969.185,0.078027,373162,311796
972.976,0.077527,382632,320077
976.763,0.078473,391202,326534
981.806,0.078611,400190,333930
985.583,0.079796,406088,337928
989.355,0.080011,410162,341149
993.124,0.080269,412868,343196
996.888,0.080594,414263,344098
1000.65,0.081377,415476,344484
1004.4,0.082409,415479,343669
1009.41,0.083677,414358,341742
1013.15,0.083938,412923,340354
1016.89,0.084868,411526,338477
1020.63,0.083820,409066,337267
1024.36,0.084731,406777,334677
1028.09,0.084419,404427,332982
1031.82,0.084307,401911,330996
1036.78,0.083591,398410,328654
1040.49,0.083915,396204,326591
1044.2,0.084016,394236,324893
1047.91,0.083358,392042,323575
1051.61,0.083319,389823,321772
1055.31,0.083106,388234,320618
1059,0.082514,387599,320530
1063.92,0.081032,386688,320870
1067.61,0.080619,386598,321100
1071.29,0.080513,387377,321826
1074.96,0.080391,388536,322879
1078.63,0.079496,389855,324644
1082.3,0.078058,391215,326857
1085.96,0.077726,393215,328779
1090.84,0.076639,396270,332164
1094.49,0.076023,398760,334725
1098.14,0.075809,400987,336761
1101.79,0.075262,403477,339279
1105.43,0.074672,406116,341962
1109.06,0.074201,407701,343669
1112.7,0.073884,409859,345741
1117.53,0.072841,412494,348800
1121.15,0.073604,414909,350226
1124.77,0.074274,416559,351077
1128.38,0.074801,418532,352312
1131.99,0.075592,419956,352868
1135.6,0.077123,421946,353292
1139.2,0.079254,423881,353175
1143.99,0.080307,426786,354734
1147.58,0.081015,428617,355676
1151.17,0.082626,431169,356469
1154.75,0.082614,433579,358471
1158.33,0.083982,436264,359557
1161.91,0.085790,439132,360417
1165.48,0.088114,442389,361152
1169.04,0.090584,446101,362117
1173.79,0.094271,451929,363747
1177.34,0.095796,456026,365758
1180.9,0.098196,461306,367954
1184.44,0.100484,467657,371059
1187.99,0.100756,473969,375832
1191.52,0.101147,479856,380158
1195.06,0.100880,487372,386350
1199.76,0.100282,497347,394800
1203.29,0.100162,504311,400439
1206.81,0.099101,511507,407146
1210.33,0.097734,519078,414475
1213.84,0.098363,527163,420322
1217.35,0.097283,534208,427000
1220.85,0.096280,540472,433005
1225.51,0.095878,549929,440990
1229.01,0.095268,556888,447198
1232.5,0.094220,562180,452538
1235.98,0.094036,567975,457397
1239.46,0.093250,574815,463744
1242.94,0.092080,582782,471440
1246.41,0.091230,591476,479410
1251.03,0.091432,604016,489346
1254.5,0.091346,612289,496147
1257.96,0.091970,619125,500966
1261.41,0.092594,624551,504631
1264.86,0.092813,629900,508696
1268.31,0.093583,634345,511379
1271.75,0.094484,638574,513721
1276.33,0.093973,642499,517487
1279.76,0.093962,645905,520243
1283.19,0.094032,648307,522094
1286.61,0.093428,650446,524546
1290.03,0.093012,652132,526409
1293.44,0.092774,653907,528132
1296.85,0.092373,655963,530281
1301.39,0.091832,657349,532064
1304.8,0.091879,657558,532176
1308.19,0.091977,658515,532830
1311.58,0.092179,658804,532816
1314.97,0.092645,659011,532412
1318.36,0.092891,658272,531513
1321.73,0.093323,658022,530784
1326.23,0.093935,657870,529914
1329.6,0.095227,656482,527225
1332.97,0.095289,654926,525900
1336.33,0.096252,653727,523774
1339.69,0.097687,652497,521064
1343.04,0.099443,649913,516907
1346.39,0.101287,647671,512941
1349.73,0.103192,645338,508856
1354.18,0.105784,641175,502565
1357.52,0.107862,638376,497983
1360.85,0.109840,635805,493724
1364.17,0.111942,633413,489491
1367.49,0.114508,631026,484774
1370.81,0.116379,628050,480413
1374.12,0.118487,625034,475791
1378.54,0.120964,620272,469481
1381.84,0.123771,616892,463915
1385.14,0.127141,613613,457882
1388.43,0.130667,611526,452635
1391.72,0.134418,610663,448109
1395.01,0.138521,610634,443874
1398.29,0.142632,611700,440460
1402.66,0.148240,614051,436480
1405.93,0.153763,616268,432520
1409.2,0.158009,617795,429374
1412.46,0.162699,618872,425502
1415.72,0.166070,619795,422842
1418.98,0.169459,620495,420029
1422.23,0.173012,621087,417004
1426.56,0.175768,621375,414558
1429.8,0.178597,621616,412027
1433.04,0.181470,622129,409648
1436.27,0.183884,621526,406982
1439.5,0.185548,621113,405156
1442.72,0.188302,620921,402471
1445.94,0.190500,620270,400019
1450.23,0.193990,618860,395915
1453.44,0.197031,617697,392414
1456.64,0.200242,616264,388620
1459.85,0.202638,614413,385321
1463.04,0.205645,612307,381350
1466.24,0.209106,610032,376918
1469.43,0.213013,607345,371897
1473.67,0.219660,603789,364104
1476.85,0.225432,601175,357741
1480.02,0.230977,597737,351183
1483.19,0.237358,594479,344174
1486.36,0.244191,591232,336951
1489.52,0.248624,587853,331623
1492.68,0.252175,583875,326697
1496.89,0.254163,578062,321967
1500.03,0.254300,574159,319692
1503.18,0.254610,570285,317309
1506.32,0.254318,565444,314827
1509.45,0.252530,560571,313401
1512.58,0.250974,555821,311861
1515.71,0.248682,550344,310422
1519.87,0.245957,543983,308765
1522.99,0.243189,538764,307758
1526.1,0.240737,533692,306587
1529.21,0.237966,527902,305202
1532.32,0.234955,521886,303823
1535.42,0.231784,515888,302532
1538.51,0.229131,509987,300904
1541.6,0.226353,503936,299242
1545.72,0.221519,494694,297042
1548.8,0.219398,488378,294685
1551.88,0.217085,481832,292288
1554.95,0.215175,474989,289407
1558.02,0.213127,467818,286385
1561.08,0.212456,460730,282482
1564.15,0.212409,454170,278490
1568.22,0.211661,444181,272834
1571.27,0.210807,436947,268919
1574.32,0.209304,429598,265313
1577.36,0.208167,422039,261328
1580.4,0.207138,414375,257191
1583.43,0.206107,406354,252812
1586.46,0.203994,398475,249119
1590.49,0.202563,388982,243987
1593.51,0.200929,380708,239697
1596.53,0.198416,372727,236034
1599.54,0.195835,365060,232557
1602.55,0.194102,357543,228679
1605.55,0.192140,349495,224544
1608.55,0.190482,341154,220023
1612.54,0.187913,330877,214661
1615.53,0.187096,322904,209883
1618.51,0.185754,315116,205455
1621.49,0.185832,307217,200269
1624.47,0.182788,299481,196599
1627.44,0.183256,292112,191555
1630.41,0.182558,284245,186696
1634.36,0.180653,274079,180810
1637.32,0.179527,266916,176542
1640.27,0.180484,259612,171333
1643.22,0.179221,251804,166664
1646.16,0.178494,244348,162000
1649.1,0.177417,236703,157321
1652.04,0.175951,228171,152163
1655.95,0.173118,215408,144592
1658.88,0.168437,204937,139054
1661.8,0.163948,193395,132586
1664.72,0.155301,179728,125694
1667.63,0.142746,163642,117801
1670.54,0.127304,146312,109138
1673.44,0.114218,128451,98746
1677.31,0.092817,105080,84860
1680.21,0.079564,88906,74023
1683.1,0.073348,75033,63373
1685.99,0.075841,63520,53342
1688.87,0.078664,53714,44815
1691.75,0.078066,45653,38142
1694.62,0.088321,39137,31935
1697.49,0.089149,33776,27508
1701.31,0.096063,28175,22584

File: Column 1_050618_20150331_123200.csv
Method:,Column 1,,
Host Date-Time:,31/3/15 @ 12:32:0,,
Header Version:,1,,
System Temp (C):,34.14,,
Detector Temp (C):,35,,
Humidity (%):,1.66,,
Lamp PD:,3818,,
Shift Vector Coefficients:,-10.5391,0.0761263,-0.000134223,,
Pixel to Wavelength Coefficients:,1775.68,-0.916766,-0.000235065,,
Serial Number:,5510004,,
Scan Config Name:,Column 1,,
Scan Config Type:,Slew,,
Section 1,,
Start wavelength (nm):,900,,
End wavelength (nm):,1700,,
Pattern Pixel Width (nm):,   7.03,,,,
Exposure (ms):,  0.635,,,,
Digital Resolution:,228,,
Num Repeats:,6,,
PGA Gain:,64,,
Total Measurement Time in sec:,  2.673,,
Wavelength (nm),Absorbance (AU),Reference Signal (unitless),Sample Signal (unitless)
901.51,0.068815,108485,92588
905.376,0.075363,121306,101981
909.237,0.076511,131909,110602
913.095,0.077384,143299,119911
916.948,0.077833,156982,131225
922.079,0.080061,179937,149644
925.923,0.081338,200504,166259
929.762,0.082343,222660,184204
933.597,0.081619,244426,202548
937.427,0.081040,263972,219037
941.254,0.079849,281845,234510
945.076,0.079565,297271,247507
950.165,0.078192,315605,263604
953.978,0.077626,328029,274338
957.786,0.077612,340470,284752
961.59,0.077692,352317,294606
965.389,0.077137,363056,303974
969.185,0.077104,373162,312459
972.976,0.078291,382632,319514
976.763,0.078437,391202,326561
981.806,0.078753,400190,333821
985.583,0.078899,406088,338627
989.355,0.079893,410162,341242
993.124,0.080653,412868,342893
996.888,0.080473,414263,344194
1000.65,0.081471,415476,344409
1004.4,0.082680,415479,343454
1009.41,0.084075,414358,341429
1013.15,0.084144,412923,340193
1016.89,0.084192,411526,339004
1020.63,0.084232,409066,336947
1024.36,0.084716,406777,334688
1028.09,0.084653,404427,332803
1031.82,0.084138,401911,331125
1036.78,0.083690,398410,328579
1040.49,0.083440,396204,326948
1044.2,0.083703,394236,325127
1047.91,0.083410,392042,323536
1051.61,0.083184,389823,321872
1055.31,0.082973,388234,320716
1059,0.082350,387599,320651
1063.92,0.081618,386688,320437
1067.61,0.080430,386598,321240
1071.29,0.080413,387377,321900
1074.96,0.079955,388536,323204
1078.63,0.079107,389855,324935
1082.3,0.078184,391215,326762
1085.96,0.077360,393215,329056
1090.84,0.076705,396270,332113
1094.49,0.075787,398760,334907
1098.14,0.075729,400987,336823
1101.79,0.074709,403477,339711
1105.43,0.074417,406116,342163
1109.06,0.074026,407701,343808
1112.7,0.073501,409859,346046
1117.53,0.072957,412494,348707
1121.15,0.074193,414909,349752
1124.77,0.073709,416559,351534
1128.38,0.074708,418532,352388
1131.99,0.075829,419956,352675
1135.6,0.077373,421946,353089
1139.2,0.078831,423881,353519
1143.99,0.080756,426786,354368
1147.58,0.080578,428617,356034
1151.17,0.082640,431169,356457
1154.75,0.083216,433579,357975
1158.33,0.084471,436264,359152
1161.91,0.086378,439132,359929
1165.48,0.088562,442389,360780
1169.04,0.090424,446101,362251
1173.79,0.094616,451929,363458
1177.34,0.095950,456026,365628
1180.9,0.098265,461306,367895
1184.44,0.100316,467657,371203
1187.99,0.101259,473969,375397
1191.52,0.100399,479856,380813
1195.06,0.100365,487372,386808
1199.76,0.100132,497347,394937
1203.29,0.099333,504311,401204
1206.81,0.098445,511507,407762
1210.33,0.098070,519078,414155
1213.84,0.097462,527163,421195
1217.35,0.097064,534208,427215
1220.85,0.096377,540472,432909
1225.51,0.095571,549929,441302
1229.01,0.095155,556888,447314
1232.5,0.094464,562180,452284
1235.98,0.094131,567975,457297
1239.46,0.092937,574815,464078
1242.94,0.091849,582782,471691
1246.41,0.091062,591476,479595
1251.03,0.090964,604016,489874
1254.5,0.091452,612289,496026
1257.96,0.091861,619125,501092
1261.41,0.092461,624551,504786
1264.86,0.093419,629900,507987
1268.31,0.093322,634345,511686
1271.75,0.094186,638574,514073
1276.33,0.094232,642499,517178
1279.76,0.094408,645905,519710
1283.19,0.093729,648307,522458
1286.61,0.093390,650446,524591
1290.03,0.093207,652132,526173
1293.44,0.092471,653907,528500
1296.85,0.092265,655963,530413
1301.39,0.092289,657349,531505
1304.8,0.091660,657558,532444
1308.19,0.092179,658515,532582
1311.58,0.092257,658804,532720
1314.97,0.092399,659011,532714
1318.36,0.092881,658272,531526
1321.73,0.093088,658022,531071
1326.23,0.093775,657870,530109
1329.6,0.094743,656482,527813
1332.97,0.095646,654926,525468
1336.33,0.096445,653727,523542
1339.69,0.097994,652497,520696
1343.04,0.099360,649913,517006
1346.39,0.101122,647671,513136
1349.73,0.103144,645338,508913
1354.18,0.106086,641175,502216
1357.52,0.107891,638376,497950
1360.85,0.110009,635805,493532
1364.17,0.111813,633413,489637
1367.49,0.114015,631026,485325
1370.81,0.116691,628050,480068
1374.12,0.118062,625034,476257
1378.54,0.121036,620272,469403
1381.84,0.124066,616892,463600
1385.14,0.126704,613613,458343
1388.43,0.130609,611526,452695
1391.72,0.134563,610663,447959
1395.01,0.138336,610634,444063
1398.29,0.142410,611700,440685
1402.66,0.148407,614051,436312
1405.93,0.153066,616268,433215
1409.2,0.158018,617795,429365
1412.46,0.162262,618872,425931
1415.72,0.165848,619795,423058
1418.98,0.169667,620495,419828
1422.23,0.172561,621087,417437
1426.56,0.176496,621375,413864
1429.8,0.179291,621616,411369
1433.04,0.181305,622129,409803
1436.27,0.183572,621526,407275
1439.5,0.185616,621113,405093
1442.72,0.188618,620921,402178
1445.94,0.190773,620270,399768
1450.23,0.194625,618860,395337
1453.44,0.196850,617697,392578
1456.64,0.199747,616264,389063
1459.85,0.202127,614413,385774
1463.04,0.205252,612307,381696
1466.24,0.208631,610032,377330
1469.43,0.212850,607345,372036
1473.67,0.219312,603789,364396
1476.85,0.224943,601175,358144
1480.02,0.231281,597737,350937
1483.19,0.238128,594479,343565
1486.36,0.243484,591232,337500
1489.52,0.247839,587853,332223
1492.68,0.252288,583875,326612
1496.89,0.254317,578062,321853
1500.03,0.254904,574159,319248
1503.18,0.255687,570285,316523
1506.32,0.254278,565444,314856
1509.45,0.252848,560571,313172
1512.58,0.250730,555821,312036
1515.71,0.248494,550344,310556
1519.87,0.245713,543983,308939
1522.99,0.242868,538764,307986
1526.1,0.240974,533692,306420
1529.21,0.237906,527902,305244
1532.32,0.235122,521886,303706
1535.42,0.231646,515888,302628
1538.51,0.229107,509987,300921
1541.6,0.226745,503936,298972
1545.72,0.221544,494694,297025
1548.8,0.219316,488378,294741
1551.88,0.216877,481832,292428
1554.95,0.215335,474989,289300
1558.02,0.213712,467818,285999
1561.08,0.212038,460730,282754
1564.15,0.211773,454170,278898
1568.22,0.210445,444181,273599
1571.27,0.210465,436947,269131
1574.32,0.210026,429598,264872
1577.36,0.208045,422039,261401
1580.4,0.206842,414375,257366
1583.43,0.206048,406354,252846
1586.46,0.204128,398475,249042
1590.49,0.202095,388982,244250
1593.51,0.200232,380708,240082
1596.53,0.198047,372727,236235
1599.54,0.197052,365060,231906
1602.55,0.195146,357543,228130
1605.55,0.192416,349495,224401
1608.55,0.190994,341154,219764
1612.54,0.189433,330877,213911
1615.53,0.186389,322904,210225
1618.51,0.185836,315116,205416
1621.49,0.185379,307217,200478
1624.47,0.184659,299481,195754
1627.44,0.183458,292112,191466
1630.41,0.181977,284245,186946
1634.36,0.181829,274079,180321
1637.32,0.180993,266916,175947
1640.27,0.178834,259612,171985
1643.22,0.177642,251804,167271
1646.16,0.177538,244348,162357
1649.1,0.177378,236703,157335
1652.04,0.176100,228171,152111
1655.95,0.173139,215408,144585
1658.88,0.168218,204937,139124
1661.8,0.163686,193395,132666
1664.72,0.154887,179728,125814
1667.63,0.142853,163642,117772
1670.54,0.128647,146312,108801
1673.44,0.109072,128451,99923
1677.31,0.091397,105080,85138
1680.21,0.080822,88906,73809
1683.1,0.071161,75033,63693
1685.99,0.073414,63520,53641
1688.87,0.079013,53714,44779
1691.75,0.081059,45653,37880
1694.62,0.083277,39137,32308
1697.49,0.097631,33776,26976
1701.31,0.097488,28175,22510