Folder: textile_sorting_NIRSCAN_/samples/wool/wool-000811 (part 155)

File: Column 1_050616_20150331_123114.csv
Method:,Column 1,,
Host Date-Time:,31/3/15 @ 12:31:14,,
Header Version:,1,,
System Temp (C):,34.12,,
Detector Temp (C):,34.95,,
Humidity (%):,1.66,,
Lamp PD:,3818,,
Shift Vector Coefficients:,-10.5391,0.0761263,-0.000134223,,
Pixel to Wavelength Coefficients:,1775.68,-0.916766,-0.000235065,,
Serial Number:,5510004,,
Scan Config Name:,Column 1,,
Scan Config Type:,Slew,,
Section 1,,
Start wavelength (nm):,900,,
End wavelength (nm):,1700,,
Pattern Pixel Width (nm):,   7.03,,,,
Exposure (ms):,  0.635,,,,
Digital Resolution:,228,,
Num Repeats:,6,,
PGA Gain:,64,,
Total Measurement Time in sec:,  2.680,,
Wavelength (nm),Absorbance (AU),Reference Signal (unitless),Sample Signal (unitless)
901.51,0.068656,108485,92622
905.376,0.074950,121306,102078
909.237,0.076107,131909,110705
913.095,0.077812,143299,119793
916.948,0.078516,156982,131019
922.079,0.079919,179937,149693
925.923,0.082214,200504,165924
929.762,0.081759,222660,184452
933.597,0.081705,244426,202508
937.427,0.080767,263972,219175
941.254,0.079903,281845,234481
945.076,0.079235,297271,247695
950.165,0.077764,315605,263864
953.978,0.077030,328029,274715
957.786,0.077737,340470,284670
961.59,0.077159,352317,294968
965.389,0.077540,363056,303692
969.185,0.077597,373162,312105
972.976,0.077827,382632,319856
976.763,0.078025,391202,326871
981.806,0.078596,400190,333941
985.583,0.079772,406088,337947
989.355,0.079758,410162,341348
993.124,0.080040,412868,343377
996.888,0.080585,414263,344105
1000.65,0.081420,415476,344450
1004.4,0.082159,415479,343867
1009.41,0.083573,414358,341824
1013.15,0.084298,412923,340072
1016.89,0.085278,411526,338158
1020.63,0.084027,409066,337106
1024.36,0.084258,406777,335041
1028.09,0.084178,404427,333167
1031.82,0.083718,401911,331445
1036.78,0.084451,398410,328004
1040.49,0.083572,396204,326849
1044.2,0.083568,394236,325228
1047.91,0.083372,392042,323564
1051.61,0.082642,389823,322274
1055.31,0.082494,388234,321070
1059,0.082170,387599,320784
1063.92,0.081262,386688,320700
1067.61,0.080751,386598,321003
1071.29,0.080571,387377,321783
1074.96,0.079613,388536,323458
1078.63,0.079227,389855,324845
1082.3,0.078030,391215,326878
1085.96,0.077472,393215,328971
1090.84,0.076679,396270,332133
1094.49,0.076314,398760,334501
1098.14,0.075212,400987,337224
1101.79,0.074640,403477,339765
1105.43,0.074996,406116,341707
1109.06,0.074114,407701,343738
1112.7,0.073920,409859,345712
1117.53,0.073311,412494,348423
1121.15,0.073467,414909,350337
1124.77,0.073583,416559,351636
1128.38,0.074406,418532,352633
1131.99,0.075494,419956,352947
1135.6,0.076769,421946,353580
1139.2,0.078156,423881,354069
1143.99,0.080503,426786,354574
1147.58,0.080594,428617,356021
1151.17,0.082564,431169,356520
1154.75,0.082791,433579,358325
1158.33,0.084261,436264,359326
1161.91,0.086232,439132,360050
1165.48,0.088592,442389,360755
1169.04,0.090576,446101,362124
1173.79,0.093567,451929,364337
1177.34,0.095760,456026,365788
1180.9,0.098206,461306,367945
1184.44,0.100358,467657,371167
1187.99,0.100706,473969,375875
1191.52,0.100942,479856,380337
1195.06,0.100750,487372,386465
1199.76,0.100085,497347,394979
1203.29,0.099046,504311,401469
1206.81,0.098734,511507,407491
1210.33,0.098342,519078,413895
1213.84,0.098283,527163,420399
1217.35,0.097131,534208,427149
1220.85,0.096730,540472,432557
1225.51,0.096191,549929,440672
1229.01,0.095326,556888,447138
1232.5,0.094581,562180,452162
1235.98,0.094317,567975,457101
1239.46,0.093292,574815,463699
1242.94,0.092430,582782,471060
1246.41,0.091440,591476,479178
1251.03,0.091411,604016,489370
1254.5,0.091157,612289,496363
1257.96,0.091930,619125,501012
1261.41,0.092402,624551,504854
1264.86,0.092738,629900,508784
1268.31,0.093344,634345,511660
1271.75,0.093882,638574,514433
1276.33,0.094653,642499,516677
1279.76,0.094225,645905,519929
1283.19,0.093967,648307,522172
1286.61,0.093281,650446,524723
1290.03,0.093105,652132,526296
1293.44,0.092873,653907,528011
1296.85,0.092283,655963,530391
1301.39,0.092064,657349,531780
1304.8,0.091834,657558,532231
1308.19,0.091885,658515,532943
1311.58,0.092547,658804,532365
1314.97,0.092346,659011,532779
1318.36,0.093028,658272,531346
1321.73,0.093041,658022,531128
1326.23,0.094193,657870,529599
1329.6,0.094974,656482,527532
1332.97,0.095704,654926,525398
1336.33,0.096578,653727,523381
1339.69,0.097933,652497,520770
1343.04,0.099129,649913,517281
1346.39,0.101281,647671,512948
1349.73,0.103030,645338,509046
1354.18,0.106012,641175,502302
1357.52,0.107675,638376,498197
1360.85,0.110250,635805,493258
1364.17,0.111998,633413,489428
1367.49,0.114413,631026,484880
1370.81,0.116443,628050,480343
1374.12,0.118493,625034,475785
1378.54,0.121338,620272,469077
1381.84,0.123938,616892,463736
1385.14,0.127099,613613,457926
1388.43,0.130907,611526,452385
1391.72,0.134494,610663,448031
1395.01,0.138648,610634,443745
1398.29,0.142861,611700,440228
1402.66,0.149093,614051,435624
1405.93,0.154014,616268,432271
1409.2,0.158337,617795,429049
1412.46,0.162780,618872,425423
1415.72,0.165971,619795,422938
1418.98,0.169869,620495,419633
1422.23,0.172857,621087,417153
1426.56,0.176732,621375,413639
1429.8,0.179263,621616,411395
1433.04,0.181621,622129,409505
1436.27,0.183638,621526,407213
1439.5,0.185927,621113,404803
1442.72,0.188340,620921,402436
1445.94,0.191123,620270,399446
1450.23,0.194381,618860,395559
1453.44,0.196971,617697,392468
1456.64,0.200121,616264,388728
1459.85,0.202879,614413,385107
1463.04,0.206262,612307,380809
1466.24,0.209080,610032,376940
1469.43,0.213640,607345,371360
1473.67,0.218853,603789,364781
1476.85,0.225515,601175,357673
1480.02,0.231251,597737,350961
1483.19,0.237730,594479,343880
1486.36,0.243847,591232,337218
1489.52,0.249009,587853,331329
1492.68,0.252435,583875,326501
1496.89,0.253740,578062,322281
1500.03,0.253989,574159,319921
1503.18,0.255216,570285,316866
1506.32,0.254369,565444,314790
1509.45,0.252559,560571,313380
1512.58,0.250647,555821,312096
1515.71,0.248472,550344,310572
1519.87,0.245916,543983,308794
1522.99,0.243133,538764,307798
1526.1,0.240736,533692,306588
1529.21,0.237936,527902,305223
1532.32,0.234939,521886,303834
1535.42,0.231790,515888,302528
1538.51,0.229124,509987,300909
1541.6,0.226825,503936,298917
1545.72,0.222151,494694,296610
1548.8,0.219120,488378,294874
1551.88,0.216722,481832,292532
1554.95,0.215098,474989,289458
1558.02,0.213136,467818,286379
1561.08,0.212476,460730,282469
1564.15,0.212036,454170,278729
1568.22,0.211025,444181,273234
1571.27,0.209999,436947,269420
1574.32,0.209127,429598,265421
1577.36,0.208817,422039,260937
1580.4,0.207222,414375,257141
1583.43,0.205364,406354,253245
1586.46,0.203818,398475,249220
1590.49,0.201827,388982,244401
1593.51,0.200169,380708,240117
1596.53,0.198363,372727,236063
1599.54,0.196715,365060,232086
1602.55,0.194395,357543,228525
1605.55,0.193280,349495,223955
1608.55,0.191540,341154,219488
1612.54,0.188476,330877,214383
1615.53,0.186966,322904,209946
1618.51,0.186498,315116,205103
1621.49,0.184855,307217,200720
1624.47,0.183356,299481,196342
1627.44,0.184216,292112,191132
1630.41,0.181327,284245,187226
1634.36,0.180363,274079,180931
1637.32,0.179842,266916,176414
1640.27,0.180674,259612,171258
1643.22,0.177754,251804,167228
1646.16,0.177912,244348,162217
1649.1,0.175910,236703,157868
1652.04,0.174828,228171,152557
1655.95,0.171837,215408,145019
1658.88,0.167532,204937,139344
1661.8,0.163486,193395,132727
1664.72,0.157529,179728,125051
1667.63,0.144223,163642,117401
1670.54,0.127965,146312,108972
1673.44,0.112090,128451,99231
1677.31,0.090612,105080,85292
1680.21,0.078474,88906,74209
1683.1,0.072615,75033,63480
1685.99,0.073600,63520,53618
1688.87,0.076306,53714,45059
1691.75,0.078100,45653,38139
1694.62,0.090584,39137,31769
1697.49,0.090224,33776,27440
1701.31,0.103218,28175,22215

File: Column 1_050616_20150331_123117.csv
Method:,Column 1,,
Host Date-Time:,31/3/15 @ 12:31:17,,
Header Version:,1,,
System Temp (C):,34.12,,
Detector Temp (C):,35.01,,
Humidity (%):,1.66,,
Lamp PD:,3818,,
Shift Vector Coefficients:,-10.5391,0.0761263,-0.000134223,,
Pixel to Wavelength Coefficients:,1775.68,-0.916766,-0.000235065,,
Serial Number:,5510004,,
Scan Config Name:,Column 1,,
Scan Config Type:,Slew,,
Section 1,,
Start wavelength (nm):,900,,
End wavelength (nm):,1700,,
Pattern Pixel Width (nm):,   7.03,,,,
Exposure (ms):,  0.635,,,,
Digital Resolution:,228,,
Num Repeats:,6,,
PGA Gain:,64,,
Total Measurement Time in sec:,  2.670,,
Wavelength (nm),Absorbance (AU),Reference Signal (unitless),Sample Signal (unitless)
901.51,0.070323,108485,92267
905.376,0.075670,121306,101909
909.237,0.076696,131909,110555
913.095,0.078672,143299,119556
916.948,0.078472,156982,131032
922.079,0.080044,179937,149650
925.923,0.082455,200504,165832
929.762,0.082782,222660,184018
933.597,0.082444,244426,202164
937.427,0.081074,263972,219020
941.254,0.080598,281845,234106
945.076,0.078654,297271,248027
950.165,0.078342,315605,263513
953.978,0.077506,328029,274414
957.786,0.077749,340470,284662
961.59,0.078053,352317,294361
965.389,0.077156,363056,303961
969.185,0.077284,373162,312330
972.976,0.077941,382632,319772
976.763,0.078281,391202,326678
981.806,0.078996,400190,333634
985.583,0.079585,406088,338092
989.355,0.080113,410162,341069
993.124,0.080544,412868,342979
996.888,0.080586,414263,344104
1000.65,0.081523,415476,344368
1004.4,0.082674,415479,343459
1009.41,0.083804,414358,341642
1013.15,0.084385,412923,340004
1016.89,0.084896,411526,338455
1020.63,0.085006,409066,336347
1024.36,0.084868,406777,334571
1028.09,0.084387,404427,333007
1031.82,0.084396,401911,330928
1036.78,0.084399,398410,328043
1040.49,0.083542,396204,326871
1044.2,0.083811,394236,325046
1047.91,0.083538,392042,323441
1051.61,0.083468,389823,321662
1055.31,0.082835,388234,320818
1059,0.082063,387599,320863
1063.92,0.081507,386688,320519
1067.61,0.080575,386598,321133
1071.29,0.080677,387377,321704
1074.96,0.080424,388536,322855
1078.63,0.078937,389855,325062
1082.3,0.078712,391215,326365
1085.96,0.077529,393215,328928
1090.84,0.076731,396270,332093
1094.49,0.076206,398760,334584
1098.14,0.075046,400987,337353
1101.79,0.075216,403477,339315
1105.43,0.074844,406116,341827
1109.06,0.074037,407701,343799
1112.7,0.074215,409859,345477
1117.53,0.072724,412494,348894
1121.15,0.074023,414909,349889
1124.77,0.074186,416559,351148
1128.38,0.075308,418532,351901
1131.99,0.075844,419956,352663
1135.6,0.077529,421946,352962
1139.2,0.078430,423881,353846
1143.99,0.080817,426786,354318
1147.58,0.081359,428617,355394
1151.17,0.082693,431169,356414
1154.75,0.083417,433579,357809
1158.33,0.084415,436264,359198
1161.91,0.086238,439132,360045
1165.48,0.088541,442389,360797
1169.04,0.090807,446101,361931
1173.79,0.093771,451929,364166
1177.34,0.096017,456026,365572
1180.9,0.098392,461306,367788
1184.44,0.099859,467657,371594
1187.99,0.101263,473969,375394
1191.52,0.100900,479856,380374
1195.06,0.100953,487372,386285
1199.76,0.100592,497347,394519
1203.29,0.099305,504311,401230
1206.81,0.099042,511507,407202
1210.33,0.098405,519078,413835
1213.84,0.098023,527163,420651
1217.35,0.097455,534208,426830
1220.85,0.096724,540472,432563
1225.51,0.095747,549929,441123
1229.01,0.095399,556888,447063
1232.5,0.094486,562180,452261
1235.98,0.094100,567975,457330
1239.46,0.093004,574815,464006
1242.94,0.092651,582782,470820
1246.41,0.091713,591476,478877
1251.03,0.091660,604016,489090
1254.5,0.091266,612289,496239
1257.96,0.092164,619125,500742
1261.41,0.092609,624551,504613
1264.86,0.093313,629900,508111
1268.31,0.093565,634345,511400
1271.75,0.094190,638574,514069
1276.33,0.094490,642499,516871
1279.76,0.094440,645905,519671
1283.19,0.093855,648307,522307
1286.61,0.093370,650446,524616
1290.03,0.093043,652132,526372
1293.44,0.092578,653907,528370
1296.85,0.092786,655963,529777
1301.39,0.092004,657349,531854
1304.8,0.092404,657558,531533
1308.19,0.092152,658515,532615
1311.58,0.092093,658804,532921
1314.97,0.092572,659011,532501
1318.36,0.092788,658272,531640
1321.73,0.093734,658022,530281
1326.23,0.094189,657870,529604
1329.6,0.094826,656482,527712
1332.97,0.095669,654926,525440
1336.33,0.096630,653727,523319
1339.69,0.098059,652497,520618
1343.04,0.099513,649913,516823
1346.39,0.101405,647671,512802
1349.73,0.103438,645338,508568
1354.18,0.106266,641175,502008
1357.52,0.108352,638376,497422
1360.85,0.110152,635805,493369
1364.17,0.112304,633413,489083
1367.49,0.114149,631026,485175
1370.81,0.116671,628050,480091
1374.12,0.118479,625034,475800
1378.54,0.121363,620272,469050
1381.84,0.123999,616892,463671
1385.14,0.127293,613613,457722
1388.43,0.130749,611526,452549
1391.72,0.134730,610663,447787
1395.01,0.138908,610634,443479
1398.29,0.143139,611700,439946
1402.66,0.148819,614051,435899
1405.93,0.153381,616268,432901
1409.2,0.158289,617795,429097
1412.46,0.162841,618872,425363
1415.72,0.166175,619795,422740
1418.98,0.170079,620495,419430
1422.23,0.172799,621087,417209
1426.56,0.177254,621375,413142
1429.8,0.179681,621616,410999
1433.04,0.182169,622129,408989
1436.27,0.184253,621526,406636
1439.5,0.186526,621113,404245
1442.72,0.188720,620921,402084
1445.94,0.191141,620270,399429
1450.23,0.195151,618860,394858
1453.44,0.196916,617697,392518
1456.64,0.200406,616264,388473
1459.85,0.203186,614413,384835
1463.04,0.205677,612307,381322
1466.24,0.209212,610032,376826
1469.43,0.212965,607345,371938
1473.67,0.219755,603789,364024
1476.85,0.225024,601175,358077
1480.02,0.231618,597737,350665
1483.19,0.238076,594479,343606
1486.36,0.244207,591232,336939
1489.52,0.248898,587853,331414
1492.68,0.253052,583875,326038
1496.89,0.254082,578062,322027
1500.03,0.254589,574159,319480
1503.18,0.255208,570285,316872
1506.32,0.254471,565444,314716
1509.45,0.252921,560571,313119
1512.58,0.250875,555821,311932
1515.71,0.248668,550344,310432
1519.87,0.245810,543983,308870
1522.99,0.243311,538764,307672
1526.1,0.240772,533692,306562
1529.21,0.237716,527902,305378
1532.32,0.234442,521886,304182
1535.42,0.232353,515888,302136
1538.51,0.229437,509987,300692
1541.6,0.226286,503936,299288
1545.72,0.221981,494694,296726
1548.8,0.219310,488378,294745
1551.88,0.217317,481832,292132
1554.95,0.215340,474989,289297
1558.02,0.213397,467818,286207
1561.08,0.212433,460730,282497
1564.15,0.211771,454170,278899
1568.22,0.211394,444181,273002
1571.27,0.210912,436947,268854
1574.32,0.209833,429598,264990
1577.36,0.208627,422039,261051
1580.4,0.207690,414375,256864
1583.43,0.205882,406354,252943
1586.46,0.204523,398475,248816
1590.49,0.202915,388982,243789
1593.51,0.200021,380708,240199
1596.53,0.198762,372727,235846
1599.54,0.196588,365060,232154
1602.55,0.194149,357543,228654
1605.55,0.193294,349495,223948
1608.55,0.190352,341154,220089
1612.54,0.188861,330877,214193
1615.53,0.187367,322904,209752
1618.51,0.186615,315116,205048
1621.49,0.185543,307217,200402
1624.47,0.184548,299481,195804
1627.44,0.184243,292112,191120
1630.41,0.183597,284245,186250
1634.36,0.179869,274079,181137
1637.32,0.180608,266916,176103
1640.27,0.180900,259612,171169
1643.22,0.178367,251804,166992
1646.16,0.178036,244348,162171
1649.1,0.177196,236703,157401
1652.04,0.177178,228171,151734
1655.95,0.173668,215408,144409
1658.88,0.169074,204937,138850
1661.8,0.162630,193395,132989
1664.72,0.154932,179728,125801
1667.63,0.143827,163642,117508
1670.54,0.131117,146312,108184
1673.44,0.112905,128451,99045
1677.31,0.093914,105080,84646
1680.21,0.081440,88906,73704
1683.1,0.072438,75033,63506
1685.99,0.074224,63520,53541
1688.87,0.079673,53714,44711
1691.75,0.084154,45653,37611
1694.62,0.089928,39137,31817
1697.49,0.090667,33776,27412
1701.31,0.092482,28175,22771

File: Column 1_050616_20150331_123120.csv
Method:,Column 1,,
Host Date-Time:,31/3/15 @ 12:31:20,,
Header Version:,1,,
System Temp (C):,34.11,,
Detector Temp (C):,35.01,,
Humidity (%):,1.66,,
Lamp PD:,3817,,
Shift Vector Coefficients:,-10.5391,0.0761263,-0.000134223,,
Pixel to Wavelength Coefficients:,1775.68,-0.916766,-0.000235065,,
Serial Number:,5510004,,
Scan Config Name:,Column 1,,
Scan Config Type:,Slew,,
Section 1,,
Start wavelength (nm):,900,,
End wavelength (nm):,1700,,
Pattern Pixel Width (nm):,   7.03,,,,
Exposure (ms):,  0.635,,,,
Digital Resolution:,228,,
Num Repeats:,6,,
PGA Gain:,64,,
Total Measurement Time in sec:,  2.672,,
Wavelength (nm),Absorbance (AU),Reference Signal (unitless),Sample Signal (unitless)
901.51,0.069186,108485,92509
905.376,0.073476,121306,102425
909.237,0.077778,131909,110280
913.095,0.077663,143299,119834
916.948,0.078506,156982,131022
922.079,0.079771,179937,149744
925.923,0.082546,200504,165797
929.762,0.082093,222660,184310
933.597,0.082551,244426,202114
937.427,0.081794,263972,218657
941.254,0.080486,281845,234166
945.076,0.079633,297271,247468
950.165,0.078342,315605,263513
953.978,0.077055,328029,274699
957.786,0.077765,340470,284652
961.59,0.077658,352317,294629
965.389,0.077552,363056,303684
969.185,0.077672,373162,312051
972.976,0.078276,382632,319525
976.763,0.078781,391202,326302
981.806,0.079019,400190,333616
985.583,0.079181,406088,338407
989.355,0.079453,410162,341588
993.124,0.080151,412868,343289
996.888,0.080129,414263,344467
1000.65,0.081300,415476,344545
1004.4,0.082877,415479,343299
1009.41,0.083679,414358,341741
1013.15,0.084372,412923,340014
1016.89,0.085035,411526,338347
1020.63,0.084878,409066,336446
1024.36,0.084283,406777,335022
1028.09,0.084412,404427,332988
1031.82,0.084152,401911,331114
1036.78,0.084062,398410,328298
1040.49,0.083798,396204,326679
1044.2,0.083974,394236,324924
1047.91,0.083462,392042,323497
1051.61,0.083406,389823,321708
1055.31,0.082908,388234,320764
1059,0.082514,387599,320530
1063.92,0.081348,386688,320636
1067.61,0.080875,386598,320911
1071.29,0.080135,387377,322106
1074.96,0.079608,388536,323462
1078.63,0.079012,389855,325006
1082.3,0.077983,391215,326913
1085.96,0.077255,393215,329136
1090.84,0.076521,396270,332254
1094.49,0.076108,398760,334660
1098.14,0.075034,400987,337362
1101.79,0.075162,403477,339357
1105.43,0.074613,406116,342009
1109.06,0.073748,407701,344028
1112.7,0.073458,409859,346080
1117.53,0.073641,412494,348158
1121.15,0.072833,414909,350849
1124.77,0.073087,416559,352038
1128.38,0.074695,418532,352398
1131.99,0.075705,419956,352776
1135.6,0.077178,421946,353247
1139.2,0.078560,423881,353740
1143.99,0.081016,426786,354156
1147.58,0.081843,428617,354998
1151.17,0.082332,431169,356710
1154.75,0.083762,433579,357525
1158.33,0.084325,436264,359273
1161.91,0.086314,439132,359982
1165.48,0.088469,442389,360857
1169.04,0.090532,446101,362161
1173.79,0.093958,451929,364009
1177.34,0.095852,456026,365711
1180.9,0.098029,461306,368095
1184.44,0.099694,467657,371735
1187.99,0.101145,473969,375496
1191.52,0.100482,479856,380740
1195.06,0.100614,487372,386586
1199.76,0.100050,497347,395011
1203.29,0.099421,504311,401123
1206.81,0.099249,511507,407008
1210.33,0.098083,519078,414142
1213.84,0.098218,527163,420462
1217.35,0.097270,534208,427012
1220.85,0.096753,540472,432534
1225.51,0.095835,549929,441034
1229.01,0.095485,556888,446975
1232.5,0.094500,562180,452247
1235.98,0.094008,567975,457426
1239.46,0.093304,574815,463686
1242.94,0.092136,582782,471379
1246.41,0.091744,591476,478843
1251.03,0.091492,604016,489279
1254.5,0.091504,612289,495967
1257.96,0.091904,619125,501042
1261.41,0.092485,624551,504758
1264.86,0.092943,629900,508544
1268.31,0.093634,634345,511319
1271.75,0.094248,638574,514000
1276.33,0.093955,642499,517509
1279.76,0.094348,645905,519781
1283.19,0.093541,648307,522685
1286.61,0.093618,650446,524316
1290.03,0.092971,652132,526459
1293.44,0.092450,653907,528525
1296.85,0.092253,655963,530428
1301.39,0.091939,657349,531933
1304.8,0.091973,657558,532060
1308.19,0.092107,658515,532670
1311.58,0.092123,658804,532885
1314.97,0.092466,659011,532631
1318.36,0.092909,658272,531492
1321.73,0.093049,658022,531118
1326.23,0.094252,657870,529527
1329.6,0.094850,656482,527683
1332.97,0.095577,654926,525551
1336.33,0.096316,653727,523697
1339.69,0.098094,652497,520577
1343.04,0.098801,649913,517671
1346.39,0.101385,647671,512825
1349.73,0.103113,645338,508949
1354.18,0.106001,641175,502314
1357.52,0.108550,638376,497195
1360.85,0.110274,635805,493231
1364.17,0.111828,633413,489620
1367.49,0.114160,631026,485163
1370.81,0.116436,628050,480350
1374.12,0.118620,625034,475646
1378.54,0.121258,620272,469163
1381.84,0.124148,616892,463512
1385.14,0.127296,613613,457719
1388.43,0.130944,611526,452346
1391.72,0.135259,610663,447242
1395.01,0.138496,610634,443900
1398.29,0.142990,611700,440097
1402.66,0.148663,614051,436055
1405.93,0.153451,616268,432831
1409.2,0.157990,617795,429392
1412.46,0.161976,618872,426211
1415.72,0.166629,619795,422298
1418.98,0.169618,620495,419875
1422.23,0.173649,621087,416393
1426.56,0.176565,621375,413798
1429.8,0.179164,621616,411489
1433.04,0.181855,622129,409285
1436.27,0.184015,621526,406859
1439.5,0.185749,621113,404969
1442.72,0.188673,620921,402127
1445.94,0.190682,620270,399852
1450.23,0.194423,618860,395521
1453.44,0.197436,617697,392048
1456.64,0.200272,616264,388593
1459.85,0.203053,614413,384953
1463.04,0.205348,612307,381611
1466.24,0.209373,610032,376686
1469.43,0.213128,607345,371798
1473.67,0.219676,603789,364090
1476.85,0.224834,601175,358234
1480.02,0.231303,597737,350919
1483.19,0.238000,594479,343666
1486.36,0.243766,591232,337281
1489.52,0.248463,587853,331746
1492.68,0.252165,583875,326704
1496.89,0.254171,578062,321961
1500.03,0.254828,574159,319304
1503.18,0.255074,570285,316970
1506.32,0.253965,565444,315083
1509.45,0.252765,560571,313232
1512.58,0.250932,555821,311891
1515.71,0.248990,550344,310202
1519.87,0.245182,543983,309317
1522.99,0.243206,538764,307746
1526.1,0.240771,533692,306563
1529.21,0.237889,527902,305256
1532.32,0.234885,521886,303872
1535.42,0.232139,515888,302285
1538.51,0.229245,509987,300825
1541.6,0.226008,503936,299480
1545.72,0.221947,494694,296749
1548.8,0.218956,488378,294985
1551.88,0.217204,481832,292208
1554.95,0.215374,474989,289274
1558.02,0.213397,467818,286207
1561.08,0.211958,460730,282806
1564.15,0.211437,454170,279114
1568.22,0.210412,444181,273620
1571.27,0.210463,436947,269132
1574.32,0.209526,429598,265177
1577.36,0.207894,422039,261492
1580.4,0.207817,414375,256789
1583.43,0.205443,406354,253199
1586.46,0.204275,398475,248958
1590.49,0.202266,388982,244154
1593.51,0.200057,380708,240179
1596.53,0.197912,372727,236308
1599.54,0.197731,365060,231544
1602.55,0.195037,357543,228187
1605.55,0.193367,349495,223910
1608.55,0.191524,341154,219496
1612.54,0.189054,330877,214098
1615.53,0.187276,322904,209796
1618.51,0.185783,315116,205441
1621.49,0.185574,307217,200388
1624.47,0.184038,299481,196034
1627.44,0.183016,292112,191661
1630.41,0.182128,284245,186881
1634.36,0.181031,274079,180653
1637.32,0.180024,266916,176340
1640.27,0.180038,259612,171509
1643.22,0.178338,251804,167003
1646.16,0.179686,244348,161556
1649.1,0.176918,236703,157502
1652.04,0.174880,228171,152539
1655.95,0.173358,215408,144512
1658.88,0.167782,204937,139264
1661.8,0.164397,193395,132449
1664.72,0.155225,179728,125716
1667.63,0.142904,163642,117758
1670.54,0.127547,146312,109077
1673.44,0.112173,128451,99212
1677.31,0.092142,105080,84992
1680.21,0.082667,88906,73496
1683.1,0.076160,75033,62964
1685.99,0.075394,63520,53397
1688.87,0.076566,53714,45032
1691.75,0.082449,45653,37759
1694.62,0.088416,39137,31928
1697.49,0.091524,33776,27358
1701.31,0.100975,28175,22330