Folder: textile_sorting_NIRSCAN_/samples/wool/wool-000811 (part 100)

File: Column 1_050586_20150331_121648.csv
Method:,Column 1,,
Host Date-Time:,31/3/15 @ 12:16:48,,
Header Version:,1,,
System Temp (C):,33.8,,
Detector Temp (C):,34.49,,
Humidity (%):,1.86,,
Lamp PD:,3819,,
Shift Vector Coefficients:,-10.5391,0.0761263,-0.000134223,,
Pixel to Wavelength Coefficients:,1775.68,-0.916766,-0.000235065,,
Serial Number:,5510004,,
Scan Config Name:,Column 1,,
Scan Config Type:,Slew,,
Section 1,,
Start wavelength (nm):,900,,
End wavelength (nm):,1700,,
Pattern Pixel Width (nm):,   7.03,,,,
Exposure (ms):,  0.635,,,,
Digital Resolution:,228,,
Num Repeats:,6,,
PGA Gain:,64,,
Total Measurement Time in sec:,  2.734,,
Wavelength (nm),Absorbance (AU),Reference Signal (unitless),Sample Signal (unitless)
901.51,0.069594,108485,92422
905.376,0.075849,121306,101867
909.237,0.076417,131909,110626
913.095,0.077670,143299,119832
916.948,0.080366,156982,130462
922.079,0.081518,179937,149143
925.923,0.081602,200504,166158
929.762,0.082013,222660,184344
933.597,0.082540,244426,202119
937.427,0.082393,263972,218356
941.254,0.081716,281845,233504
945.076,0.080027,297271,247244
950.165,0.079996,315605,262511
953.978,0.079691,328029,273037
957.786,0.079483,340470,283528
961.59,0.079151,352317,293618
965.389,0.079717,363056,302174
969.185,0.079240,373162,310926
972.976,0.079470,382632,318648
976.763,0.080777,391202,324806
981.806,0.080583,400190,332417
985.583,0.081256,406088,336794
989.355,0.082137,410162,339483
993.124,0.082479,412868,341454
996.888,0.082871,414263,342299
1000.65,0.083439,415476,342852
1004.4,0.084611,415479,341931
1009.41,0.086266,414358,339711
1013.15,0.086595,412923,338278
1016.89,0.086792,411526,336981
1020.63,0.086511,409066,335183
1024.36,0.086577,406777,333257
1028.09,0.086595,404427,331318
1031.82,0.086073,401911,329653
1036.78,0.085934,398410,326886
1040.49,0.085624,396204,325308
1044.2,0.085538,394236,323756
1047.91,0.085338,392042,322103
1051.61,0.085174,389823,320401
1055.31,0.084351,388234,319700
1059,0.084098,387599,319363
1063.92,0.082833,386688,319542
1067.61,0.082919,386598,319404
1071.29,0.082783,387377,320148
1074.96,0.081894,388536,321764
1078.63,0.081261,389855,323327
1082.3,0.080312,391215,325165
1085.96,0.079960,393215,327092
1090.84,0.078692,396270,330597
1094.49,0.078151,398760,333089
1098.14,0.078040,400987,335035
1101.79,0.076900,403477,338002
1105.43,0.076994,406116,340139
1109.06,0.075831,407701,342382
1112.7,0.075890,409859,344147
1117.53,0.076138,412494,346162
1121.15,0.076997,414909,347501
1124.77,0.076377,416559,349381
1128.38,0.077353,418532,350248
1131.99,0.077957,419956,350951
1135.6,0.079885,421946,351052
1139.2,0.080941,423881,351806
1143.99,0.083659,426786,352007
1147.58,0.083560,428617,353598
1151.17,0.085220,431169,354346
1154.75,0.085705,433579,355929
1158.33,0.087687,436264,356502
1161.91,0.089635,439132,357240
1165.48,0.090934,442389,358815
1169.04,0.093681,446101,359544
1173.79,0.097070,451929,361410
1177.34,0.098943,456026,363117
1180.9,0.101391,461306,365257
1184.44,0.103471,467657,368516
1187.99,0.103846,473969,373168
1191.52,0.104040,479856,377634
1195.06,0.103467,487372,384055
1199.76,0.103144,497347,392207
1203.29,0.102039,504311,398712
1206.81,0.102363,511507,404100
1210.33,0.101220,519078,411162
1213.84,0.100726,527163,418041
1217.35,0.100296,534208,424047
1220.85,0.099563,540472,429744
1225.51,0.098977,549929,437854
1229.01,0.098294,556888,444093
1232.5,0.097591,562180,449039
1235.98,0.097324,567975,453947
1239.46,0.096334,574815,460462
1242.94,0.095253,582782,468008
1246.41,0.094727,591476,475565
1251.03,0.094543,604016,485854
1254.5,0.094340,612289,492739
1257.96,0.095163,619125,497297
1261.41,0.095546,624551,501213
1264.86,0.095898,629900,505096
1268.31,0.096720,634345,507698
1271.75,0.098403,638574,509106
1276.33,0.097770,642499,512982
1279.76,0.097258,645905,516310
1283.19,0.097025,648307,518508
1286.61,0.096771,650446,520523
1290.03,0.095937,652132,522876
1293.44,0.095770,653907,524500
1296.85,0.095818,655963,526091
1301.39,0.095390,657349,527723
1304.8,0.095592,657558,527645
1308.19,0.095728,658515,528248
1311.58,0.095855,658804,528325
1314.97,0.096394,659011,527836
1318.36,0.096909,658272,526619
1321.73,0.096981,658022,526331
1326.23,0.098001,657870,524975
1329.6,0.098975,656482,522694
1332.97,0.099660,654926,520634
1336.33,0.100701,653727,518436
1339.69,0.102582,652497,515225
1343.04,0.104416,649913,511022
1346.39,0.106483,647671,506841
1349.73,0.108080,645338,503161
1354.18,0.110902,641175,496678
1357.52,0.113316,638376,491768
1360.85,0.114809,635805,488107
1364.17,0.117295,633413,483495
1367.49,0.119720,631026,478991
1370.81,0.121554,628050,474723
1374.12,0.123576,625034,470249
1378.54,0.127158,620272,462833
1381.84,0.129819,616892,457499
1385.14,0.133665,613613,451055
1388.43,0.137567,611526,445500
1391.72,0.142289,610663,440061
1395.01,0.146838,610634,435455
1398.29,0.151892,611700,431168
1402.66,0.159169,614051,425633
1405.93,0.164326,616268,422127
1409.2,0.169968,617795,417711
1412.46,0.174715,618872,413891
1415.72,0.179243,619795,410209
1418.98,0.182883,620495,407245
1422.23,0.186712,621087,404055
1426.56,0.191006,621375,400265
1429.8,0.193258,621616,398349
1433.04,0.195987,622129,396181
1436.27,0.198248,621526,393742
1439.5,0.200474,621113,391468
1442.72,0.202866,620921,389198
1445.94,0.205298,620270,386619
1450.23,0.208311,618860,383073
1453.44,0.211500,617697,379556
1456.64,0.213519,616264,376919
1459.85,0.215478,614413,374095
1463.04,0.218683,612307,370072
1466.24,0.222660,610032,365336
1469.43,0.224995,607345,361777
1473.67,0.230833,603789,354856
1476.85,0.236213,601175,348970
1480.02,0.241239,597737,342982
1483.19,0.246486,594479,337016
1486.36,0.252434,591232,330616
1489.52,0.256622,587853,325572
1492.68,0.259360,583875,321336
1496.89,0.260945,578062,316978
1500.03,0.261630,574159,314342
1503.18,0.261972,570285,311975
1506.32,0.260928,565444,310071
1509.45,0.259633,560571,308317
1512.58,0.257748,555821,307034
1515.71,0.255661,550344,305473
1519.87,0.253405,543983,303515
1522.99,0.250482,538764,302633
1526.1,0.247970,533692,301523
1529.21,0.245493,527902,299958
1532.32,0.242118,521886,298853
1535.42,0.239879,515888,296945
1538.51,0.236875,509987,295586
1541.6,0.234395,503936,293752
1545.72,0.229564,494694,291590
1548.8,0.226929,488378,289619
1551.88,0.224938,481832,287050
1554.95,0.222543,474989,284538
1558.02,0.220734,467818,281412
1561.08,0.219814,460730,277736
1564.15,0.218826,454170,274405
1568.22,0.217856,444181,268970
1571.27,0.217704,436947,264682
1574.32,0.216913,429598,260705
1577.36,0.214926,422039,257292
1580.4,0.213983,414375,253169
1583.43,0.212798,406354,248947
1586.46,0.210151,398475,245612
1590.49,0.207920,388982,240996
1593.51,0.206221,380708,236794
1596.53,0.204544,372727,232727
1599.54,0.203552,365060,228461
1602.55,0.201074,357543,225037
1605.55,0.199066,349495,220991
1608.55,0.197778,341154,216358
1612.54,0.195314,330877,211034
1615.53,0.193307,322904,206903
1618.51,0.191820,315116,202605
1621.49,0.190888,307217,197951
1624.47,0.189915,299481,193399
1627.44,0.189633,292112,188763
1630.41,0.188222,284245,184277
1634.36,0.186062,274079,178572
1637.32,0.186120,266916,173882
1640.27,0.185183,259612,169489
1643.22,0.184778,251804,164545
1646.16,0.184660,244348,159716
1649.1,0.183533,236703,155121
1652.04,0.180926,228171,150430
1655.95,0.178078,215408,142950
1658.88,0.174599,204937,137095
1661.8,0.169071,193395,131031
1664.72,0.162271,179728,123693
1667.63,0.149328,163642,116029
1670.54,0.135933,146312,106991
1673.44,0.119951,128451,97451
1677.31,0.102029,105080,83079
1680.21,0.090171,88906,72237
1683.1,0.085157,75033,61673
1685.99,0.083372,63520,52425
1688.87,0.085964,53714,44068
1691.75,0.090845,45653,37036
1694.62,0.097654,39137,31256
1697.49,0.104233,33776,26569
1701.31,0.109737,28175,21884

File: Column 1_050586_20150331_121656.csv
Method:,Column 1,,
Host Date-Time:,31/3/15 @ 12:16:56,,
Header Version:,1,,
System Temp (C):,33.77,,
Detector Temp (C):,34.57,,
Humidity (%):,1.86,,
Lamp PD:,3819,,
Shift Vector Coefficients:,-10.5391,0.0761263,-0.000134223,,
Pixel to Wavelength Coefficients:,1775.68,-0.916766,-0.000235065,,
Serial Number:,5510004,,
Scan Config Name:,Column 1,,
Scan Config Type:,Slew,,
Section 1,,
Start wavelength (nm):,900,,
End wavelength (nm):,1700,,
Pattern Pixel Width (nm):,   7.03,,,,
Exposure (ms):,  0.635,,,,
Digital Resolution:,228,,
Num Repeats:,6,,
PGA Gain:,64,,
Total Measurement Time in sec:,  2.715,,
Wavelength (nm),Absorbance (AU),Reference Signal (unitless),Sample Signal (unitless)
901.51,0.070060,108485,92323
905.376,0.075866,121306,101863
909.237,0.078042,131909,110213
913.095,0.079039,143299,119455
916.948,0.079611,156982,130689
922.079,0.080517,179937,149487
925.923,0.082476,200504,165824
929.762,0.083446,222660,183737
933.597,0.083799,244426,201534
937.427,0.082482,263972,218311
941.254,0.082690,281845,232981
945.076,0.080795,297271,246807
950.165,0.079780,315605,262642
953.978,0.079624,328029,273079
957.786,0.079244,340470,283684
961.59,0.079730,352317,293227
965.389,0.079523,363056,302309
969.185,0.080131,373162,310289
972.976,0.080181,382632,318127
976.763,0.080722,391202,324847
981.806,0.080583,400190,332417
985.583,0.081843,406088,336339
989.355,0.082369,410162,339302
993.124,0.082549,412868,341399
996.888,0.083124,414263,342099
1000.65,0.084332,415476,342148
1004.4,0.085118,415479,341532
1009.41,0.085866,414358,340024
1013.15,0.086445,412923,338395
1016.89,0.087419,411526,336495
1020.63,0.086381,409066,335284
1024.36,0.086864,406777,333037
1028.09,0.086805,404427,331158
1031.82,0.086888,401911,329035
1036.78,0.085879,398410,326927
1040.49,0.086180,396204,324892
1044.2,0.085938,394236,323458
1047.91,0.085133,392042,322255
1051.61,0.085348,389823,320272
1055.31,0.085351,388234,318965
1059,0.084233,387599,319264
1063.92,0.084234,386688,318513
1067.61,0.083131,386598,319248
1071.29,0.082944,387377,320029
1074.96,0.082656,388536,321200
1078.63,0.081949,389855,322815
1082.3,0.080832,391215,324776
1085.96,0.079920,393215,327122
1090.84,0.079522,396270,329966
1094.49,0.078860,398760,332546
1098.14,0.078440,400987,334727
1101.79,0.077688,403477,337389
1105.43,0.077708,406116,339580
1109.06,0.077151,407701,341343
1112.7,0.076752,409859,343465
1117.53,0.076013,412494,346262
1121.15,0.076999,414909,347499
1124.77,0.076979,416559,348897
1128.38,0.077360,418532,350242
1131.99,0.078599,419956,350433
1135.6,0.080433,421946,350610
1139.2,0.081541,423881,351320
1143.99,0.083429,426786,352193
1147.58,0.084284,428617,353009
1151.17,0.085598,431169,354038
1154.75,0.086541,433579,355244
1158.33,0.087594,436264,356579
1161.91,0.089321,439132,357498
1165.48,0.091659,442389,358216
1169.04,0.093974,446101,359302
1173.79,0.097205,451929,361298
1177.34,0.099490,456026,362660
1180.9,0.101607,461306,365075
1184.44,0.103680,467657,368339
1187.99,0.103955,473969,373074
1191.52,0.104134,479856,377552
1195.06,0.104261,487372,383354
1199.76,0.103645,497347,391755
1203.29,0.102324,504311,398451
1206.81,0.102314,511507,404145
1210.33,0.101953,519078,410468
1213.84,0.101113,527163,417669
1217.35,0.100203,534208,424138
1220.85,0.099437,540472,429869
1225.51,0.099059,549929,437772
1229.01,0.098983,556888,443389
1232.5,0.098095,562180,448519
1235.98,0.097247,567975,454028
1239.46,0.096215,574815,460589
1242.94,0.095405,582782,467844
1246.41,0.094759,591476,475530
1251.03,0.095031,604016,485308
1254.5,0.094772,612289,492249
1257.96,0.095584,619125,496815
1261.41,0.095836,624551,500878
1264.86,0.096272,629900,504661
1268.31,0.096673,634345,507753
1271.75,0.097415,638574,510265
1276.33,0.098129,642499,512559
1279.76,0.097798,645905,515669
1283.19,0.097070,648307,518454
1286.61,0.096581,650446,520751
1290.03,0.096115,652132,522661
1293.44,0.096142,653907,524052
1296.85,0.095990,655963,525883
1301.39,0.095846,657349,527169
1304.8,0.095374,657558,527910
1308.19,0.095799,658515,528161
1311.58,0.095786,658804,528409
1314.97,0.096505,659011,527701
1318.36,0.096859,658272,526680
1321.73,0.097272,658022,525979
1326.23,0.098296,657870,524619
1329.6,0.099038,656482,522619
1332.97,0.100094,654926,520114
1336.33,0.101004,653727,518075
1339.69,0.102595,652497,515209
1343.04,0.104013,649913,511496
1346.39,0.106332,647671,507017
1349.73,0.108310,645338,502895
1354.18,0.111314,641175,496207
1357.52,0.113179,638376,491924
1360.85,0.115303,635805,487552
1364.17,0.117601,633413,483154
1367.49,0.119581,631026,479144
1370.81,0.121548,628050,474729
1374.12,0.124078,625034,469706
1378.54,0.127116,620272,462878
1381.84,0.130488,616892,456795
1385.14,0.133917,613613,450793
1388.43,0.137796,611526,445265
1391.72,0.142193,610663,440158
1395.01,0.147327,610634,434965
1398.29,0.151833,611700,431227
1402.66,0.159173,614051,425629
1405.93,0.164900,616268,421570
1409.2,0.170133,617795,417553
1412.46,0.174882,618872,413732
1415.72,0.179197,619795,410252
1418.98,0.183369,620495,406789
1422.23,0.187041,621087,403749
1426.56,0.191004,621375,400267
1429.8,0.193503,621616,398125
1433.04,0.196137,622129,396044
1436.27,0.198475,621526,393536
1439.5,0.200379,621113,391554
1442.72,0.202861,620921,389202
1445.94,0.205435,620270,386497
1450.23,0.208480,618860,382924
1453.44,0.210992,617697,380000
1456.64,0.213752,616264,376717
1459.85,0.216343,614413,373351
1463.04,0.219086,612307,369729
1466.24,0.222127,610032,365785
1469.43,0.224987,607345,361783
1473.67,0.231594,603789,354235
1476.85,0.235352,601175,349662
1480.02,0.241388,597737,342864
1483.19,0.246770,594479,336796
1486.36,0.252098,591232,330872
1489.52,0.256238,587853,325860
1492.68,0.259439,583875,321278
1496.89,0.261844,578062,316323
1500.03,0.261948,574159,314112
1503.18,0.262369,570285,311690
1506.32,0.261241,565444,309848
1509.45,0.260380,560571,307787
1512.58,0.258534,555821,306479
1515.71,0.256495,550344,304887
1519.87,0.254244,543983,302929
1522.99,0.251694,538764,301790
1526.1,0.248440,533692,301197
1529.21,0.245604,527902,299881
1532.32,0.243310,521886,298034
1535.42,0.239314,515888,297332
1538.51,0.236937,509987,295544
1541.6,0.234361,503936,293775
1545.72,0.230565,494694,290919
1548.8,0.227525,488378,289222
1551.88,0.225185,481832,286887
1554.95,0.223347,474989,284012
1558.02,0.221252,467818,281077
1561.08,0.220498,460730,277299
1564.15,0.219985,454170,273674
1568.22,0.218595,444181,268513
1571.27,0.217363,436947,264890
1574.32,0.216294,429598,261077
1577.36,0.215583,422039,256903
1580.4,0.213594,414375,253396
1583.43,0.212566,406354,249080
1586.46,0.210723,398475,245289
1590.49,0.208928,388982,240437
1593.51,0.206956,380708,236394
1596.53,0.205572,372727,232177
1599.54,0.202413,365060,229061
1602.55,0.200997,357543,225077
1605.55,0.199877,349495,220579
1608.55,0.196667,341154,216912
1612.54,0.195670,330877,210861
1615.53,0.194124,322904,206514
1618.51,0.193138,315116,201991
1621.49,0.191975,307217,197456
1624.47,0.190306,299481,193225
1627.44,0.189271,292112,188920
1630.41,0.188389,284245,184206
1634.36,0.187634,274079,177927
1637.32,0.185885,266916,173976
1640.27,0.186687,259612,168903
1643.22,0.185451,251804,164290
1646.16,0.184495,244348,159777
1649.1,0.183959,236703,154969
1652.04,0.182233,228171,149978
1655.95,0.177935,215408,142997
1658.88,0.176453,204937,136511
1661.8,0.169326,193395,130954
1664.72,0.162995,179728,123487
1667.63,0.149766,163642,115912
1670.54,0.135114,146312,107193
1673.44,0.120692,128451,97285
1677.31,0.103196,105080,82856
1680.21,0.090869,88906,72121
1683.1,0.084060,75033,61829
1685.99,0.086265,63520,52077
1688.87,0.090661,53714,43594
1691.75,0.098070,45653,36425
1694.62,0.102615,39137,30901
1697.49,0.106100,33776,26455
1701.31,0.116558,28175,21543

File: Column 1_050586_20150331_121708.csv
Method:,Column 1,,
Host Date-Time:,31/3/15 @ 12:17:8,,
Header Version:,1,,
System Temp (C):,33.81,,
Detector Temp (C):,34.53,,
Humidity (%):,1.86,,
Lamp PD:,3818,,
Shift Vector Coefficients:,-10.5391,0.0761263,-0.000134223,,
Pixel to Wavelength Coefficients:,1775.68,-0.916766,-0.000235065,,
Serial Number:,5510004,,
Scan Config Name:,Column 1,,
Scan Config Type:,Slew,,
Section 1,,
Start wavelength (nm):,900,,
End wavelength (nm):,1700,,
Pattern Pixel Width (nm):,   7.03,,,,
Exposure (ms):,  0.635,,,,
Digital Resolution:,228,,
Num Repeats:,6,,
PGA Gain:,64,,
Total Measurement Time in sec:,  2.676,,
Wavelength (nm),Absorbance (AU),Reference Signal (unitless),Sample Signal (unitless)
901.51,0.070766,108485,92173
905.376,0.076160,121306,101794
909.237,0.079672,131909,109800
913.095,0.080842,143299,118960
916.948,0.080409,156982,130449
922.079,0.082051,179937,148960
925.923,0.083375,200504,165481
929.762,0.084257,222660,183394
933.597,0.083864,244426,201504
937.427,0.082848,263972,218127
941.254,0.082955,281845,232839
945.076,0.081189,297271,246583
950.165,0.079646,315605,262723
953.978,0.079136,328029,273386
957.786,0.079267,340470,283669
961.59,0.079805,352317,293176
965.389,0.079814,363056,302106
969.185,0.080072,373162,310331
972.976,0.079846,382632,318372
976.763,0.080305,391202,325159
981.806,0.081075,400190,332041
985.583,0.081416,406088,336670
989.355,0.082446,410162,339242
993.124,0.082610,412868,341351
996.888,0.083510,414263,341795
1000.65,0.083876,415476,342507
1004.4,0.084692,415479,341867
1009.41,0.086090,414358,339849
1013.15,0.086391,412923,338437
1016.89,0.086738,411526,337023
1020.63,0.087291,409066,334582
1024.36,0.086111,406777,333615
1028.09,0.086507,404427,331385
1031.82,0.086475,401911,329348
1036.78,0.085987,398410,326846
1040.49,0.085967,396204,325051
1044.2,0.086258,394236,323220
1047.91,0.086049,392042,321576
1051.61,0.085339,389823,320279
1055.31,0.085406,388234,318924
1059,0.084361,387599,319170
1063.92,0.083204,386688,319269
1067.61,0.083235,386598,319172
1071.29,0.083272,387377,319788
1074.96,0.082349,388536,321427
1078.63,0.081816,389855,322914
1082.3,0.080997,391215,324652
1085.96,0.080337,393215,326808
1090.84,0.079347,396270,330099
1094.49,0.079313,398760,332199
1098.14,0.078447,400987,334721
1101.79,0.078030,403477,337123
1105.43,0.077241,406116,339945
1109.06,0.076887,407701,341550
1112.7,0.076533,409859,343638
1117.53,0.076232,412494,346087
1121.15,0.076999,414909,347499
1124.77,0.077054,416559,348837
1128.38,0.077759,418532,349921
1131.99,0.078692,419956,350358
1135.6,0.079718,421946,351187
1139.2,0.081487,423881,351364
1143.99,0.083076,426786,352480
1147.58,0.084445,428617,352878
1151.17,0.085623,431169,354017
1154.75,0.086495,433579,355282
1158.33,0.087903,436264,356325
1161.91,0.089528,439132,357328
1165.48,0.091989,442389,357944
1169.04,0.094094,446101,359202
1173.79,0.097432,451929,361109
1177.34,0.099334,456026,362790
1180.9,0.101085,461306,365514
1184.44,0.103107,467657,368825
1187.99,0.104542,473969,372570
1191.52,0.104002,479856,377667
1195.06,0.104156,487372,383446
1199.76,0.103602,497347,391794
1203.29,0.102651,504311,398151
1206.81,0.102030,511507,404410
1210.33,0.101687,519078,410720
1213.84,0.100850,527163,417922
1217.35,0.100415,534208,423931
1220.85,0.099589,540472,429719
1225.51,0.098735,549929,438098
1229.01,0.098805,556888,443571
1232.5,0.097764,562180,448861
1235.98,0.097653,567975,453603
1239.46,0.096445,574815,460345
1242.94,0.095601,582782,467633
1246.41,0.094551,591476,475758
1251.03,0.094926,604016,485425
1254.5,0.094967,612289,492028
1257.96,0.095272,619125,497172
1261.41,0.095858,624551,500852
1264.86,0.096299,629900,504630
1268.31,0.097026,634345,507340
1271.75,0.097931,638574,509660
1276.33,0.098216,642499,512456
1279.76,0.097574,645905,515934
1283.19,0.096869,648307,518694
1286.61,0.097147,650446,520073
1290.03,0.096410,652132,522306
1293.44,0.096001,653907,524222
1296.85,0.096068,655963,525789
1301.39,0.095424,657349,527682
1304.8,0.095677,657558,527542
1308.19,0.095937,658515,527994
1311.58,0.095553,658804,528692
1314.97,0.096483,659011,527727
1318.36,0.096973,658272,526541
1321.73,0.097382,658022,525846
1326.23,0.098260,657870,524663
1329.6,0.098700,656482,523025
1332.97,0.099938,654926,520300
1336.33,0.101218,653727,517820
1339.69,0.102459,652497,515370
1343.04,0.104094,649913,511401
1346.39,0.106121,647671,507263
1349.73,0.108136,645338,503097
1354.18,0.111332,641175,496186
1357.52,0.113474,638376,491589
1360.85,0.115185,635805,487684
1364.17,0.116992,633413,483832
1367.49,0.119138,631026,479633
1370.81,0.122099,628050,474128
1374.12,0.124225,625034,469547
1378.54,0.127318,620272,462662
1381.84,0.130564,616892,456715
1385.14,0.134192,613613,450508
1388.43,0.137901,611526,445158
1391.72,0.142092,610663,440260
1395.01,0.146620,610634,435673
1398.29,0.152204,611700,430858
1402.66,0.158620,614051,426172
1405.93,0.164640,616268,421822
1409.2,0.169767,617795,417905
1412.46,0.175022,618872,413598
1415.72,0.179079,619795,410364
1418.98,0.182785,620495,407336
1422.23,0.186259,621087,404477
1426.56,0.190657,621375,400587
1429.8,0.193417,621616,398204
1433.04,0.196468,622129,395742
1436.27,0.198077,621526,393897
1439.5,0.200646,621113,391313
1442.72,0.202789,620921,389267
1445.94,0.204694,620270,387157
1450.23,0.208332,618860,383054
1453.44,0.210610,617697,380334
1456.64,0.213616,616264,376835
1459.85,0.216206,614413,373469
1463.04,0.218642,612307,370107
1466.24,0.221945,610032,365938
1469.43,0.225397,607345,361442
1473.67,0.230631,603789,355021
1476.85,0.236559,601175,348692
1480.02,0.241416,597737,342842
1483.19,0.247019,594479,336603
1486.36,0.251849,591232,331062
1489.52,0.256095,587853,325967
1492.68,0.259604,583875,321156
1496.89,0.261252,578062,316754
1500.03,0.262476,574159,313730
1503.18,0.262439,570285,311640
1506.32,0.260913,565444,310082
1509.45,0.260122,560571,307970
1512.58,0.258259,555821,306673
1515.71,0.256219,550344,305081
1519.87,0.253131,543983,303707
1522.99,0.250564,538764,302576
1526.1,0.248410,533692,301218
1529.21,0.244944,527902,300337
1532.32,0.242608,521886,298516
1535.42,0.239523,515888,297189
1538.51,0.237216,509987,295354
1541.6,0.233358,503936,294454
1545.72,0.230251,494694,291129
1548.8,0.227758,488378,289067
1551.88,0.224847,481832,287110
1554.95,0.223053,474989,284204
1558.02,0.221476,467818,280932
1561.08,0.219661,460730,277834
1564.15,0.219376,454170,274058
1568.22,0.218034,444181,268860
1571.27,0.217898,436947,264564
1574.32,0.216359,429598,261038
1577.36,0.215173,422039,257146
1580.4,0.214155,414375,253069
1583.43,0.212393,406354,249179
1586.46,0.210951,398475,245160
1590.49,0.208827,388982,240493
1593.51,0.207123,380708,236303
1596.53,0.204822,372727,232578
1599.54,0.203853,365060,228303
1602.55,0.202116,357543,224498
1605.55,0.199940,349495,220547
1608.55,0.197683,341154,216405
1612.54,0.195016,330877,211179
1615.53,0.193498,322904,206812
1618.51,0.192234,315116,202412
1621.49,0.191639,307217,197609
1624.47,0.190407,299481,193180
1627.44,0.190134,292112,188545
1630.41,0.189057,284245,183923
1634.36,0.188403,274079,177612
1637.32,0.185611,266916,174086
1640.27,0.185706,259612,169285
1643.22,0.184907,251804,164496
1646.16,0.183493,244348,160146
1649.1,0.183696,236703,155063
1652.04,0.181848,228171,150111
1655.95,0.179087,215408,142618
1658.88,0.175728,204937,136739
1661.8,0.169025,193395,131045
1664.72,0.162921,179728,123508
1667.63,0.150389,163642,115746
1670.54,0.136249,146312,106913
1673.44,0.121831,128451,97030
1677.31,0.102426,105080,83003
1680.21,0.091231,88906,72061
1683.1,0.085559,75033,61616
1685.99,0.086824,63520,52010
1688.87,0.089636,53714,43697
1691.75,0.100197,45653,36247
1694.62,0.099394,39137,31131
1697.49,0.104969,33776,26524
1701.31,0.118984,28175,21423