Folder: textile_sorting_NIRSCAN_/samples/wool/wool-000811 (part 118)

File: Column 1_050597_20150331_122212.csv
Method:,Column 1,,
Host Date-Time:,31/3/15 @ 12:22:12,,
Header Version:,1,,
System Temp (C):,33.94,,
Detector Temp (C):,34.74,,
Humidity (%):,1.76,,
Lamp PD:,3818,,
Shift Vector Coefficients:,-10.5391,0.0761263,-0.000134223,,
Pixel to Wavelength Coefficients:,1775.68,-0.916766,-0.000235065,,
Serial Number:,5510004,,
Scan Config Name:,Column 1,,
Scan Config Type:,Slew,,
Section 1,,
Start wavelength (nm):,900,,
End wavelength (nm):,1700,,
Pattern Pixel Width (nm):,   7.03,,,,
Exposure (ms):,  0.635,,,,
Digital Resolution:,228,,
Num Repeats:,6,,
PGA Gain:,64,,
Total Measurement Time in sec:,  2.689,,
Wavelength (nm),Absorbance (AU),Reference Signal (unitless),Sample Signal (unitless)
901.51,0.069167,108485,92513
905.376,0.075674,121306,101908
909.237,0.077010,131909,110475
913.095,0.078654,143299,119561
916.948,0.080399,156982,130452
922.079,0.080898,179937,149356
925.923,0.082387,200504,165858
929.762,0.084072,222660,183472
933.597,0.082572,244426,202104
937.427,0.081802,263972,218653
941.254,0.080757,281845,234020
945.076,0.080118,297271,247192
950.165,0.079264,315605,262954
953.978,0.077935,328029,274143
957.786,0.077975,340470,284514
961.59,0.078523,352317,294043
965.389,0.078187,363056,303240
969.185,0.078566,373162,311409
972.976,0.079154,382632,318880
976.763,0.079259,391202,325943
981.806,0.079950,400190,332902
985.583,0.080757,406088,337181
989.355,0.081145,410162,340260
993.124,0.081176,412868,342480
996.888,0.081804,414263,343141
1000.65,0.082363,415476,343703
1004.4,0.084058,415479,342366
1009.41,0.084773,414358,340881
1013.15,0.085234,412923,339340
1016.89,0.086324,411526,337344
1020.63,0.085679,409066,335826
1024.36,0.086356,406777,333427
1028.09,0.085561,404427,332108
1031.82,0.085509,401911,330081
1036.78,0.085367,398410,327313
1040.49,0.084552,396204,326112
1044.2,0.085005,394236,324154
1047.91,0.085152,392042,322241
1051.61,0.083719,389823,321476
1055.31,0.083953,388234,319993
1059,0.083829,387599,319561
1063.92,0.082992,386688,319425
1067.61,0.081521,386598,320434
1071.29,0.081545,387377,321062
1074.96,0.081081,388536,322367
1078.63,0.080785,389855,323682
1082.3,0.079406,391215,325844
1085.96,0.078871,393215,327913
1090.84,0.078128,396270,331027
1094.49,0.077329,398760,333720
1098.14,0.076993,400987,335844
1101.79,0.075654,403477,338973
1105.43,0.076657,406116,340403
1109.06,0.075249,407701,342841
1112.7,0.075077,409859,344792
1117.53,0.074714,412494,347299
1121.15,0.075807,414909,348454
1124.77,0.075935,416559,349737
1128.38,0.075890,418532,351430
1131.99,0.077604,419956,351237
1135.6,0.078736,421946,351982
1139.2,0.080132,423881,352462
1143.99,0.082193,426786,353197
1147.58,0.083023,428617,354035
1151.17,0.084168,431169,355205
1154.75,0.085096,433579,356428
1158.33,0.086442,436264,357526
1161.91,0.087664,439132,358865
1165.48,0.089970,442389,359612
1169.04,0.092174,446101,360794
1173.79,0.095750,451929,362510
1177.34,0.097439,456026,364377
1180.9,0.099537,461306,366819
1184.44,0.101415,467657,370265
1187.99,0.102596,473969,374243
1191.52,0.102356,479856,379101
1195.06,0.102361,487372,385034
1199.76,0.101610,497347,393595
1203.29,0.101018,504311,399651
1206.81,0.100367,511507,405961
1210.33,0.100053,519078,412268
1213.84,0.099133,527163,419577
1217.35,0.098477,534208,425827
1220.85,0.098189,540472,431106
1225.51,0.097674,549929,439170
1229.01,0.096655,556888,445772
1232.5,0.095696,562180,451003
1235.98,0.095342,567975,456023
1239.46,0.094708,574815,462189
1242.94,0.093684,582782,469702
1246.41,0.093289,591476,477143
1251.03,0.093024,604016,487556
1254.5,0.093215,612289,494017
1257.96,0.094150,619125,498458
1261.41,0.094212,624551,502754
1264.86,0.094886,629900,506274
1268.31,0.095108,634345,509586
1271.75,0.095650,638574,512344
1276.33,0.096010,642499,515065
1279.76,0.095848,645905,517989
1283.19,0.095261,648307,520619
1286.61,0.094834,650446,522850
1290.03,0.094706,652132,524360
1293.44,0.094364,653907,526201
1296.85,0.093818,655963,528520
1301.39,0.093703,657349,529777
1304.8,0.093853,657558,529762
1308.19,0.094118,658515,530210
1311.58,0.093812,658804,530816
1314.97,0.094788,659011,529791
1318.36,0.095187,658272,528711
1321.73,0.095315,658022,528354
1326.23,0.096160,657870,527206
1329.6,0.097102,656482,524954
1332.97,0.097705,654926,522983
1336.33,0.098615,653727,520932
1339.69,0.100318,652497,517918
1343.04,0.102186,649913,513652
1346.39,0.104082,647671,509651
1349.73,0.105969,645338,505613
1354.18,0.108732,641175,499166
1357.52,0.110751,638376,494681
1360.85,0.112611,635805,490584
1364.17,0.114410,633413,486718
1367.49,0.116855,631026,482161
1370.81,0.119376,628050,477110
1374.12,0.121274,625034,472748
1378.54,0.124472,620272,465704
1381.84,0.127042,616892,460434
1385.14,0.130583,613613,454267
1388.43,0.134277,611526,448888
1391.72,0.138444,610663,443974
1395.01,0.143287,610634,439030
1398.29,0.147524,611700,435526
1402.66,0.153761,614051,430966
1405.93,0.159026,616268,427311
1409.2,0.164244,617795,423253
1412.46,0.168626,618872,419735
1415.72,0.172533,619795,416596
1418.98,0.176511,620495,413264
1422.23,0.179891,621087,410451
1426.56,0.183718,621375,407039
1429.8,0.185895,621616,405161
1433.04,0.188970,622129,402634
1436.27,0.190909,621526,400452
1439.5,0.193328,621113,397963
1442.72,0.195303,620921,396035
1445.94,0.197690,620270,393451
1450.23,0.201321,618860,389288
1453.44,0.204239,617697,385955
1456.64,0.207090,616264,382540
1459.85,0.209694,614413,379111
1463.04,0.212273,612307,375575
1466.24,0.215233,610032,371638
1469.43,0.219088,607345,366731
1473.67,0.225066,603789,359600
1476.85,0.230733,601175,353401
1480.02,0.236383,597737,346838
1483.19,0.242406,594479,340197
1486.36,0.248464,591232,333652
1489.52,0.252569,587853,328624
1492.68,0.255827,583875,323961
1496.89,0.257966,578062,319160
1500.03,0.257963,574159,317007
1503.18,0.258594,570285,314411
1506.32,0.257356,565444,312632
1509.45,0.255886,560571,310989
1512.58,0.254776,555821,309143
1515.71,0.252285,550344,307857
1519.87,0.249114,543983,306529
1522.99,0.247110,538764,304992
1526.1,0.244303,533692,304080
1529.21,0.241138,527902,302981
1532.32,0.238577,521886,301300
1535.42,0.235985,515888,299620
1538.51,0.233092,509987,298172
1541.6,0.230352,503936,296499
1545.72,0.225977,494694,294008
1548.8,0.222338,488378,292697
1551.88,0.220905,481832,289728
1554.95,0.218994,474989,286873
1558.02,0.216980,467818,283855
1561.08,0.216250,460730,280025
1564.15,0.215379,454170,276592
1568.22,0.215126,444181,270666
1571.27,0.214538,436947,266619
1574.32,0.213308,429598,262878
1577.36,0.212004,422039,259029
1580.4,0.210025,414375,255487
1583.43,0.209236,406354,250997
1586.46,0.207442,398475,247149
1590.49,0.205933,388982,242101
1593.51,0.204163,380708,237919
1596.53,0.201355,372727,234442
1599.54,0.199895,365060,230393
1602.55,0.197873,357543,226702
1605.55,0.196285,349495,222411
1608.55,0.193183,341154,218659
1612.54,0.191670,330877,212812
1615.53,0.190199,322904,208389
1618.51,0.190126,315116,203397
1621.49,0.188697,307217,198952
1624.47,0.187456,299481,194497
1627.44,0.186156,292112,190280
1630.41,0.185731,284245,185337
1634.36,0.183867,274079,179477
1637.32,0.182194,266916,175461
1640.27,0.183118,259612,170297
1643.22,0.182498,251804,165411
1646.16,0.180401,244348,161290
1649.1,0.180400,236703,156244
1652.04,0.179295,228171,150996
1655.95,0.176676,215408,143412
1658.88,0.171795,204937,137983
1661.8,0.166411,193395,131836
1664.72,0.158603,179728,124742
1667.63,0.146199,163642,116868
1670.54,0.131912,146312,107986
1673.44,0.115394,128451,98479
1677.31,0.096838,105080,84078
1680.21,0.085959,88906,72941
1683.1,0.080158,75033,62387
1685.99,0.082594,63520,52519
1688.87,0.084754,53714,44191
1691.75,0.087190,45653,37349
1694.62,0.094484,39137,31485
1697.49,0.095992,33776,27078
1701.31,0.104216,28175,22164

File: Column 1_050597_20150331_122218.csv
Method:,Column 1,,
Host Date-Time:,31/3/15 @ 12:22:18,,
Header Version:,1,,
System Temp (C):,33.95,,
Detector Temp (C):,34.72,,
Humidity (%):,1.76,,
Lamp PD:,3818,,
Shift Vector Coefficients:,-10.5391,0.0761263,-0.000134223,,
Pixel to Wavelength Coefficients:,1775.68,-0.916766,-0.000235065,,
Serial Number:,5510004,,
Scan Config Name:,Column 1,,
Scan Config Type:,Slew,,
Section 1,,
Start wavelength (nm):,900,,
End wavelength (nm):,1700,,
Pattern Pixel Width (nm):,   7.03,,,,
Exposure (ms):,  0.635,,,,
Digital Resolution:,228,,
Num Repeats:,6,,
PGA Gain:,64,,
Total Measurement Time in sec:,  2.675,,
Wavelength (nm),Absorbance (AU),Reference Signal (unitless),Sample Signal (unitless)
901.51,0.069561,108485,92429
905.376,0.075005,121306,102065
909.237,0.076099,131909,110707
913.095,0.077359,143299,119918
916.948,0.080189,156982,130515
922.079,0.081387,179937,149188
925.923,0.081516,200504,166191
929.762,0.082437,222660,184164
933.597,0.083465,244426,201689
937.427,0.081941,263972,218583
941.254,0.080752,281845,234023
945.076,0.079997,297271,247261
950.165,0.078969,315605,263133
953.978,0.078200,328029,273976
957.786,0.078059,340470,284459
961.59,0.078738,352317,293897
965.389,0.078477,363056,303038
969.185,0.078421,373162,311513
972.976,0.078275,382632,319526
976.763,0.079265,391202,325939
981.806,0.079930,400190,332917
985.583,0.080572,406088,337325
989.355,0.081314,410162,340127
993.124,0.081061,412868,342571
996.888,0.081987,414263,342996
1000.65,0.082627,415476,343494
1004.4,0.083683,415479,342662
1009.41,0.085104,414358,340621
1013.15,0.085262,412923,339318
1016.89,0.085940,411526,337643
1020.63,0.085289,409066,336128
1024.36,0.086518,406777,333302
1028.09,0.085870,404427,331872
1031.82,0.085211,401911,330308
1036.78,0.085244,398410,327406
1040.49,0.084868,396204,325875
1044.2,0.084848,394236,324271
1047.91,0.084555,392042,322684
1051.61,0.084132,389823,321170
1055.31,0.083438,388234,320373
1059,0.083625,387599,319711
1063.92,0.082693,386688,319645
1067.61,0.082076,386598,320025
1071.29,0.081507,387377,321090
1074.96,0.080721,388536,322634
1078.63,0.079751,389855,324453
1082.3,0.079750,391215,325586
1085.96,0.078503,393215,328191
1090.84,0.078141,396270,331017
1094.49,0.077290,398760,333750
1098.14,0.076546,400987,336190
1101.79,0.075919,403477,338766
1105.43,0.075884,406116,341009
1109.06,0.074720,407701,343259
1112.7,0.074841,409859,344980
1117.53,0.074628,412494,347368
1121.15,0.075731,414909,348515
1124.77,0.075545,416559,350051
1128.38,0.076115,418532,351248
1131.99,0.077187,419956,351574
1135.6,0.078598,421946,352094
1139.2,0.079802,423881,352730
1143.99,0.082840,426786,352671
1147.58,0.082429,428617,354520
1151.17,0.083950,431169,355384
1154.75,0.085025,433579,356487
1158.33,0.085853,436264,358011
1161.91,0.088079,439132,358522
1165.48,0.089345,442389,360130
1169.04,0.092322,446101,360671
1173.79,0.094961,451929,363169
1177.34,0.097552,456026,364282
1180.9,0.099917,461306,366498
1184.44,0.101266,467657,370392
1187.99,0.102191,473969,374592
1191.52,0.101977,479856,379432
1195.06,0.102638,487372,384789
1199.76,0.101650,497347,393559
1203.29,0.101415,504311,399285
1206.81,0.100472,511507,405863
1210.33,0.099836,519078,412474
1213.84,0.099417,527163,419303
1217.35,0.098949,534208,425365
1220.85,0.098279,540472,431017
1225.51,0.096984,549929,439868
1229.01,0.096865,556888,445557
1232.5,0.096269,562180,450408
1235.98,0.095792,567975,455551
1239.46,0.094529,574815,462380
1242.94,0.093436,582782,469970
1246.41,0.093220,591476,477218
1251.03,0.092914,604016,487679
1254.5,0.093128,612289,494116
1257.96,0.093692,619125,498984
1261.41,0.093990,624551,503011
1264.86,0.094823,629900,506347
1268.31,0.095160,634345,509525
1271.75,0.095974,638574,511962
1276.33,0.095919,642499,515174
1279.76,0.096051,645905,517747
1283.19,0.095116,648307,520792
1286.61,0.095129,650446,522495
1290.03,0.094901,652132,524124
1293.44,0.094161,653907,526447
1296.85,0.093438,655963,528982
1301.39,0.093458,657349,530076
1304.8,0.093675,657558,529980
1308.19,0.093882,658515,530498
1311.58,0.094088,658804,530479
1314.97,0.094598,659011,530023
1318.36,0.095248,658272,528637
1321.73,0.095162,658022,528541
1326.23,0.096091,657870,527289
1329.6,0.096920,656482,525173
1332.97,0.097569,654926,523146
1336.33,0.098751,653727,520769
1339.69,0.100380,652497,517843
1343.04,0.101746,649913,514173
1346.39,0.103604,647671,510212
1349.73,0.105711,645338,505913
1354.18,0.108632,641175,499280
1357.52,0.110483,638376,494987
1360.85,0.112921,635805,490234
1364.17,0.114516,633413,486599
1367.49,0.116508,631026,482547
1370.81,0.119249,628050,477249
1374.12,0.121338,625034,472678
1378.54,0.124150,620272,466050
1381.84,0.126786,616892,460705
1385.14,0.130500,613613,454354
1388.43,0.134234,611526,448932
1391.72,0.138377,610663,444043
1395.01,0.142814,610634,439508
1398.29,0.146999,611700,436053
1402.66,0.153985,614051,430744
1405.93,0.158873,616268,427461
1409.2,0.163988,617795,423503
1412.46,0.168329,618872,420022
1415.72,0.172449,619795,416677
1418.98,0.176273,620495,413490
1422.23,0.179288,621087,411021
1426.56,0.183436,621375,407303
1429.8,0.186628,621616,404477
1433.04,0.188588,622129,402988
1436.27,0.190889,621526,400470
1439.5,0.193305,621113,397984
1442.72,0.195237,620921,396095
1445.94,0.197745,620270,393401
1450.23,0.200897,618860,389669
1453.44,0.204097,617697,386081
1456.64,0.206230,616264,383298
1459.85,0.209363,614413,379400
1463.04,0.212321,612307,375533
1466.24,0.215258,610032,371616
1469.43,0.218857,607345,366926
1473.67,0.225155,603789,359526
1476.85,0.230212,601175,353825
1480.02,0.236102,597737,347063
1483.19,0.241930,594479,340570
1486.36,0.247611,591232,334308
1489.52,0.252620,587853,328586
1492.68,0.255052,583875,324540
1496.89,0.257756,578062,319314
1500.03,0.258141,574159,316877
1503.18,0.258848,570285,314227
1506.32,0.257759,565444,312342
1509.45,0.256273,560571,310712
1512.58,0.254503,555821,309337
1515.71,0.252456,550344,307736
1519.87,0.249026,543983,306591
1522.99,0.246512,538764,305412
1526.1,0.243596,533692,304575
1529.21,0.241920,527902,302436
1532.32,0.238393,521886,301427
1535.42,0.235756,515888,299778
1538.51,0.233407,509987,297956
1541.6,0.230238,503936,296577
1545.72,0.225898,494694,294062
1548.8,0.223586,488378,291857
1551.88,0.220486,481832,290008
1554.95,0.219591,474989,286479
1558.02,0.217164,467818,283735
1561.08,0.215555,460730,280473
1564.15,0.214292,454170,277285
1568.22,0.215406,444181,270492
1571.27,0.214083,436947,266898
1574.32,0.213764,429598,262602
1577.36,0.211190,422039,259515
1580.4,0.209894,414375,255564
1583.43,0.208401,406354,251480
1586.46,0.207583,398475,247069
1590.49,0.205549,388982,242315
1593.51,0.203889,380708,238069
1596.53,0.201810,372727,234197
1599.54,0.200034,365060,230319
1602.55,0.197704,357543,226790
1605.55,0.195890,349495,222613
1608.55,0.193847,341154,218325
1612.54,0.191428,330877,212931
1615.53,0.189824,322904,208569
1618.51,0.189614,315116,203637
1621.49,0.188808,307217,198901
1624.47,0.187166,299481,194627
1627.44,0.185518,292112,190560
1630.41,0.184460,284245,185880
1634.36,0.184143,274079,179363
1637.32,0.182858,266916,175193
1640.27,0.182679,259612,170469
1643.22,0.181926,251804,165629
1646.16,0.180954,244348,161085
1649.1,0.180428,236703,156234
1652.04,0.177802,228171,151516
1655.95,0.174586,215408,144104
1658.88,0.171181,204937,138178
1661.8,0.166072,193395,131939
1664.72,0.158659,179728,124726
1667.63,0.145895,163642,116950
1670.54,0.130892,146312,108240
1673.44,0.117210,128451,98068
1677.31,0.095492,105080,84339
1680.21,0.085014,88906,73100
1683.1,0.081581,75033,62183
1685.99,0.079127,63520,52940
1688.87,0.083096,53714,44360
1691.75,0.087260,45653,37343
1694.62,0.090953,39137,31742
1697.49,0.094455,33776,27174
1701.31,0.111069,28175,21817

File: Column 1_050597_20150331_122221.csv
Method:,Column 1,,
Host Date-Time:,31/3/15 @ 12:22:21,,
Header Version:,1,,
System Temp (C):,33.93,,
Detector Temp (C):,34.72,,
Humidity (%):,1.76,,
Lamp PD:,3818,,
Shift Vector Coefficients:,-10.5391,0.0761263,-0.000134223,,
Pixel to Wavelength Coefficients:,1775.68,-0.916766,-0.000235065,,
Serial Number:,5510004,,
Scan Config Name:,Column 1,,
Scan Config Type:,Slew,,
Section 1,,
Start wavelength (nm):,900,,
End wavelength (nm):,1700,,
Pattern Pixel Width (nm):,   7.03,,,,
Exposure (ms):,  0.635,,,,
Digital Resolution:,228,,
Num Repeats:,6,,
PGA Gain:,64,,
Total Measurement Time in sec:,  2.741,,
Wavelength (nm),Absorbance (AU),Reference Signal (unitless),Sample Signal (unitless)
901.51,0.070041,108485,92327
905.376,0.076079,121306,101813
909.237,0.076268,131909,110664
913.095,0.077979,143299,119747
916.948,0.079411,156982,130749
922.079,0.080880,179937,149362
925.923,0.081732,200504,166108
929.762,0.082544,222660,184119
933.597,0.083104,244426,201857
937.427,0.081217,263972,218948
941.254,0.080685,281845,234059
945.076,0.079455,297271,247570
950.165,0.079132,315605,263034
953.978,0.078349,328029,273882
957.786,0.078690,340470,284046
961.59,0.078170,352317,294282
965.389,0.078865,363056,302767
969.185,0.079653,373162,310631
972.976,0.079061,382632,318948
976.763,0.079909,391202,325456
981.806,0.079810,400190,333009
985.583,0.080216,406088,337601
989.355,0.081100,410162,340295
993.124,0.081194,412868,342466
996.888,0.081806,414263,343139
1000.65,0.082930,415476,343254
1004.4,0.084093,415479,342339
1009.41,0.084998,414358,340704
1013.15,0.085621,412923,339038
1016.89,0.085985,411526,337608
1020.63,0.085817,409066,335719
1024.36,0.086021,406777,333684
1028.09,0.085410,404427,332223
1031.82,0.086050,401911,329670
1036.78,0.085953,398410,326872
1040.49,0.084874,396204,325870
1044.2,0.084970,394236,324180
1047.91,0.084513,392042,322715
1051.61,0.084280,389823,321061
1055.31,0.083610,388234,320246
1059,0.083485,387599,319814
1063.92,0.082965,386688,319445
1067.61,0.082009,386598,320074
1071.29,0.081713,387377,320938
1074.96,0.081567,388536,322006
1078.63,0.080262,389855,324072
1082.3,0.079539,391215,325744
1085.96,0.079219,393215,327651
1090.84,0.077759,396270,331308
1094.49,0.077405,398760,333662
1098.14,0.076913,400987,335906
1101.79,0.076460,403477,338344
1105.43,0.075655,406116,341189
1109.06,0.075617,407701,342551
1112.7,0.075264,409859,344644
1117.53,0.074292,412494,347637
1121.15,0.075215,414909,348930
1124.77,0.075442,416559,350134
1128.38,0.076938,418532,350583
1131.99,0.077928,419956,350975
1135.6,0.079031,421946,351743
1139.2,0.079784,423881,352744
1143.99,0.081985,426786,353366
1147.58,0.083070,428617,353997
1151.17,0.084002,431169,355341
1154.75,0.084695,433579,356758
1158.33,0.086160,436264,357758
1161.91,0.088057,439132,358540
1165.48,0.089861,442389,359702
1169.04,0.092364,446101,360636
1173.79,0.095731,451929,362526
1177.34,0.097790,456026,364082
1180.9,0.099466,461306,366879
1184.44,0.101823,467657,369917
1187.99,0.102269,473969,374525
1191.52,0.102460,479856,379010
1195.06,0.102711,487372,384724
1199.76,0.101599,497347,393605
1203.29,0.101612,504311,399104
1206.81,0.100480,511507,405856
1210.33,0.099697,519078,412606
1213.84,0.099670,527163,419059
1217.35,0.098622,534208,425685
1220.85,0.098276,540472,431020
1225.51,0.097436,549929,439411
1229.01,0.097024,556888,445393
1232.5,0.095878,562180,450814
1235.98,0.095753,567975,455592
1239.46,0.094807,574815,462084
1242.94,0.093732,582782,469650
1246.41,0.093117,591476,477331
1251.03,0.092752,604016,487861
1254.5,0.093287,612289,493935
1257.96,0.093487,619125,499219
1261.41,0.093822,624551,503206
1264.86,0.094859,629900,506305
1268.31,0.095185,634345,509496
1271.75,0.095814,638574,512150
1276.33,0.095838,642499,515270
1279.76,0.095732,645905,518127
1283.19,0.095026,648307,520901
1286.61,0.095228,650446,522376
1290.03,0.094612,652132,524474
1293.44,0.094088,653907,526536
1296.85,0.093804,655963,528537
1301.39,0.094051,657349,529353
1304.8,0.093566,657558,530113
1308.19,0.093805,658515,530592
1311.58,0.094264,658804,530264
1314.97,0.094214,659011,530492
1318.36,0.095052,658272,528875
1321.73,0.094992,658022,528747
1326.23,0.096297,657870,527040
1329.6,0.097011,656482,525064
1332.97,0.097433,654926,523310
1336.33,0.098826,653727,520680
1339.69,0.100540,652497,517653
1343.04,0.102115,649913,513736
1346.39,0.103686,647671,510116
1349.73,0.105943,645338,505643
1354.18,0.108647,641175,499263
1357.52,0.111136,638376,494243
1360.85,0.112912,635805,490244
1364.17,0.114540,633413,486572
1367.49,0.116563,631026,482486
1370.81,0.119008,628050,477514
1374.12,0.120997,625034,473050
1378.54,0.124275,620272,465916
1381.84,0.127173,616892,460295
1385.14,0.130622,613613,454227
1388.43,0.134082,611526,449090
1391.72,0.138482,610663,443935
1395.01,0.142171,610634,440159
1398.29,0.147659,611700,435391
1402.66,0.153840,614051,430888
1405.93,0.159056,616268,427281
1409.2,0.163501,617795,423978
1412.46,0.168721,618872,419643
1415.72,0.172686,619795,416449
1418.98,0.176191,620495,413568
1422.23,0.179838,621087,410501
1426.56,0.183901,621375,406867
1429.8,0.185742,621616,405303
1433.04,0.189130,622129,402486
1436.27,0.190849,621526,400507
1439.5,0.192394,621113,398820
1442.72,0.195845,620921,395541
1445.94,0.197574,620270,393556
1450.23,0.200988,618860,389587
1453.44,0.203596,617697,386527
1456.64,0.206168,616264,383353
1459.85,0.209372,614413,379392
1463.04,0.212395,612307,375469
1466.24,0.215572,610032,371348
1469.43,0.218839,607345,366941
1473.67,0.224544,603789,360032
1476.85,0.230732,601175,353402
1480.02,0.236381,597737,346840
1483.19,0.243251,594479,339536
1486.36,0.247510,591232,334386
1489.52,0.252461,587853,328706
1492.68,0.256439,583875,323505
1496.89,0.257682,578062,319369
1500.03,0.258790,574159,316404
1503.18,0.258438,570285,314524
1506.32,0.257359,565444,312630
1509.45,0.256341,560571,310663
1512.58,0.254403,555821,309408
1515.71,0.252435,550344,307751
1519.87,0.248917,543983,306668
1522.99,0.247147,538764,304966
1526.1,0.244583,533692,303884
1529.21,0.242210,527902,302234
1532.32,0.238277,521886,301508
1535.42,0.235287,515888,300102
1538.51,0.232932,509987,298282
1541.6,0.230483,503936,296410
1545.72,0.226374,494694,293740
1548.8,0.223439,488378,291956
1551.88,0.220932,481832,289710
1554.95,0.219450,474989,286572
1558.02,0.218163,467818,283083
1561.08,0.216717,460730,279724
1564.15,0.215162,454170,276730
1568.22,0.214016,444181,271359
1571.27,0.214684,436947,266529
1574.32,0.213391,429598,262828
1577.36,0.211872,422039,259108
1580.4,0.210617,414375,255139
1583.43,0.209281,406354,250971
1586.46,0.208308,398475,246657
1590.49,0.205379,388982,242410
1593.51,0.203435,380708,238318
1596.53,0.201847,372727,234177
1599.54,0.199174,365060,230776
1602.55,0.198792,357543,226223
1605.55,0.196695,349495,222201
1608.55,0.193159,341154,218671
1612.54,0.192377,330877,212466
1615.53,0.190219,322904,208379
1618.51,0.189373,315116,203750
1621.49,0.188176,307217,199191
1624.47,0.186484,299481,194933
1627.44,0.186049,292112,190327
1630.41,0.185977,284245,185232
1634.36,0.184729,274079,179121
1637.32,0.183560,266916,174910
1640.27,0.182659,259612,170477
1643.22,0.182349,251804,165468
1646.16,0.182244,244348,160607
1649.1,0.180662,236703,156150
1652.04,0.178195,228171,151379
1655.95,0.175328,215408,143858
1658.88,0.172034,204937,137907
1661.8,0.167681,193395,131451
1664.72,0.158701,179728,124714
1667.63,0.145668,163642,117011
1670.54,0.132411,146312,107862
1673.44,0.116692,128451,98185
1677.31,0.097856,105080,83881
1680.21,0.087200,88906,72733
1683.1,0.081169,75033,62242
1685.99,0.082057,63520,52584
1688.87,0.082930,53714,44377
1691.75,0.089429,45653,37157
1694.62,0.095713,39137,31396
1697.49,0.095254,33776,27124
1701.31,0.107678,28175,21988