Folder: textile_sorting_NIRSCAN_/samples/wool/wool-000811 (part 123)

File: Column 1_050600_20150331_122332.csv
Method:,Column 1,,
Host Date-Time:,31/3/15 @ 12:23:32,,
Header Version:,1,,
System Temp (C):,33.97,,
Detector Temp (C):,34.75,,
Humidity (%):,1.76,,
Lamp PD:,3818,,
Shift Vector Coefficients:,-10.5391,0.0761263,-0.000134223,,
Pixel to Wavelength Coefficients:,1775.68,-0.916766,-0.000235065,,
Serial Number:,5510004,,
Scan Config Name:,Column 1,,
Scan Config Type:,Slew,,
Section 1,,
Start wavelength (nm):,900,,
End wavelength (nm):,1700,,
Pattern Pixel Width (nm):,   7.03,,,,
Exposure (ms):,  0.635,,,,
Digital Resolution:,228,,
Num Repeats:,6,,
PGA Gain:,64,,
Total Measurement Time in sec:,  2.682,,
Wavelength (nm),Absorbance (AU),Reference Signal (unitless),Sample Signal (unitless)
901.51,0.069209,108485,92504
905.376,0.074776,121306,102119
909.237,0.077266,131909,110410
913.095,0.079264,143299,119393
916.948,0.078771,156982,130942
922.079,0.080857,179937,149370
925.923,0.082429,200504,165842
929.762,0.083051,222660,183904
933.597,0.082386,244426,202191
937.427,0.081735,263972,218687
941.254,0.080071,281845,234390
945.076,0.079607,297271,247483
950.165,0.078376,315605,263492
953.978,0.078317,328029,273902
957.786,0.078565,340470,284128
961.59,0.078422,352317,294111
965.389,0.078352,363056,303125
969.185,0.078548,373162,311422
972.976,0.079056,382632,318952
976.763,0.079242,391202,325956
981.806,0.079490,400190,333255
985.583,0.080279,406088,337552
989.355,0.081192,410162,340223
993.124,0.080832,412868,342751
996.888,0.081375,414263,343480
1000.65,0.082619,415476,343500
1004.4,0.083710,415479,342641
1009.41,0.085100,414358,340624
1013.15,0.084789,412923,339688
1016.89,0.085834,411526,337725
1020.63,0.084919,409066,336414
1024.36,0.085834,406777,333828
1028.09,0.085484,404427,332167
1031.82,0.084885,401911,330556
1036.78,0.084713,398410,327806
1040.49,0.084154,396204,326411
1044.2,0.084978,394236,324174
1047.91,0.084004,392042,323094
1051.61,0.084096,389823,321197
1055.31,0.083862,388234,320060
1059,0.083244,387599,319992
1063.92,0.082184,386688,320020
1067.61,0.081484,386598,320461
1071.29,0.080745,387377,321654
1074.96,0.080868,388536,322525
1078.63,0.079802,389855,324415
1082.3,0.079495,391215,325777
1085.96,0.078697,393215,328045
1090.84,0.077656,396270,331387
1094.49,0.077298,398760,333744
1098.14,0.076180,400987,336473
1101.79,0.076365,403477,338418
1105.43,0.075910,406116,340989
1109.06,0.075057,407701,342993
1112.7,0.074673,409859,345113
1117.53,0.074503,412494,347468
1121.15,0.074953,414909,349140
1124.77,0.075627,416559,349985
1128.38,0.076011,418532,351332
1131.99,0.077663,419956,351189
1135.6,0.078781,421946,351946
1139.2,0.079816,423881,352718
1143.99,0.081597,426786,353682
1147.58,0.082764,428617,354246
1151.17,0.084041,431169,355309
1154.75,0.084280,433579,357099
1158.33,0.085737,436264,358107
1161.91,0.087227,439132,359226
1165.48,0.089495,442389,360006
1169.04,0.092068,446101,360882
1173.79,0.095256,451929,362923
1177.34,0.097065,456026,364691
1180.9,0.099465,461306,366880
1184.44,0.101281,467657,370379
1187.99,0.101920,473969,374826
1191.52,0.102041,479856,379376
1195.06,0.102166,487372,385207
1199.76,0.101310,497347,393867
1203.29,0.100974,504311,399691
1206.81,0.100512,511507,405826
1210.33,0.099205,519078,413074
1213.84,0.099357,527163,419361
1217.35,0.098548,534208,425758
1220.85,0.097650,540472,431642
1225.51,0.096842,549929,440012
1229.01,0.096616,556888,445812
1232.5,0.096066,562180,450619
1235.98,0.095338,567975,456028
1239.46,0.094531,574815,462378
1242.94,0.093341,582782,470073
1246.41,0.093234,591476,477203
1251.03,0.092719,604016,487899
1254.5,0.092606,612289,494710
1257.96,0.093057,619125,499714
1261.41,0.093869,624551,503152
1264.86,0.094069,629900,507227
1268.31,0.094785,634345,509965
1271.75,0.095237,638574,512831
1276.33,0.095726,642499,515402
1279.76,0.095713,645905,518150
1283.19,0.095334,648307,520531
1286.61,0.094902,650446,522768
1290.03,0.094560,652132,524536
1293.44,0.094001,653907,526641
1296.85,0.093689,655963,528677
1301.39,0.093116,657349,530494
1304.8,0.093510,657558,530181
1308.19,0.093416,658515,531067
1311.58,0.093703,658804,530950
1314.97,0.093951,659011,530813
1318.36,0.094675,658272,529335
1321.73,0.094552,658022,529283
1326.23,0.095630,657870,527850
1329.6,0.096567,656482,525601
1332.97,0.097266,654926,523511
1336.33,0.098186,653727,521447
1339.69,0.099438,652497,518968
1343.04,0.101540,649913,514417
1346.39,0.103495,647671,510340
1349.73,0.104974,645338,506773
1354.18,0.108134,641175,499853
1357.52,0.110407,638376,495073
1360.85,0.112503,635805,490706
1364.17,0.114193,633413,486961
1367.49,0.116455,631026,482605
1370.81,0.118723,628050,477828
1374.12,0.120474,625034,473620
1378.54,0.123917,620272,466300
1381.84,0.125933,616892,461611
1385.14,0.129707,613613,455185
1388.43,0.133465,611526,449728
1391.72,0.137780,610663,444653
1395.01,0.141736,610634,440601
1398.29,0.146570,611700,436484
1402.66,0.153055,614051,431668
1405.93,0.157599,616268,428717
1409.2,0.162906,617795,424559
1412.46,0.167391,618872,420930
1415.72,0.171047,619795,418024
1418.98,0.175409,620495,414314
1422.23,0.178420,621087,411844
1426.56,0.182600,621375,408088
1429.8,0.184694,621616,406283
1433.04,0.187088,622129,404383
1436.27,0.189461,621526,401789
1439.5,0.191268,621113,399855
1442.72,0.194075,620921,397156
1445.94,0.196503,620270,394528
1450.23,0.199976,618860,390496
1453.44,0.202752,617697,387279
1456.64,0.205140,616264,384261
1459.85,0.208153,614413,380459
1463.04,0.211150,612307,376547
1466.24,0.214188,610032,372533
1469.43,0.217800,607345,367820
1473.67,0.223743,603789,360697
1476.85,0.229472,601175,354429
1480.02,0.235643,597737,347430
1483.19,0.241479,594479,340924
1486.36,0.247349,591232,334510
1489.52,0.251399,587853,329511
1492.68,0.255527,583875,324185
1496.89,0.257054,578062,319831
1500.03,0.257440,574159,317389
1503.18,0.257345,570285,315317
1506.32,0.256976,565444,312906
1509.45,0.255281,560571,311422
1512.58,0.254092,555821,309630
1515.71,0.251738,550344,308245
1519.87,0.248471,543983,306983
1522.99,0.245918,538764,305830
1526.1,0.243869,533692,304384
1529.21,0.240531,527902,303405
1532.32,0.237879,521886,301784
1535.42,0.235127,515888,300212
1538.51,0.231934,509987,298968
1541.6,0.228918,503936,297480
1545.72,0.225852,494694,294093
1548.8,0.222400,488378,292655
1551.88,0.220171,481832,290218
1554.95,0.218724,474989,287051
1558.02,0.216221,467818,284352
1561.08,0.215545,460730,280480
1564.15,0.215429,454170,276560
1568.22,0.213475,444181,271697
1571.27,0.213498,436947,267258
1574.32,0.211972,429598,263688
1577.36,0.211050,422039,259599
1580.4,0.210144,414375,255417
1583.43,0.208688,406354,251314
1586.46,0.207316,398475,247221
1590.49,0.205822,388982,242163
1593.51,0.202843,380708,238643
1596.53,0.200880,372727,234699
1599.54,0.198301,365060,231240
1602.55,0.197400,357543,226949
1605.55,0.196019,349495,222547
1608.55,0.193141,341154,218680
1612.54,0.192065,330877,212619
1615.53,0.189251,322904,208844
1618.51,0.188579,315116,204123
1621.49,0.187283,307217,199601
1624.47,0.186535,299481,194910
1627.44,0.185844,292112,190417
1630.41,0.184689,284245,185782
1634.36,0.183478,274079,179638
1637.32,0.183379,266916,174983
1640.27,0.182909,259612,170379
1643.22,0.180322,251804,166242
1646.16,0.179879,244348,161484
1649.1,0.179016,236703,156743
1652.04,0.178140,228171,151398
1655.95,0.173767,215408,144376
1658.88,0.170284,204937,138464
1661.8,0.165414,193395,132139
1664.72,0.157803,179728,124972
1667.63,0.145750,163642,116989
1670.54,0.132166,146312,107923
1673.44,0.115173,128451,98529
1677.31,0.096265,105080,84189
1680.21,0.083614,88906,73336
1683.1,0.077362,75033,62790
1685.99,0.079348,63520,52913
1688.87,0.083076,53714,44362
1691.75,0.089744,45653,37130
1694.62,0.088688,39137,31908
1697.49,0.099470,33776,26862
1701.31,0.103081,28175,22222

File: Column 1_050600_20150331_122335.csv
Method:,Column 1,,
Host Date-Time:,31/3/15 @ 12:23:35,,
Header Version:,1,,
System Temp (C):,33.98,,
Detector Temp (C):,34.79,,
Humidity (%):,1.76,,
Lamp PD:,3818,,
Shift Vector Coefficients:,-10.5391,0.0761263,-0.000134223,,
Pixel to Wavelength Coefficients:,1775.68,-0.916766,-0.000235065,,
Serial Number:,5510004,,
Scan Config Name:,Column 1,,
Scan Config Type:,Slew,,
Section 1,,
Start wavelength (nm):,900,,
End wavelength (nm):,1700,,
Pattern Pixel Width (nm):,   7.03,,,,
Exposure (ms):,  0.635,,,,
Digital Resolution:,228,,
Num Repeats:,6,,
PGA Gain:,64,,
Total Measurement Time in sec:,  2.730,,
Wavelength (nm),Absorbance (AU),Reference Signal (unitless),Sample Signal (unitless)
901.51,0.069811,108485,92376
905.376,0.073680,121306,102377
909.237,0.077703,131909,110299
913.095,0.078919,143299,119488
916.948,0.078522,156982,131017
922.079,0.081622,179937,149107
925.923,0.081544,200504,166180
929.762,0.082744,222660,184034
933.597,0.082246,244426,202256
937.427,0.081594,263972,218758
941.254,0.080602,281845,234104
945.076,0.078724,297271,247987
950.165,0.078729,315605,263278
953.978,0.077533,328029,274397
957.786,0.078103,340470,284430
961.59,0.078746,352317,293892
965.389,0.078106,363056,303297
969.185,0.078098,373162,311745
972.976,0.078751,382632,319176
976.763,0.079199,391202,325988
981.806,0.079681,400190,333108
985.583,0.080223,406088,337596
989.355,0.080618,410162,340673
993.124,0.080911,412868,342689
996.888,0.081476,414263,343400
1000.65,0.082115,415476,343899
1004.4,0.083354,415479,342922
1009.41,0.084357,414358,341208
1013.15,0.085467,412923,339158
1016.89,0.085158,411526,338251
1020.63,0.085811,409066,335724
1024.36,0.085788,406777,333863
1028.09,0.085545,404427,332120
1031.82,0.085401,401911,330163
1036.78,0.084668,398410,327840
1040.49,0.084524,396204,326133
1044.2,0.084290,394236,324688
1047.91,0.083977,392042,323114
1051.61,0.083988,389823,321277
1055.31,0.083665,388234,320205
1059,0.083105,387599,320094
1063.92,0.082330,386688,319912
1067.61,0.081979,386598,320096
1071.29,0.081070,387377,321413
1074.96,0.081280,388536,322219
1078.63,0.080177,389855,324135
1082.3,0.079109,391215,326067
1085.96,0.078710,393215,328035
1090.84,0.077709,396270,331346
1094.49,0.076950,398760,334012
1098.14,0.076418,400987,336289
1101.79,0.075860,403477,338812
1105.43,0.075432,406116,341364
1109.06,0.074576,407701,343373
1112.7,0.075125,409859,344754
1117.53,0.074410,412494,347542
1121.15,0.074410,414909,349577
1124.77,0.075292,416559,350255
1128.38,0.076000,418532,351341
1131.99,0.077327,419956,351461
1135.6,0.078387,421946,352265
1139.2,0.079295,423881,353142
1143.99,0.081850,426786,353476
1147.58,0.082818,428617,354202
1151.17,0.083444,431169,355798
1154.75,0.084592,433579,356842
1158.33,0.085597,436264,358222
1161.91,0.087865,439132,358699
1165.48,0.089730,442389,359811
1169.04,0.091951,446101,360979
1173.79,0.094639,451929,363439
1177.34,0.097582,456026,364257
1180.9,0.099547,461306,366811
1184.44,0.101044,467657,370581
1187.99,0.102502,473969,374324
1191.52,0.102621,479856,378870
1195.06,0.102016,487372,385340
1199.76,0.101865,497347,393364
1203.29,0.100822,504311,399831
1206.81,0.100733,511507,405619
1210.33,0.099697,519078,412606
1213.84,0.098850,527163,419851
1217.35,0.098490,534208,425814
1220.85,0.097203,540472,432086
1225.51,0.096831,549929,440023
1229.01,0.096557,556888,445873
1232.5,0.095956,562180,450733
1235.98,0.095399,567975,455964
1239.46,0.094024,574815,462918
1242.94,0.093303,582782,470114
1246.41,0.092655,591476,477840
1251.03,0.092732,604016,487884
1254.5,0.092766,612289,494527
1257.96,0.093298,619125,499437
1261.41,0.093571,624551,503497
1264.86,0.094372,629900,506874
1268.31,0.094742,634345,510016
1271.75,0.095247,638574,512819
1276.33,0.095155,642499,516080
1279.76,0.095364,645905,518567
1283.19,0.095166,648307,520732
1286.61,0.095129,650446,522495
1290.03,0.094368,652132,524768
1293.44,0.093850,653907,526824
1296.85,0.093374,655963,529061
1301.39,0.093376,657349,530176
1304.8,0.093812,657558,529812
1308.19,0.093589,658515,530856
1311.58,0.093761,658804,530878
1314.97,0.094437,659011,530219
1318.36,0.094350,658272,529731
1321.73,0.095237,658022,528450
1326.23,0.095403,657870,528125
1329.6,0.096515,656482,525663
1332.97,0.097666,654926,523030
1336.33,0.098378,653727,521217
1339.69,0.100290,652497,517951
1343.04,0.101088,649913,514953
1346.39,0.103350,647671,510510
1349.73,0.105119,645338,506604
1354.18,0.108133,641175,499854
1357.52,0.110321,638376,495171
1360.85,0.112232,635805,491012
1364.17,0.113997,633413,487181
1367.49,0.116365,631026,482706
1370.81,0.118462,628050,478115
1374.12,0.120559,625034,473527
1378.54,0.123708,620272,466524
1381.84,0.126961,616892,460520
1385.14,0.129930,613613,454951
1388.43,0.133446,611526,449748
1391.72,0.137906,610663,444524
1395.01,0.142032,610634,440300
1398.29,0.146743,611700,436310
1402.66,0.152766,614051,431955
1405.93,0.158355,616268,427971
1409.2,0.163259,617795,424214
1412.46,0.167041,618872,421269
1415.72,0.171168,619795,417907
1418.98,0.175129,620495,414581
1422.23,0.178476,621087,411791
1426.56,0.182219,621375,408446
1429.8,0.185028,621616,405970
1433.04,0.187177,622129,404300
1436.27,0.189659,621526,401606
1439.5,0.191855,621113,399315
1442.72,0.194243,620921,397003
1445.94,0.196040,620270,394949
1450.23,0.199756,618860,390694
1453.44,0.202466,617697,387534
1456.64,0.205139,616264,384262
1459.85,0.207726,614413,380833
1463.04,0.210803,612307,376848
1466.24,0.214106,610032,372603
1469.43,0.217596,607345,367993
1473.67,0.223840,603789,360616
1476.85,0.229506,601175,354401
1480.02,0.234653,597737,348223
1483.19,0.241359,594479,341018
1486.36,0.247367,591232,334496
1489.52,0.252234,587853,328878
1492.68,0.254883,583875,324666
1496.89,0.257551,578062,319465
1500.03,0.258135,574159,316882
1503.18,0.257467,570285,315228
1506.32,0.257026,565444,312870
1509.45,0.255710,560571,311115
1512.58,0.253737,555821,309883
1515.71,0.251696,550344,308275
1519.87,0.248129,543983,307225
1522.99,0.245493,538764,306130
1526.1,0.243368,533692,304735
1529.21,0.240966,527902,303101
1532.32,0.237442,521886,302088
1535.42,0.234897,515888,300371
1538.51,0.232453,509987,298611
1541.6,0.228972,503936,297443
1545.72,0.225446,494694,294368
1548.8,0.222409,488378,292649
1551.88,0.220058,481832,290294
1554.95,0.217790,474989,287669
1558.02,0.216708,467818,284033
1561.08,0.216003,460730,280184
1564.15,0.214767,454170,276982
1568.22,0.213545,444181,271653
1571.27,0.213561,436947,267219
1574.32,0.212667,429598,263266
1577.36,0.210832,422039,259729
1580.4,0.209870,414375,255578
1583.43,0.207768,406354,251847
1586.46,0.206461,398475,247708
1590.49,0.204273,388982,243028
1593.51,0.202543,380708,238808
1596.53,0.200978,372727,234646
1599.54,0.198786,365060,230982
1602.55,0.197902,357543,226687
1605.55,0.194578,349495,223287
1608.55,0.193201,341154,218650
1612.54,0.190743,330877,213267
1615.53,0.190024,322904,208473
1618.51,0.188693,315116,204069
1621.49,0.187629,307217,199442
1624.47,0.186783,299481,194799
1627.44,0.185506,292112,190565
1630.41,0.184989,284245,185654
1634.36,0.183183,274079,179760
1637.32,0.182325,266916,175408
1640.27,0.182519,259612,170532
1643.22,0.181148,251804,165926
1646.16,0.179277,244348,161708
1649.1,0.178883,236703,156791
1652.04,0.178135,228171,151400
1655.95,0.174586,215408,144104
1658.88,0.170792,204937,138302
1661.8,0.166652,193395,131763
1664.72,0.158728,179728,124706
1667.63,0.146828,163642,116699
1670.54,0.131193,146312,108165
1673.44,0.116264,128451,98282
1677.31,0.094936,105080,84447
1680.21,0.084521,88906,73183
1683.1,0.078449,75033,62633
1685.99,0.077080,63520,53190
1688.87,0.079227,53714,44757
1691.75,0.087691,45653,37306
1694.62,0.090857,39137,31749
1697.49,0.097518,33776,26983
1701.31,0.099500,28175,22406

File: Column 1_050600_20150331_122338.csv
Method:,Column 1,,
Host Date-Time:,31/3/15 @ 12:23:38,,
Header Version:,1,,
System Temp (C):,33.97,,
Detector Temp (C):,34.79,,
Humidity (%):,1.76,,
Lamp PD:,3818,,
Shift Vector Coefficients:,-10.5391,0.0761263,-0.000134223,,
Pixel to Wavelength Coefficients:,1775.68,-0.916766,-0.000235065,,
Serial Number:,5510004,,
Scan Config Name:,Column 1,,
Scan Config Type:,Slew,,
Section 1,,
Start wavelength (nm):,900,,
End wavelength (nm):,1700,,
Pattern Pixel Width (nm):,   7.03,,,,
Exposure (ms):,  0.635,,,,
Digital Resolution:,228,,
Num Repeats:,6,,
PGA Gain:,64,,
Total Measurement Time in sec:,  2.668,,
Wavelength (nm),Absorbance (AU),Reference Signal (unitless),Sample Signal (unitless)
901.51,0.068876,108485,92575
905.376,0.075167,121306,102027
909.237,0.076115,131909,110703
913.095,0.077891,143299,119771
916.948,0.077407,156982,131354
922.079,0.079519,179937,149831
925.923,0.081667,200504,166133
929.762,0.083136,222660,183868
933.597,0.082532,244426,202123
937.427,0.080486,263972,219317
941.254,0.080679,281845,234062
945.076,0.079074,297271,247787
950.165,0.078513,315605,263409
953.978,0.077631,328029,274335
957.786,0.078012,340470,284490
961.59,0.077891,352317,294471
965.389,0.078000,363056,303371
969.185,0.078133,373162,311720
972.976,0.078188,382632,319590
976.763,0.079030,391202,326115
981.806,0.079250,400190,333439
985.583,0.080031,406088,337745
989.355,0.080583,410162,340700
993.124,0.080258,412868,343205
996.888,0.081169,414263,343643
1000.65,0.081637,415476,344278
1004.4,0.083293,415479,342970
1009.41,0.084583,414358,341030
1013.15,0.084995,412923,339527
1016.89,0.085447,411526,338026
1020.63,0.085242,409066,336164
1024.36,0.085401,406777,334161
1028.09,0.085028,404427,332516
1031.82,0.085036,401911,330441
1036.78,0.084037,398410,328317
1040.49,0.084010,396204,326519
1044.2,0.084445,394236,324572
1047.91,0.083746,392042,323286
1051.61,0.083511,389823,321630
1055.31,0.083385,388234,320412
1059,0.083306,387599,319946
1063.92,0.081885,386688,320240
1067.61,0.081780,386598,320243
1071.29,0.081138,387377,321363
1074.96,0.080135,388536,323070
1078.63,0.080046,389855,324233
1082.3,0.079480,391215,325788
1085.96,0.078718,393215,328029
1090.84,0.077061,396270,331841
1094.49,0.077043,398760,333940
1098.14,0.076029,400987,336590
1101.79,0.075869,403477,338805
1105.43,0.075261,406116,341499
1109.06,0.074609,407701,343347
1112.7,0.074643,409859,345137
1117.53,0.073686,412494,348122
1121.15,0.074447,414909,349547
1124.77,0.074939,416559,350540
1128.38,0.075705,418532,351580
1131.99,0.076392,419956,352218
1135.6,0.078410,421946,352247
1139.2,0.078995,423881,353386
1143.99,0.081870,426786,353460
1147.58,0.082366,428617,354571
1151.17,0.083272,431169,355939
1154.75,0.084382,433579,357015
1158.33,0.085727,436264,358115
1161.91,0.087314,439132,359154
1165.48,0.089083,442389,360347
1169.04,0.091728,446101,361165
1173.79,0.095876,451929,362405
1177.34,0.096837,456026,364882
1180.9,0.099434,461306,366906
1184.44,0.100981,467657,370635
1187.99,0.102167,473969,374613
1191.52,0.102574,479856,378911
1195.06,0.101969,487372,385382
1199.76,0.101050,497347,394103
1203.29,0.100530,504311,400100
1206.81,0.099987,511507,406317
1210.33,0.099239,519078,413041
1213.84,0.099283,527163,419432
1217.35,0.098006,534208,426289
1220.85,0.097645,540472,431646
1225.51,0.097158,549929,439692
1229.01,0.095994,556888,446451
1232.5,0.095512,562180,451194
1235.98,0.095382,567975,455981
1239.46,0.094130,574815,462805
1242.94,0.093611,582782,469781
1246.41,0.092387,591476,478134
1251.03,0.092347,604016,488316
1254.5,0.092669,612289,494638
1257.96,0.093521,619125,499180
1261.41,0.093508,624551,503570
1264.86,0.094124,629900,507163
1268.31,0.094581,634345,510205
1271.75,0.095027,638574,513079
1276.33,0.095857,642499,515247
1279.76,0.095059,645905,518931
1283.19,0.094730,648307,521255
1286.61,0.094299,650446,523495
1290.03,0.093836,652132,525411
1293.44,0.093499,653907,527250
1296.85,0.093524,655963,528878
1301.39,0.093230,657349,530354
1304.8,0.093217,657558,530539
1308.19,0.093470,658515,531001
1311.58,0.093417,658804,531299
1314.97,0.093965,659011,530796
1318.36,0.094162,658272,529960
1321.73,0.094328,658022,529557
1326.23,0.095777,657870,527671
1329.6,0.096264,656482,525967
1332.97,0.097256,654926,523523
1336.33,0.098252,653727,521368
1339.69,0.099811,652497,518522
1343.04,0.101190,649913,514832
1346.39,0.103019,647671,510899
1349.73,0.105224,645338,506481
1354.18,0.108001,641175,500006
1357.52,0.109527,638376,496078
1360.85,0.112138,635805,491118
1364.17,0.113999,633413,487178
1367.49,0.116254,631026,482829
1370.81,0.118516,628050,478055
1374.12,0.120654,625034,473423
1378.54,0.123321,620272,466940
1381.84,0.126276,616892,461247
1385.14,0.129396,613613,455511
1388.43,0.133133,611526,450072
1391.72,0.137822,610663,444610
1395.01,0.141811,610634,440524
1398.29,0.146137,611700,436920
1402.66,0.152710,614051,432011
1405.93,0.157824,616268,428495
1409.2,0.162490,617795,424966
1412.46,0.166721,618872,421580
1415.72,0.171409,619795,417676
1418.98,0.174664,620495,415025
1422.23,0.177831,621087,412403
1426.56,0.181671,621375,408962
1429.8,0.184716,621616,406262
1433.04,0.187197,622129,404281
1436.27,0.189172,621526,402057
1439.5,0.191775,621113,399389
1442.72,0.193919,620921,397299
1445.94,0.196076,620270,394916
1450.23,0.200071,618860,390410
1453.44,0.202490,617697,387512
1456.64,0.205116,616264,384283
1459.85,0.207935,614413,380650
1463.04,0.210683,612307,376952
1466.24,0.213661,610032,372985
1469.43,0.217505,607345,368070
1473.67,0.223750,603789,360691
1476.85,0.228859,601175,354929
1480.02,0.234612,597737,348256
1483.19,0.241483,594479,340921
1486.36,0.246523,591232,335147
1489.52,0.251743,587853,329250
1492.68,0.255279,583875,324370
1496.89,0.256701,578062,320091
1500.03,0.257420,574159,317404
1503.18,0.257455,570285,315237
1506.32,0.256761,565444,313061
1509.45,0.254806,560571,311763
1512.58,0.253755,555821,309870
1515.71,0.251352,550344,308519
1519.87,0.248366,543983,307057
1522.99,0.245715,538764,305973
1526.1,0.242833,533692,305111
1529.21,0.240179,527902,303651
1532.32,0.237720,521886,301895
1535.42,0.235324,515888,300076
1538.51,0.231836,509987,299036
1541.6,0.229337,503936,297193
1545.72,0.225097,494694,294605
1548.8,0.221795,488378,293063
1551.88,0.220417,481832,290054
1554.95,0.217407,474989,287923
1558.02,0.216089,467818,284438
1561.08,0.215244,460730,280674
1564.15,0.214654,454170,277054
1568.22,0.213373,444181,271761
1571.27,0.212197,436947,268060
1574.32,0.212371,429598,263446
1577.36,0.210344,422039,260021
1580.4,0.209901,414375,255560
1583.43,0.207999,406354,251713
1586.46,0.206961,398475,247423
1590.49,0.204874,388982,242692
1593.51,0.202707,380708,238718
1596.53,0.200353,372727,234984
1599.54,0.198613,365060,231074
1602.55,0.197846,357543,226716
1605.55,0.195364,349495,222883
1608.55,0.193159,341154,218671
1612.54,0.190767,330877,213255
1615.53,0.188971,322904,208979
1618.51,0.188347,315116,204232
1621.49,0.186602,307217,199914
1624.47,0.185787,299481,195246
1627.44,0.185023,292112,190777
1630.41,0.184220,284245,185983
1634.36,0.182536,274079,180028
1637.32,0.182167,266916,175472
1640.27,0.181931,259612,170763
1643.22,0.179695,251804,166482
1646.16,0.180609,244348,161213
1649.1,0.179043,236703,156733
1652.04,0.177725,228171,151543
1655.95,0.173758,215408,144379
1658.88,0.170111,204937,138519
1661.8,0.164967,193395,132275
1664.72,0.158029,179728,124907
1667.63,0.145167,163642,117146
1670.54,0.130050,146312,108450
1673.44,0.115041,128451,98559
1677.31,0.096771,105080,84091
1680.21,0.083952,88906,73279
1683.1,0.076588,75033,62902
1685.99,0.081207,63520,52687
1688.87,0.080509,53714,44625
1691.75,0.090482,45653,37067
1694.62,0.088103,39137,31951
1697.49,0.086897,33776,27651
1701.31,0.096679,28175,22552