Folder: textile_sorting_NIRSCAN_/samples/wool/wool-000811 (part 5)

File: Column 1_050533_20150331_115147.csv
Method:,Column 1,,
Host Date-Time:,31/3/15 @ 11:51:47,,
Header Version:,1,,
System Temp (C):,30.76,,
Detector Temp (C):,30.75,,
Humidity (%):,4.48,,
Lamp PD:,3829,,
Shift Vector Coefficients:,-10.5391,0.0761263,-0.000134223,,
Pixel to Wavelength Coefficients:,1775.68,-0.916766,-0.000235065,,
Serial Number:,5510004,,
Scan Config Name:,Column 1,,
Scan Config Type:,Slew,,
Section 1,,
Start wavelength (nm):,900,,
End wavelength (nm):,1700,,
Pattern Pixel Width (nm):,   7.03,,,,
Exposure (ms):,  0.635,,,,
Digital Resolution:,228,,
Num Repeats:,6,,
PGA Gain:,64,,
Total Measurement Time in sec:,  2.683,,
Wavelength (nm),Absorbance (AU),Reference Signal (unitless),Sample Signal (unitless)
901.51,0.042794,108485,98305
905.376,0.047877,121306,108644
909.237,0.051010,131909,117291
913.095,0.051036,143299,127411
916.948,0.050458,156982,139763
922.079,0.050705,179937,160109
925.923,0.050417,200504,178528
929.762,0.051581,222660,197725
933.597,0.052349,244426,216670
937.427,0.051472,263972,234469
941.254,0.053166,281845,249370
945.076,0.052176,297271,263619
950.165,0.053330,315605,279135
953.978,0.052772,328029,290496
957.786,0.053136,340470,301261
961.59,0.054138,352317,311025
965.389,0.054491,363056,320245
969.185,0.054473,373162,329173
972.976,0.055342,382632,336852
976.763,0.056554,391202,343437
981.806,0.056274,400190,351554
985.583,0.057733,406088,355539
989.355,0.058343,410162,358602
993.124,0.058444,412868,360884
996.888,0.059526,414263,361202
1000.65,0.059607,415476,362192
1004.4,0.061187,415479,360879
1009.41,0.062568,414358,358763
1013.15,0.062893,412923,357253
1016.89,0.062856,411526,356075
1020.63,0.063438,409066,353472
1024.36,0.063159,406777,351720
1028.09,0.062849,404427,349938
1031.82,0.062702,401911,347879
1036.78,0.062087,398410,345337
1040.49,0.061087,396204,344217
1044.2,0.060894,394236,342659
1047.91,0.060467,392042,341087
1051.61,0.059507,389823,339907
1055.31,0.059128,388234,338817
1059,0.058198,387599,338988
1063.92,0.057472,386688,338757
1067.61,0.056080,386598,339766
1071.29,0.055910,387377,340584
1074.96,0.054592,388536,342641
1078.63,0.054523,389855,343859
1082.3,0.052730,391215,346486
1085.96,0.052286,393215,348613
1090.84,0.051977,396270,351572
1094.49,0.050967,398760,354605
1098.14,0.050692,400987,356811
1101.79,0.050722,403477,359002
1105.43,0.050965,406116,361148
1109.06,0.049948,407701,363407
1112.7,0.049771,409859,365480
1117.53,0.050157,412494,367503
1121.15,0.051087,414909,368864
1124.77,0.051704,416559,369805
1128.38,0.053493,418532,370029
1131.99,0.054823,419956,370153
1135.6,0.057116,421946,369948
1139.2,0.059050,423881,369993
1143.99,0.062233,426786,369809
1147.58,0.062615,428617,371069
1151.17,0.064676,431169,371511
1154.75,0.066190,433579,372287
1158.33,0.068272,436264,372801
1161.91,0.070784,439132,373088
1165.48,0.073597,442389,373428
1169.04,0.076910,446101,373700
1173.79,0.080775,451929,375228
1177.34,0.083442,456026,376312
1180.9,0.085531,461306,378842
1184.44,0.088048,467657,381838
1187.99,0.088542,473969,386552
1191.52,0.088153,479856,391704
1195.06,0.087230,487372,398686
1199.76,0.085857,497347,408134
1203.29,0.084698,504311,414954
1206.81,0.083973,511507,421579
1210.33,0.082294,519078,429476
1213.84,0.081322,527163,437142
1217.35,0.080362,534208,443965
1220.85,0.079082,540472,450496
1225.51,0.078108,549929,459408
1229.01,0.077137,556888,466263
1232.5,0.076212,562180,471697
1235.98,0.075011,567975,477879
1239.46,0.074172,574815,484569
1242.94,0.072882,582782,492747
1246.41,0.072647,591476,500369
1251.03,0.071757,604016,512025
1254.5,0.072013,612289,518732
1257.96,0.072335,619125,524135
1261.41,0.073050,624551,527859
1264.86,0.073770,629900,531498
1268.31,0.074209,634345,534708
1271.75,0.075247,638574,536988
1276.33,0.075005,642499,540589
1279.76,0.075212,645905,543196
1283.19,0.074359,648307,546288
1286.61,0.074062,650446,548465
1290.03,0.073899,652132,550094
1293.44,0.073446,653907,552166
1296.85,0.073206,655963,554209
1301.39,0.072693,657349,556036
1304.8,0.073228,657558,555528
1308.19,0.073407,658515,556107
1311.58,0.073258,658804,556543
1314.97,0.074113,659011,555622
1318.36,0.074761,658272,554172
1321.73,0.075227,658022,553367
1326.23,0.076359,657870,551799
1329.6,0.077163,656482,549616
1332.97,0.078945,654926,546069
1336.33,0.080024,653727,543716
1339.69,0.081956,652497,540284
1343.04,0.084204,649913,535367
1346.39,0.086948,647671,530159
1349.73,0.088996,645338,525764
1354.18,0.092518,641175,518154
1357.52,0.094819,638376,513166
1360.85,0.097525,635805,507924
1364.17,0.099860,633413,503300
1367.49,0.102274,631026,498624
1370.81,0.105168,628050,492977
1374.12,0.108080,625034,487330
1378.54,0.112170,620272,479085
1381.84,0.116218,616892,472053
1385.14,0.120743,613613,464677
1388.43,0.126891,611526,456587
1391.72,0.132764,610663,449819
1395.01,0.139101,610634,443282
1398.29,0.145321,611700,437741
1402.66,0.154398,614051,430335
1405.93,0.161460,616268,424922
1409.2,0.168905,617795,418735
1412.46,0.175257,618872,413375
1415.72,0.180544,619795,408982
1418.98,0.185279,620495,405004
1422.23,0.189569,621087,401406
1426.56,0.195220,621375,396400
1429.8,0.198224,621616,393820
1433.04,0.201294,622129,391369
1436.27,0.204005,621526,388557
1439.5,0.206671,621113,385922
1442.72,0.209101,620921,383650
1445.94,0.212331,620270,380408
1450.23,0.215359,618860,376906
1453.44,0.218780,617697,373246
1456.64,0.220762,616264,370685
1459.85,0.223820,614413,366978
1463.04,0.226688,612307,363313
1466.24,0.229610,610032,359536
1469.43,0.231923,607345,356051
1473.67,0.236950,603789,349893
1476.85,0.241676,601175,344608
1480.02,0.246044,597737,339208
1483.19,0.252004,594479,332761
1486.36,0.258070,591232,326353
1489.52,0.262807,587853,320968
1492.68,0.266413,583875,316160
1496.89,0.269211,578062,311002
1500.03,0.269998,574159,308343
1503.18,0.270108,570285,306185
1506.32,0.269447,565444,304048
1509.45,0.267931,560571,302482
1512.58,0.267226,555821,300406
1515.71,0.265117,550344,298894
1519.87,0.262005,543983,297564
1522.99,0.258993,538764,296760
1526.1,0.257148,533692,295218
1529.21,0.253512,527902,294470
1532.32,0.250521,521886,293126
1535.42,0.247466,515888,291803
1538.51,0.243684,509987,290988
1541.6,0.241063,503936,289276
1545.72,0.235261,494694,287790
1548.8,0.231882,488378,286335
1551.88,0.229108,481832,284307
1554.95,0.226957,474989,281661
1558.02,0.224932,467818,278705
1561.08,0.223522,460730,275375
1564.15,0.222878,454170,271857
1568.22,0.222166,444181,266314
1571.27,0.221048,436947,262652
1574.32,0.219858,429598,258943
1577.36,0.217771,422039,255612
1580.4,0.215576,414375,252242
1583.43,0.214378,406354,248043
1586.46,0.212431,398475,244326
1590.49,0.209914,388982,239892
1593.51,0.207435,380708,236133
1596.53,0.204977,372727,232495
1599.54,0.202485,365060,229023
1602.55,0.200010,357543,225589
1605.55,0.198893,349495,221079
1608.55,0.195367,341154,217562
1612.54,0.192351,330877,212479
1615.53,0.190353,322904,208315
1618.51,0.188902,315116,203971
1621.49,0.187637,307217,199438
1624.47,0.186103,299481,195104
1627.44,0.184030,292112,191214
1630.41,0.183494,284245,186294
1634.36,0.181813,274079,180328
1637.32,0.181746,266916,175642
1640.27,0.178728,259612,172027
1643.22,0.178799,251804,166826
1646.16,0.178569,244348,161972
1649.1,0.176755,236703,157561
1652.04,0.175566,228171,152298
1655.95,0.175101,215408,143933
1658.88,0.173188,204937,137541
1661.8,0.174025,193395,129545
1664.72,0.170690,179728,121318
1667.63,0.166569,163642,111513
1670.54,0.165206,146312,100017
1673.44,0.161662,128451,88527
1677.31,0.155706,105080,73420
1680.21,0.159428,88906,61589
1683.1,0.164890,75033,51329
1685.99,0.167578,63520,43185
1688.87,0.173761,53714,36002
1691.75,0.177783,45653,30317
1694.62,0.175299,39137,26139
1697.49,0.179331,33776,22350
1701.31,0.176955,28175,18746

File: Column 1_050533_20150331_115153.csv
Method:,Column 1,,
Host Date-Time:,31/3/15 @ 11:51:53,,
Header Version:,1,,
System Temp (C):,30.8,,
Detector Temp (C):,30.69,,
Humidity (%):,4.43,,
Lamp PD:,3829,,
Shift Vector Coefficients:,-10.5391,0.0761263,-0.000134223,,
Pixel to Wavelength Coefficients:,1775.68,-0.916766,-0.000235065,,
Serial Number:,5510004,,
Scan Config Name:,Column 1,,
Scan Config Type:,Slew,,
Section 1,,
Start wavelength (nm):,900,,
End wavelength (nm):,1700,,
Pattern Pixel Width (nm):,   7.03,,,,
Exposure (ms):,  0.635,,,,
Digital Resolution:,228,,
Num Repeats:,6,,
PGA Gain:,64,,
Total Measurement Time in sec:,  2.727,,
Wavelength (nm),Absorbance (AU),Reference Signal (unitless),Sample Signal (unitless)
901.51,0.043732,108485,98093
905.376,0.048104,121306,108587
909.237,0.049406,131909,117725
913.095,0.051589,143299,127249
916.948,0.049585,156982,140044
922.079,0.049940,179937,160391
925.923,0.050086,200504,178664
929.762,0.050606,222660,198169
933.597,0.051576,244426,217056
937.427,0.052284,263972,234031
941.254,0.052757,281845,249605
945.076,0.052291,297271,263549
950.165,0.052656,315605,279568
953.978,0.052313,328029,290803
957.786,0.053120,340470,301272
961.59,0.053491,352317,311489
965.389,0.054502,363056,320237
969.185,0.054336,373162,329277
972.976,0.055588,382632,336661
976.763,0.055860,391202,343986
981.806,0.057061,400190,350918
985.583,0.056988,406088,356149
989.355,0.057811,410162,359041
993.124,0.058394,412868,360925
996.888,0.058498,414263,362058
1000.65,0.059884,415476,361961
1004.4,0.060641,415479,361333
1009.41,0.061963,414358,359263
1013.15,0.062836,412923,357300
1016.89,0.063390,411526,355637
1020.63,0.062932,409066,353884
1024.36,0.063143,406777,351733
1028.09,0.063374,404427,349515
1031.82,0.062591,401911,347968
1036.78,0.061381,398410,345899
1040.49,0.060935,396204,344337
1044.2,0.060322,394236,343111
1047.91,0.060297,392042,341221
1051.61,0.059561,389823,339865
1055.31,0.058343,388234,339430
1059,0.057434,387599,339585
1063.92,0.056746,386688,339324
1067.61,0.055740,386598,340032
1071.29,0.055145,387377,341184
1074.96,0.054619,388536,342620
1078.63,0.054082,389855,344208
1082.3,0.052489,391215,346678
1085.96,0.052096,393215,348766
1090.84,0.051518,396270,351944
1094.49,0.050962,398760,354609
1098.14,0.050508,400987,356962
1101.79,0.050557,403477,359138
1105.43,0.050213,406116,361774
1109.06,0.049825,407701,363510
1112.7,0.050254,409859,365074
1117.53,0.050763,412494,366990
1121.15,0.051264,414909,368713
1124.77,0.051246,416559,370195
1128.38,0.053390,418532,370117
1131.99,0.054630,419956,370317
1135.6,0.057241,421946,369842
1139.2,0.059203,423881,369863
1143.99,0.061977,426786,370027
1147.58,0.062863,428617,370857
1151.17,0.064353,431169,371787
1154.75,0.065528,433579,372855
1158.33,0.068150,436264,372906
1161.91,0.070222,439132,373571
1165.48,0.072829,442389,374089
1169.04,0.076124,446101,374377
1173.79,0.080564,451929,375410
1177.34,0.083198,456026,376523
1180.9,0.085646,461306,378742
1184.44,0.087855,467657,382008
1187.99,0.088334,473969,386737
1191.52,0.087781,479856,392040
1195.06,0.087372,487372,398555
1199.76,0.085875,497347,408117
1203.29,0.084773,504311,414883
1206.81,0.083486,511507,422052
1210.33,0.082571,519078,429202
1213.84,0.081086,527163,437380
1217.35,0.080437,534208,443888
1220.85,0.078678,540472,450916
1225.51,0.077919,549929,459608
1229.01,0.077156,556888,466242
1232.5,0.075938,562180,471995
1235.98,0.075492,567975,477350
1239.46,0.074071,574815,484682
1242.94,0.072977,582782,492639
1246.41,0.072507,591476,500530
1251.03,0.071844,604016,511923
1254.5,0.071941,612289,518819
1257.96,0.072242,619125,524248
1261.41,0.072700,624551,528285
1264.86,0.073454,629900,531885
1268.31,0.073958,634345,535017
1271.75,0.074767,638574,537582
1276.33,0.074812,642499,540830
1279.76,0.074792,645905,543722
1283.19,0.074399,648307,546238
1286.61,0.073904,650446,548665
1290.03,0.073674,652132,550378
1293.44,0.073175,653907,552511
1296.85,0.073001,655963,554470
1301.39,0.073115,657349,555496
1304.8,0.073108,657558,555682
1308.19,0.073167,658515,556415
1311.58,0.073116,658804,556724
1314.97,0.074395,659011,555261
1318.36,0.075019,658272,553843
1321.73,0.075204,658022,553396
1326.23,0.076048,657870,552194
1329.6,0.077408,656482,549306
1332.97,0.078469,654926,546667
1336.33,0.080056,653727,543676
1339.69,0.081943,652497,540301
1343.04,0.083781,649913,535888
1346.39,0.086832,647671,530301
1349.73,0.089301,645338,525395
1354.18,0.092386,641175,518311
1357.52,0.095133,638376,512795
1360.85,0.097071,635805,508455
1364.17,0.099724,633413,503458
1367.49,0.102658,631026,498183
1370.81,0.105399,628050,492714
1374.12,0.107981,625034,487442
1378.54,0.111801,620272,479492
1381.84,0.116164,616892,472112
1385.14,0.121223,613613,464164
1388.43,0.126397,611526,457107
1391.72,0.132270,610663,450331
1395.01,0.138953,610634,443433
1398.29,0.144894,611700,438172
1402.66,0.154312,614051,430420
1405.93,0.161510,616268,424873
1409.2,0.168884,617795,418755
1412.46,0.174322,618872,414266
1415.72,0.180288,619795,409223
1418.98,0.185572,620495,404731
1422.23,0.189616,621087,401362
1426.56,0.194680,621375,396893
1429.8,0.198189,621616,393852
1433.04,0.201412,622129,391263
1436.27,0.203742,621526,388792
1439.5,0.206653,621113,385938
1442.72,0.208659,620921,384041
1445.94,0.211643,620270,381011
1450.23,0.215018,618860,377202
1453.44,0.218240,617697,373711
1456.64,0.221542,616264,370020
1459.85,0.223809,614413,366988
1463.04,0.226054,612307,363844
1466.24,0.228957,610032,360077
1469.43,0.231868,607345,356096
1473.67,0.236616,603789,350162
1476.85,0.241376,601175,344846
1480.02,0.245958,597737,339275
1483.19,0.251724,594479,332976
1486.36,0.257505,591232,326778
1489.52,0.262197,587853,321419
1492.68,0.266333,583875,316218
1496.89,0.268786,578062,311307
1500.03,0.269987,574159,308351
1503.18,0.269949,570285,306297
1506.32,0.269095,565444,304295
1509.45,0.268294,560571,302229
1512.58,0.267115,555821,300483
1515.71,0.264831,550344,299091
1519.87,0.261614,543983,297832
1522.99,0.259025,538764,296738
1526.1,0.255956,533692,296029
1529.21,0.253412,527902,294538
1532.32,0.250110,521886,293404
1535.42,0.246724,515888,292302
1538.51,0.243219,509987,291300
1541.6,0.240847,503936,289420
1545.72,0.235617,494694,287554
1548.8,0.231997,488378,286259
1551.88,0.229694,481832,283924
1554.95,0.226553,474989,281923
1558.02,0.225311,467818,278462
1561.08,0.222893,460730,275774
1564.15,0.222290,454170,272225
1568.22,0.221280,444181,266858
1571.27,0.220539,436947,262960
1574.32,0.219099,429598,259396
1577.36,0.217965,422039,255498
1580.4,0.216098,414375,251939
1583.43,0.213854,406354,248342
1586.46,0.212503,398475,244286
1590.49,0.209653,388982,240036
1593.51,0.207750,380708,235962
1596.53,0.204596,372727,232699
1599.54,0.203296,365060,228596
1602.55,0.200617,357543,225274
1605.55,0.198118,349495,221474
1608.55,0.195154,341154,217669
1612.54,0.193677,330877,211831
1615.53,0.190593,322904,208200
1618.51,0.188368,315116,204222
1621.49,0.187692,307217,199413
1624.47,0.185996,299481,195152
1627.44,0.185208,292112,190696
1630.41,0.182995,284245,186508
1634.36,0.181967,274079,180264
1637.32,0.180559,266916,176123
1640.27,0.178935,259612,171945
1643.22,0.177564,251804,167301
1646.16,0.177252,244348,162464
1649.1,0.176014,236703,157830
1652.04,0.175227,228171,152417
1655.95,0.174942,215408,143986
1658.88,0.172683,204937,137701
1661.8,0.172458,193395,130013
1664.72,0.171780,179728,121014
1667.63,0.166748,163642,111467
1670.54,0.163023,146312,100521
1673.44,0.160765,128451,88710
1677.31,0.157543,105080,73110
1680.21,0.157395,88906,61878
1683.1,0.162619,75033,51598
1685.99,0.170241,63520,42921
1688.87,0.173399,53714,36032
1691.75,0.176010,45653,30441
1694.62,0.177330,39137,26017
1697.49,0.181259,33776,22251
1701.31,0.189173,28175,18226

File: Column 1_050533_20150331_115156.csv
Method:,Column 1,,
Host Date-Time:,31/3/15 @ 11:51:56,,
Header Version:,1,,
System Temp (C):,30.83,,
Detector Temp (C):,30.69,,
Humidity (%):,4.39,,
Lamp PD:,3829,,
Shift Vector Coefficients:,-10.5391,0.0761263,-0.000134223,,
Pixel to Wavelength Coefficients:,1775.68,-0.916766,-0.000235065,,
Serial Number:,5510004,,
Scan Config Name:,Column 1,,
Scan Config Type:,Slew,,
Section 1,,
Start wavelength (nm):,900,,
End wavelength (nm):,1700,,
Pattern Pixel Width (nm):,   7.03,,,,
Exposure (ms):,  0.635,,,,
Digital Resolution:,228,,
Num Repeats:,6,,
PGA Gain:,64,,
Total Measurement Time in sec:,  2.692,,
Wavelength (nm),Absorbance (AU),Reference Signal (unitless),Sample Signal (unitless)
901.51,0.043634,108485,98115
905.376,0.048252,121306,108550
909.237,0.048341,131909,118014
913.095,0.050866,143299,127461
916.948,0.050187,156982,139850
922.079,0.050070,179937,160343
925.923,0.051011,200504,178284
929.762,0.051706,222660,197668
933.597,0.052467,244426,216611
937.427,0.051719,263972,234336
941.254,0.052816,281845,249571
945.076,0.052497,297271,263424
950.165,0.053208,315605,279213
953.978,0.052934,328029,290388
957.786,0.053214,340470,301207
961.59,0.053953,352317,311158
965.389,0.054236,363056,320433
969.185,0.054572,373162,329098
972.976,0.055142,382632,337007
976.763,0.056589,391202,343409
981.806,0.056289,400190,351542
985.583,0.057218,406088,355961
989.355,0.057891,410162,358975
993.124,0.058677,412868,360690
996.888,0.059187,414263,361484
1000.65,0.059679,415476,362132
1004.4,0.060859,415479,361152
1009.41,0.062867,414358,358516
1013.15,0.062217,412923,357810
1016.89,0.063516,411526,355534
1020.63,0.063446,409066,353466
1024.36,0.063586,406777,351375
1028.09,0.062736,404427,350029
1031.82,0.062722,401911,347863
1036.78,0.062164,398410,345276
1040.49,0.061271,396204,344071
1044.2,0.060955,394236,342611
1047.91,0.059782,392042,341626
1051.61,0.059438,389823,339961
1055.31,0.058907,388234,338990
1059,0.057932,387599,339196
1063.92,0.056093,386688,339835
1067.61,0.055922,386598,339889
1071.29,0.055200,387377,341141
1074.96,0.054885,388536,342410
1078.63,0.054240,389855,344083
1082.3,0.052976,391215,346290
1085.96,0.052396,393215,348525
1090.84,0.051868,396270,351660
1094.49,0.051274,398760,354354
1098.14,0.051071,400987,356500
1101.79,0.050863,403477,358885
1105.43,0.051080,406116,361052
1109.06,0.049688,407701,363625
1112.7,0.050127,409859,365180
1117.53,0.050223,412494,367447
1121.15,0.050967,414909,368966
1124.77,0.051429,416559,370039
1128.38,0.053363,418532,370140
1131.99,0.054793,419956,370178
1135.6,0.057269,421946,369818
1139.2,0.058830,423881,370181
1143.99,0.061987,426786,370018
1147.58,0.063090,428617,370663
1151.17,0.064423,431169,371727
1154.75,0.066635,433579,371906
1158.33,0.068287,436264,372788
1161.91,0.070223,439132,373570
1165.48,0.073338,442389,373651
1169.04,0.076114,446101,374386
1173.79,0.080625,451929,375358
1177.34,0.082937,456026,376749
1180.9,0.086066,461306,378376
1184.44,0.087852,467657,382011
1187.99,0.088296,473969,386771
1191.52,0.087993,479856,391848
1195.06,0.087650,487372,398300
1199.76,0.086400,497347,407624
1203.29,0.084311,504311,415324
1206.81,0.083510,511507,422028
1210.33,0.082203,519078,429566
1213.84,0.081012,527163,437455
1217.35,0.080240,534208,444089
1220.85,0.079186,540472,450388
1225.51,0.077525,549929,460025
1229.01,0.077489,556888,465885
1232.5,0.076356,562180,471541
1235.98,0.075657,567975,477169
1239.46,0.074180,574815,484561
1242.94,0.072984,582782,492631
1246.41,0.072398,591476,500656
1251.03,0.072057,604016,511672
1254.5,0.071939,612289,518821
1257.96,0.072247,619125,524242
1261.41,0.072721,624551,528259
1264.86,0.073035,629900,532398
1268.31,0.073966,634345,535007
1271.75,0.074590,638574,537800
1276.33,0.074833,642499,540803
1279.76,0.074964,645905,543507
1283.19,0.074427,648307,546202
1286.61,0.074423,650446,548010
1290.03,0.073682,652132,550369
1293.44,0.073133,653907,552564
1296.85,0.073272,655963,554124
1301.39,0.072972,657349,555679
1304.8,0.072913,657558,555931
1308.19,0.073286,658515,556262
1311.58,0.073398,658804,556363
1314.97,0.074182,659011,555534
1318.36,0.074762,658272,554170
1321.73,0.075020,658022,553631
1326.23,0.076433,657870,551705
1329.6,0.077004,656482,549818
1332.97,0.078478,654926,546656
1336.33,0.080331,653727,543332
1339.69,0.082096,652497,540110
1343.04,0.083745,649913,535933
1346.39,0.086312,647671,530936
1349.73,0.088687,645338,526139
1354.18,0.092624,641175,518027
1357.52,0.094942,638376,513020
1360.85,0.097246,635805,508251
1364.17,0.099631,633413,503565
1367.49,0.102750,631026,498078
1370.81,0.105258,628050,492874
1374.12,0.107943,625034,487484
1378.54,0.112368,620272,478866
1381.84,0.116469,616892,471781
1385.14,0.120394,613613,465051
1388.43,0.126682,611526,456807
1391.72,0.132342,610663,450256
1395.01,0.138892,610634,443495
1398.29,0.145330,611700,437732
1402.66,0.154262,614051,430470
1405.93,0.161892,616268,424500
1409.2,0.167855,617795,419749
1412.46,0.174880,618872,413734
1415.72,0.180062,619795,409436
1418.98,0.185196,620495,405081
1422.23,0.189808,621087,401185
1426.56,0.195177,621375,396439
1429.8,0.198151,621616,393887
1433.04,0.201476,622129,391205
1436.27,0.203933,621526,388621
1439.5,0.206053,621113,386472
1442.72,0.208923,620921,383807
1445.94,0.211986,620270,380710
1450.23,0.215416,618860,376857
1453.44,0.217564,617697,374293
1456.64,0.220845,616264,370614
1459.85,0.223648,614413,367124
1463.04,0.225844,612307,364020
1466.24,0.229135,610032,359930
1469.43,0.232153,607345,355863
1473.67,0.236516,603789,350243
1476.85,0.240993,601175,345150
1480.02,0.246687,597737,338706
1483.19,0.252363,594479,332486
1486.36,0.257596,591232,326710
1489.52,0.263244,587853,320645
1492.68,0.265710,583875,316672
1496.89,0.268321,578062,311640
1500.03,0.269583,574159,308638
1503.18,0.270219,570285,306107
1506.32,0.269453,565444,304044
1509.45,0.267993,560571,302439
1512.58,0.267273,555821,300374
1515.71,0.264692,550344,299187
1519.87,0.261687,543983,297782
1522.99,0.259459,538764,296442
1526.1,0.256250,533692,295829
1529.21,0.253352,527902,294579
1532.32,0.250434,521886,293185
1535.42,0.246893,515888,292188
1538.51,0.244382,509987,290521
1541.6,0.240617,503936,289573
1545.72,0.235604,494694,287563
1548.8,0.232572,488378,285880
1551.88,0.229435,481832,284093
1554.95,0.226755,474989,281792
1558.02,0.224924,467818,278710
1561.08,0.223076,460730,275658
1564.15,0.222498,454170,272095
1568.22,0.221508,444181,266718
1571.27,0.220903,436947,262740
1574.32,0.219535,429598,259136
1577.36,0.218196,422039,255362
1580.4,0.216479,414375,251718
1583.43,0.214733,406354,247840
1586.46,0.212657,398475,244199
1590.49,0.209747,388982,239984
1593.51,0.207174,380708,236275
1596.53,0.204453,372727,232776
1599.54,0.202599,365060,228963
1602.55,0.200885,357543,225135
1605.55,0.197910,349495,221580
1608.55,0.195226,341154,217633
1612.54,0.193259,330877,212035
1615.53,0.190868,322904,208068
1618.51,0.189880,315116,203512
1621.49,0.186726,307217,199857
1624.47,0.185987,299481,195156
1627.44,0.184155,292112,191159
1630.41,0.183646,284245,186229
1634.36,0.181979,274079,180259
1637.32,0.181020,266916,175936
1640.27,0.180687,259612,171253
1643.22,0.177743,251804,167232
1646.16,0.177474,244348,162381
1649.1,0.177345,236703,157347
1652.04,0.176280,228171,152048
1655.95,0.174628,215408,144090
1658.88,0.173463,204937,137454
1661.8,0.172829,193395,129902
1664.72,0.173326,179728,120584
1667.63,0.167892,163642,111174
1670.54,0.163784,146312,100345
1673.44,0.161147,128451,88632
1677.31,0.159198,105080,72832
1680.21,0.159428,88906,61589
1683.1,0.159951,75033,51916
1685.99,0.173246,63520,42625
1688.87,0.174292,53714,35958
1691.75,0.184220,45653,29871
1694.62,0.182671,39137,25699
1697.49,0.182882,33776,22168
1701.31,0.200837,28175,17743