Folder: textile_sorting_NIRSCAN_/samples/wool/wool-000811 (part 78)

File: Column 1_050573_20150331_121038.csv
Method:,Column 1,,
Host Date-Time:,31/3/15 @ 12:10:38,,
Header Version:,1,,
System Temp (C):,34.16,,
Detector Temp (C):,34.28,,
Humidity (%):,1.76,,
Lamp PD:,3818,,
Shift Vector Coefficients:,-10.5391,0.0761263,-0.000134223,,
Pixel to Wavelength Coefficients:,1775.68,-0.916766,-0.000235065,,
Serial Number:,5510004,,
Scan Config Name:,Column 1,,
Scan Config Type:,Slew,,
Section 1,,
Start wavelength (nm):,900,,
End wavelength (nm):,1700,,
Pattern Pixel Width (nm):,   7.03,,,,
Exposure (ms):,  0.635,,,,
Digital Resolution:,228,,
Num Repeats:,6,,
PGA Gain:,64,,
Total Measurement Time in sec:,  2.681,,
Wavelength (nm),Absorbance (AU),Reference Signal (unitless),Sample Signal (unitless)
901.51,0.034420,108485,100219
905.376,0.041488,121306,110254
909.237,0.042699,131909,119557
913.095,0.043564,143299,129622
916.948,0.045686,156982,141307
922.079,0.047769,179937,161195
925.923,0.047338,200504,179798
929.762,0.049479,222660,198684
933.597,0.049092,244426,218301
937.427,0.048120,263972,236286
941.254,0.047300,281845,252761
945.076,0.047684,297271,266360
950.165,0.046965,315605,283256
953.978,0.046182,328029,294938
957.786,0.046389,340470,305978
961.59,0.046855,352317,316285
965.389,0.047092,363056,325748
969.185,0.046597,373162,335197
972.976,0.047400,382632,343069
976.763,0.047924,391202,350330
981.806,0.048598,400190,357823
985.583,0.049358,406088,362462
989.355,0.049567,410162,365922
993.124,0.050113,412868,367873
996.888,0.050530,414263,368762
1000.65,0.051695,415476,368851
1004.4,0.052985,415479,367760
1009.41,0.054140,414358,365793
1013.15,0.054421,412923,364291
1016.89,0.054774,411526,362763
1020.63,0.054982,409066,360422
1024.36,0.055026,406777,358369
1028.09,0.054704,404427,356563
1031.82,0.054047,401911,354881
1036.78,0.053841,398410,351957
1040.49,0.053171,396204,350548
1044.2,0.052977,394236,348963
1047.91,0.052644,392042,347287
1051.61,0.052582,389823,345371
1055.31,0.052235,388234,344238
1059,0.051241,387599,344462
1063.92,0.049798,386688,344796
1067.61,0.049268,386598,345137
1071.29,0.048774,387377,346226
1074.96,0.048249,388536,347682
1078.63,0.047959,389855,349095
1082.3,0.047241,391215,350893
1085.96,0.045908,393215,353771
1090.84,0.045576,396270,356792
1094.49,0.045340,398760,359229
1098.14,0.044592,400987,361858
1101.79,0.044565,403477,364128
1105.43,0.044330,406116,366708
1109.06,0.044257,407701,368201
1112.7,0.043829,409859,370515
1117.53,0.043812,412494,372911
1121.15,0.045020,414909,374053
1124.77,0.045483,416559,375140
1128.38,0.047090,418532,375525
1131.99,0.047903,419956,376098
1135.6,0.049575,421946,376428
1139.2,0.051384,423881,376582
1143.99,0.054076,426786,376820
1147.58,0.054953,428617,377673
1151.17,0.055974,431169,379030
1154.75,0.056872,433579,380361
1158.33,0.058454,436264,381325
1161.91,0.060802,439132,381762
1165.48,0.063588,442389,382135
1169.04,0.065874,446101,383318
1173.79,0.069915,451929,384729
1177.34,0.072283,456026,386106
1180.9,0.074289,461306,388777
1184.44,0.075851,467657,392714
1187.99,0.077263,473969,396723
1191.52,0.076770,479856,402106
1195.06,0.076630,487372,408536
1199.76,0.075373,497347,418106
1203.29,0.074630,504311,424686
1206.81,0.074082,511507,431290
1210.33,0.073546,519078,438214
1213.84,0.072529,527163,446083
1217.35,0.071666,534208,452944
1220.85,0.071054,540472,458901
1225.51,0.069948,549929,468121
1229.01,0.069233,556888,474826
1232.5,0.068583,562180,480056
1235.98,0.068414,567975,485194
1239.46,0.067362,574815,492228
1242.94,0.066239,582782,500342
1246.41,0.065791,591476,508331
1251.03,0.065833,604016,519058
1254.5,0.065548,612289,526512
1257.96,0.066217,619125,531571
1261.41,0.066697,624551,535638
1264.86,0.066994,629900,539856
1268.31,0.067959,634345,542458
1271.75,0.068624,638574,545239
1276.33,0.068945,642499,548186
1279.76,0.068718,645905,551379
1283.19,0.068262,648307,554011
1286.61,0.068090,650446,556059
1290.03,0.067424,652132,558357
1293.44,0.066929,653907,560515
1296.85,0.066704,655963,562569
1301.39,0.066723,657349,563732
1304.8,0.066499,657558,564202
1308.19,0.066636,658515,564845
1311.58,0.066925,658804,564717
1314.97,0.067955,659011,563557
1318.36,0.067543,658272,563459
1321.73,0.068044,658022,562596
1326.23,0.069342,657870,560787
1329.6,0.069889,656482,558899
1332.97,0.070662,654926,556583
1336.33,0.071938,653727,553935
1339.69,0.073738,652497,550605
1343.04,0.075530,649913,546167
1346.39,0.077514,647671,541802
1349.73,0.079727,645338,537106
1354.18,0.082781,641175,529902
1357.52,0.085336,638376,524494
1360.85,0.087695,635805,519552
1364.17,0.089897,633413,514980
1367.49,0.092143,631026,510392
1370.81,0.094377,628050,505379
1374.12,0.096925,625034,500010
1378.54,0.099993,620272,492707
1381.84,0.103438,616892,486151
1385.14,0.107354,613613,479226
1388.43,0.111018,611526,473584
1391.72,0.116067,610663,467449
1395.01,0.120817,610634,462343
1398.29,0.126027,611700,457627
1402.66,0.132671,614051,452411
1405.93,0.138560,616268,447929
1409.2,0.143279,617795,444187
1412.46,0.148799,618872,439341
1415.72,0.152811,619795,435950
1418.98,0.157211,620495,432043
1422.23,0.160662,621087,429033
1426.56,0.164435,621375,425519
1429.8,0.168101,621616,422106
1433.04,0.169847,622129,420759
1436.27,0.172448,621526,417841
1439.5,0.174129,621113,415950
1442.72,0.177265,620921,412830
1445.94,0.179517,620270,410264
1450.23,0.183593,618860,405508
1453.44,0.186430,617697,402111
1456.64,0.189975,616264,397916
1459.85,0.192476,614413,394443
1463.04,0.195006,612307,390808
1466.24,0.199055,610032,385743
1469.43,0.202887,607345,380670
1473.67,0.209186,603789,372992
1476.85,0.214602,601175,366774
1480.02,0.221721,597737,358748
1483.19,0.228238,594479,351478
1486.36,0.234320,591232,344697
1489.52,0.239801,587853,338429
1492.68,0.244091,583875,332835
1496.89,0.246277,578062,327867
1500.03,0.246747,574159,325301
1503.18,0.246122,570285,323571
1506.32,0.245540,565444,321255
1509.45,0.244588,560571,319185
1512.58,0.242837,555821,317759
1515.71,0.240785,550344,316118
1519.87,0.237193,543983,315059
1522.99,0.234714,538764,313823
1526.1,0.231601,533692,313105
1529.21,0.228957,527902,311599
1532.32,0.225665,521886,310392
1535.42,0.222396,515888,309143
1538.51,0.219217,509987,307852
1541.6,0.216499,503936,306109
1545.72,0.211940,494694,303666
1548.8,0.208184,488378,302393
1551.88,0.205947,481832,299881
1554.95,0.203608,474989,297218
1558.02,0.202947,467818,293177
1561.08,0.201013,460730,290024
1564.15,0.200294,454170,286368
1568.22,0.198145,444181,281459
1571.27,0.198438,436947,276688
1574.32,0.196906,429598,272996
1577.36,0.195949,422039,268784
1580.4,0.195094,414375,264423
1583.43,0.193165,406354,260459
1586.46,0.191271,398475,256525
1590.49,0.188381,388982,252086
1593.51,0.186540,380708,247772
1596.53,0.183601,372727,244225
1599.54,0.182301,365060,239918
1602.55,0.179758,357543,236358
1605.55,0.177919,349495,232018
1608.55,0.175826,341154,227575
1612.54,0.172999,330877,222161
1615.53,0.171458,322904,217578
1618.51,0.170519,315116,212790
1621.49,0.169403,307217,207990
1624.47,0.167289,299481,203742
1627.44,0.166509,292112,199086
1630.41,0.164883,284245,194451
1634.36,0.163411,274079,188133
1637.32,0.163037,266916,183374
1640.27,0.161938,259612,178808
1643.22,0.161733,251804,173512
1646.16,0.160572,244348,168825
1649.1,0.158373,236703,164373
1652.04,0.158004,228171,158583
1655.95,0.155431,215408,150602
1658.88,0.152002,204937,144417
1661.8,0.146736,193395,137946
1664.72,0.139908,179728,130229
1667.63,0.128765,163642,121655
1670.54,0.116333,146312,111930
1673.44,0.102687,128451,101403
1677.31,0.084569,105080,86487
1680.21,0.074409,88906,74907
1683.1,0.073293,75033,63381
1685.99,0.077113,63520,53186
1688.87,0.074440,53714,45253
1691.75,0.086052,45653,37447
1694.62,0.081453,39137,32444
1697.49,0.091969,33776,27330
1701.31,0.098996,28175,22432

File: Column 1_050573_20150331_121040.csv
Method:,Column 1,,
Host Date-Time:,31/3/15 @ 12:10:40,,
Header Version:,1,,
System Temp (C):,34.16,,
Detector Temp (C):,34.33,,
Humidity (%):,1.76,,
Lamp PD:,3818,,
Shift Vector Coefficients:,-10.5391,0.0761263,-0.000134223,,
Pixel to Wavelength Coefficients:,1775.68,-0.916766,-0.000235065,,
Serial Number:,5510004,,
Scan Config Name:,Column 1,,
Scan Config Type:,Slew,,
Section 1,,
Start wavelength (nm):,900,,
End wavelength (nm):,1700,,
Pattern Pixel Width (nm):,   7.03,,,,
Exposure (ms):,  0.635,,,,
Digital Resolution:,228,,
Num Repeats:,6,,
PGA Gain:,64,,
Total Measurement Time in sec:,  2.728,,
Wavelength (nm),Absorbance (AU),Reference Signal (unitless),Sample Signal (unitless)
901.51,0.035048,108485,100074
905.376,0.040445,121306,110519
909.237,0.044735,131909,118998
913.095,0.043246,143299,129717
916.948,0.045963,156982,141217
922.079,0.048462,179937,160938
925.923,0.049132,200504,179057
929.762,0.050407,222660,198260
933.597,0.049645,244426,218023
937.427,0.049080,263972,235764
941.254,0.048375,281845,252136
945.076,0.047783,297271,266299
950.165,0.047407,315605,282968
953.978,0.047274,328029,294197
957.786,0.046678,340470,305774
961.59,0.047626,352317,315724
965.389,0.047351,363056,325554
969.185,0.046692,373162,335124
972.976,0.047661,382632,342863
976.763,0.048164,391202,350136
981.806,0.049130,400190,357385
985.583,0.049412,406088,362417
989.355,0.049652,410162,365850
993.124,0.050143,412868,367848
996.888,0.051073,414263,368301
1000.65,0.052151,415476,368464
1004.4,0.052697,415479,368004
1009.41,0.054668,414358,365349
1013.15,0.054831,412923,363947
1016.89,0.055293,411526,362330
1020.63,0.055163,409066,360272
1024.36,0.054967,406777,358418
1028.09,0.054984,404427,356333
1031.82,0.054868,401911,354211
1036.78,0.054242,398410,351632
1040.49,0.053758,396204,350075
1044.2,0.053354,394236,348660
1047.91,0.053459,392042,346636
1051.61,0.052598,389823,345358
1055.31,0.052481,388234,344043
1059,0.051944,387599,343905
1063.92,0.050574,386688,344181
1067.61,0.049230,386598,345167
1071.29,0.049082,387377,345981
1074.96,0.048536,388536,347452
1078.63,0.048374,389855,348762
1082.3,0.047445,391215,350728
1085.96,0.046752,393215,353084
1090.84,0.045648,396270,356733
1094.49,0.045895,398760,358770
1098.14,0.045414,400987,361174
1101.79,0.044927,403477,363824
1105.43,0.044384,406116,366662
1109.06,0.044045,407701,368381
1112.7,0.044212,409859,370188
1117.53,0.044090,412494,372673
1121.15,0.045626,414909,373531
1124.77,0.045367,416559,375240
1128.38,0.047187,418532,375441
1131.99,0.047770,419956,376213
1135.6,0.050056,421946,376011
1139.2,0.052328,423881,375765
1143.99,0.054344,426786,376588
1147.58,0.055292,428617,377379
1151.17,0.056219,431169,378816
1154.75,0.057784,433579,379563
1158.33,0.058686,436264,381121
1161.91,0.061731,439132,380947
1165.48,0.063552,442389,382166
1169.04,0.066399,446101,382855
1173.79,0.070064,451929,384597
1177.34,0.072765,456026,385678
1180.9,0.074792,461306,388327
1184.44,0.076523,467657,392107
1187.99,0.077852,473969,396185
1191.52,0.077263,479856,401650
1195.06,0.076713,487372,408458
1199.76,0.076427,497347,417093
1203.29,0.075103,504311,424224
1206.81,0.074321,511507,431053
1210.33,0.073517,519078,438244
1213.84,0.072732,527163,445875
1217.35,0.072436,534208,452141
1220.85,0.071583,540472,458343
1225.51,0.070624,549929,467393
1229.01,0.069663,556888,474357
1232.5,0.068939,562180,479663
1235.98,0.068733,567975,484838
1239.46,0.067089,574815,492537
1242.94,0.066613,582782,499912
1246.41,0.066248,591476,507796
1251.03,0.065410,604016,519563
1254.5,0.065835,612289,526165
1257.96,0.066325,619125,531439
1261.41,0.066812,624551,535495
1264.86,0.067506,629900,539220
1268.31,0.067979,634345,542434
1271.75,0.068890,638574,544905
1276.33,0.069045,642499,548059
1279.76,0.068828,645905,551240
1283.19,0.068509,648307,553696
1286.61,0.068077,650446,556076
1290.03,0.067690,652132,558015
1293.44,0.067403,653907,559903
1296.85,0.067063,655963,562103
1301.39,0.066764,657349,563679
1304.8,0.066858,657558,563737
1308.19,0.067271,658515,564020
1311.58,0.067573,658804,563876
1314.97,0.067570,659011,564057
1318.36,0.068074,658272,562770
1321.73,0.068347,658022,562203
1326.23,0.069248,657870,560909
1329.6,0.070239,656482,558449
1332.97,0.070929,654926,556241
1336.33,0.072328,653727,553437
1339.69,0.073775,652497,550558
1343.04,0.075946,649913,545644
1346.39,0.077938,647671,541273
1349.73,0.079955,645338,536825
1354.18,0.083176,641175,529420
1357.52,0.085445,638376,524362
1360.85,0.087507,635805,519777
1364.17,0.090134,633413,514699
1367.49,0.092629,631026,509822
1370.81,0.094480,628050,505259
1374.12,0.097261,625034,499623
1378.54,0.100433,620272,492209
1381.84,0.104054,616892,485462
1385.14,0.107715,613613,478828
1388.43,0.111721,611526,472818
1391.72,0.116370,610663,467123
1395.01,0.121292,610634,461837
1398.29,0.126779,611700,456835
1402.66,0.133060,614051,452006
1405.93,0.138691,616268,447794
1409.2,0.143674,617795,443783
1412.46,0.148559,618872,439584
1415.72,0.153190,619795,435570
1418.98,0.157169,620495,432085
1422.23,0.160942,621087,428756
1426.56,0.164870,621375,425093
1429.8,0.167629,621616,422565
1433.04,0.170901,622129,419739
1436.27,0.173016,621526,417295
1439.5,0.174865,621113,415246
1442.72,0.177713,620921,412404
1445.94,0.179954,620270,409852
1450.23,0.184277,618860,404870
1453.44,0.186444,617697,402098
1456.64,0.189442,616264,398405
1459.85,0.192867,614413,394088
1463.04,0.195650,612307,390229
1466.24,0.199046,610032,385751
1469.43,0.203197,607345,380398
1473.67,0.209013,603789,373140
1476.85,0.215031,601175,366412
1480.02,0.221314,597737,359084
1483.19,0.228462,594479,351297
1486.36,0.234950,591232,344198
1489.52,0.240167,587853,338144
1492.68,0.243693,583875,333140
1496.89,0.246338,578062,327821
1500.03,0.247198,574159,324963
1503.18,0.246963,570285,322945
1506.32,0.246850,565444,320287
1509.45,0.244912,560571,318947
1512.58,0.243112,555821,317558
1515.71,0.241270,550344,315765
1519.87,0.237918,543983,314534
1522.99,0.235208,538764,313466
1526.1,0.232794,533692,312246
1529.21,0.228936,527902,311614
1532.32,0.226093,521886,310086
1535.42,0.223593,515888,308292
1538.51,0.220375,509987,307032
1541.6,0.216373,503936,306198
1545.72,0.212184,494694,303496
1548.8,0.208170,488378,302403
1551.88,0.206383,481832,299580
1554.95,0.204247,474989,296781
1558.02,0.202099,467818,293750
1561.08,0.201711,460730,289558
1564.15,0.200523,454170,286217
1568.22,0.199782,444181,280400
1571.27,0.198958,436947,276357
1574.32,0.197673,429598,272514
1577.36,0.196641,422039,268356
1580.4,0.194717,414375,264653
1583.43,0.193382,406354,260329
1586.46,0.191106,398475,256623
1590.49,0.188991,388982,251732
1593.51,0.187967,380708,246959
1596.53,0.184956,372727,243464
1599.54,0.182830,365060,239626
1602.55,0.180773,357543,235806
1605.55,0.178288,349495,231821
1608.55,0.176525,341154,227209
1612.54,0.173558,330877,221875
1615.53,0.171257,322904,217679
1618.51,0.171083,315116,212514
1621.49,0.169756,307217,207821
1624.47,0.168632,299481,203113
1627.44,0.167373,292112,198690
1630.41,0.166041,284245,193933
1634.36,0.164974,274079,187457
1637.32,0.163734,266916,183080
1640.27,0.163254,259612,178267
1643.22,0.161533,251804,173592
1646.16,0.161620,244348,168418
1649.1,0.160532,236703,163558
1652.04,0.157790,228171,158661
1655.95,0.155699,215408,150509
1658.88,0.153484,204937,143925
1661.8,0.148373,193395,137427
1664.72,0.141401,179728,129782
1667.63,0.130338,163642,121215
1670.54,0.116601,146312,111861
1673.44,0.102631,128451,101416
1677.31,0.085067,105080,86388
1680.21,0.077732,88906,74336
1683.1,0.071352,75033,63665
1685.99,0.077089,63520,53189
1688.87,0.078819,53714,44799
1691.75,0.088378,45653,37247
1694.62,0.092612,39137,31621
1697.49,0.094918,33776,27145
1701.31,0.109420,28175,21900

File: Column 1_050573_20150331_121049.csv
Method:,Column 1,,
Host Date-Time:,31/3/15 @ 12:10:49,,
Header Version:,1,,
System Temp (C):,34.16,,
Detector Temp (C):,34.28,,
Humidity (%):,1.76,,
Lamp PD:,3818,,
Shift Vector Coefficients:,-10.5391,0.0761263,-0.000134223,,
Pixel to Wavelength Coefficients:,1775.68,-0.916766,-0.000235065,,
Serial Number:,5510004,,
Scan Config Name:,Column 1,,
Scan Config Type:,Slew,,
Section 1,,
Start wavelength (nm):,900,,
End wavelength (nm):,1700,,
Pattern Pixel Width (nm):,   7.03,,,,
Exposure (ms):,  0.635,,,,
Digital Resolution:,228,,
Num Repeats:,6,,
PGA Gain:,64,,
Total Measurement Time in sec:,  2.721,,
Wavelength (nm),Absorbance (AU),Reference Signal (unitless),Sample Signal (unitless)
901.51,0.034346,108485,100236
905.376,0.040202,121306,110581
909.237,0.042482,131909,119617
913.095,0.044178,143299,129439
916.948,0.044738,156982,141616
922.079,0.047125,179937,161434
925.923,0.048497,200504,179319
929.762,0.049484,222660,198682
933.597,0.049538,244426,218077
937.427,0.049161,263972,235720
941.254,0.048465,281845,252084
945.076,0.047209,297271,266651
950.165,0.046585,315605,283504
953.978,0.046625,328029,294637
957.786,0.047046,340470,305515
961.59,0.046774,352317,316344
965.389,0.046960,363056,325847
969.185,0.047222,373162,334715
972.976,0.047452,382632,343028
976.763,0.047913,391202,350339
981.806,0.048155,400190,358188
985.583,0.049427,406088,362404
989.355,0.049535,410162,365949
993.124,0.050527,412868,367523
996.888,0.050892,414263,368455
1000.65,0.051941,415476,368642
1004.4,0.052672,415479,368025
1009.41,0.053687,414358,366175
1013.15,0.054454,412923,364263
1016.89,0.055126,411526,362469
1020.63,0.054555,409066,360777
1024.36,0.055146,406777,358270
1028.09,0.054350,404427,356854
1031.82,0.054212,401911,354746
1036.78,0.053772,398410,352013
1040.49,0.053434,396204,350336
1044.2,0.053804,394236,348299
1047.91,0.053226,392042,346822
1051.61,0.052045,389823,345798
1055.31,0.052406,388234,344102
1059,0.051877,387599,343958
1063.92,0.050343,386688,344364
1067.61,0.049242,386598,345158
1071.29,0.049136,387377,345938
1074.96,0.048681,388536,347336
1078.63,0.048371,389855,348764
1082.3,0.046648,391215,351372
1085.96,0.046726,393215,353105
1090.84,0.045767,396270,356635
1094.49,0.045743,398760,358896
1098.14,0.045446,400987,361147
1101.79,0.044674,403477,364036
1105.43,0.044640,406116,366446
1109.06,0.044433,407701,368052
1112.7,0.044060,409859,370318
1117.53,0.044525,412494,372300
1121.15,0.045208,414909,373891
1124.77,0.045122,416559,375452
1128.38,0.046597,418532,375951
1131.99,0.048061,419956,375961
1135.6,0.049783,421946,376248
1139.2,0.051814,423881,376210
1143.99,0.053846,426786,377020
1147.58,0.054788,428617,377817
1151.17,0.056034,431169,378978
1154.75,0.056781,433579,380441
1158.33,0.059091,436264,380766
1161.91,0.060917,439132,381661
1165.48,0.063719,442389,382019
1169.04,0.066101,446101,383118
1173.79,0.069721,451929,384901
1177.34,0.072109,456026,386261
1180.9,0.074382,461306,388693
1184.44,0.076392,467657,392225
1187.99,0.077312,473969,396678
1191.52,0.077021,479856,401874
1195.06,0.076801,487372,408375
1199.76,0.075503,497347,417981
1203.29,0.074967,504311,424357
1206.81,0.074133,511507,431240
1210.33,0.073421,519078,438341
1213.84,0.073137,527163,445459
1217.35,0.071969,534208,452628
1220.85,0.071361,540472,458577
1225.51,0.069741,549929,468345
1229.01,0.069549,556888,474481
1232.5,0.068966,562180,479633
1235.98,0.068599,567975,484987
1239.46,0.067482,574815,492092
1242.94,0.066295,582782,500278
1246.41,0.065750,591476,508378
1251.03,0.065520,604016,519432
1254.5,0.065812,612289,526192
1257.96,0.066393,619125,531356
1261.41,0.066655,624551,535689
1264.86,0.067811,629900,538841
1268.31,0.067819,634345,542634
1271.75,0.068930,638574,544855
1276.33,0.069067,642499,548031
1279.76,0.068842,645905,551222
1283.19,0.068240,648307,554039
1286.61,0.068024,650446,556144
1290.03,0.067832,652132,557832
1293.44,0.067093,653907,560303
1296.85,0.067014,655963,562167
1301.39,0.066679,657349,563790
1304.8,0.066376,657558,564363
1308.19,0.066869,658515,564542
1311.58,0.066780,658804,564906
1314.97,0.067672,659011,563924
1318.36,0.067948,658272,562934
1321.73,0.068047,658022,562592
1326.23,0.069142,657870,561046
1329.6,0.069927,656482,558851
1332.97,0.071434,654926,555595
1336.33,0.072371,653727,553383
1339.69,0.073775,652497,550559
1343.04,0.075278,649913,546484
1346.39,0.078203,647671,540943
1349.73,0.080001,645338,536768
1354.18,0.082981,641175,529658
1357.52,0.085027,638376,524867
1360.85,0.087698,635805,519548
1364.17,0.089919,633413,514954
1367.49,0.092274,631026,510239
1370.81,0.094554,628050,505173
1374.12,0.096794,625034,500161
1378.54,0.100566,620272,492058
1381.84,0.103510,616892,486070
1385.14,0.107394,613613,479182
1388.43,0.111363,611526,473208
1391.72,0.115907,610663,467622
1395.01,0.120660,610634,462510
1398.29,0.125735,611700,457935
1402.66,0.132386,614051,452708
1405.93,0.138861,616268,447619
1409.2,0.143686,617795,443770
1412.46,0.148454,618872,439690
1415.72,0.153080,619795,435680
1418.98,0.156979,620495,432274
1422.23,0.160717,621087,428978
1426.56,0.164884,621375,425079
1429.8,0.167503,621616,422687
1433.04,0.170384,622129,420239
1436.27,0.172543,621526,417750
1439.5,0.175211,621113,414915
1442.72,0.177410,620921,412692
1445.94,0.179877,620270,409924
1450.23,0.183403,618860,405685
1453.44,0.186201,617697,402323
1456.64,0.189389,616264,398454
1459.85,0.192758,614413,394187
1463.04,0.195448,612307,390410
1466.24,0.198849,610032,385926
1469.43,0.202997,607345,380573
1473.67,0.209277,603789,372914
1476.85,0.215200,601175,366270
1480.02,0.220763,597737,359540
1483.19,0.228499,594479,351267
1486.36,0.234957,591232,344192
1489.52,0.239833,587853,338404
1492.68,0.243027,583875,333651
1496.89,0.245442,578062,328498
1500.03,0.246597,574159,325413
1503.18,0.246173,570285,323533
1506.32,0.246636,565444,320445
1509.45,0.244821,560571,319014
1512.58,0.242804,555821,317783
1515.71,0.241085,550344,315900
1519.87,0.237083,543983,315139
1522.99,0.234456,538764,314009
1526.1,0.231774,533692,312980
1529.21,0.229014,527902,311558
1532.32,0.225979,521886,310168
1535.42,0.223186,515888,308581
1538.51,0.219214,509987,307854
1541.6,0.216621,503936,306023
1545.72,0.211483,494694,303986
1548.8,0.208549,488378,302139
1551.88,0.205960,481832,299872
1554.95,0.203522,474989,297277
1558.02,0.201696,467818,294023
1561.08,0.201216,460730,289888
1564.15,0.201038,454170,285878
1568.22,0.198622,444181,281150
1571.27,0.198457,436947,276676
1574.32,0.196976,429598,272952
1577.36,0.196431,422039,268486
1580.4,0.194681,414375,264675
1583.43,0.193230,406354,260420
1586.46,0.191031,398475,256667
1590.49,0.188819,388982,251832
1593.51,0.186205,380708,247963
1596.53,0.184206,372727,243885
1599.54,0.182247,365060,239948
1602.55,0.180333,357543,236045
1605.55,0.178155,349495,231892
1608.55,0.175530,341154,227730
1612.54,0.172991,330877,222165
1615.53,0.172506,322904,217054
1618.51,0.170989,315116,212560
1621.49,0.169376,307217,208003
1624.47,0.167882,299481,203464
1627.44,0.167131,292112,198801
1630.41,0.165873,284245,194008
1634.36,0.163556,274079,188070
1637.32,0.163122,266916,183338
1640.27,0.162193,259612,178703
1643.22,0.162989,251804,173011
1646.16,0.160708,244348,168772
1649.1,0.160272,236703,163656
1652.04,0.158598,228171,158366
1655.95,0.155823,215408,150466
1658.88,0.152562,204937,144231
1661.8,0.146607,193395,137987
1664.72,0.140960,179728,129914
1667.63,0.129408,163642,121475
1670.54,0.117308,146312,111679
1673.44,0.102160,128451,101526
1677.31,0.085927,105080,86217
1680.21,0.075965,88906,74639
1683.1,0.074233,75033,63244
1685.99,0.079521,63520,52892
1688.87,0.075670,53714,45125
1691.75,0.083924,45653,37631
1694.62,0.089478,39137,31850
1697.49,0.098178,33776,26942
1701.31,0.103628,28175,22194