Folder: textile_sorting_NIRSCAN_/samples/wool/wool-000811 (part 87)

File: Column 1_050578_20150331_121306.csv
Method:,Column 1,,
Host Date-Time:,31/3/15 @ 12:13:6,,
Header Version:,1,,
System Temp (C):,33.83,,
Detector Temp (C):,34.65,,
Humidity (%):,2.1,,
Lamp PD:,3819,,
Shift Vector Coefficients:,-10.5391,0.0761263,-0.000134223,,
Pixel to Wavelength Coefficients:,1775.68,-0.916766,-0.000235065,,
Serial Number:,5510004,,
Scan Config Name:,Column 1,,
Scan Config Type:,Slew,,
Section 1,,
Start wavelength (nm):,900,,
End wavelength (nm):,1700,,
Pattern Pixel Width (nm):,   7.03,,,,
Exposure (ms):,  0.635,,,,
Digital Resolution:,228,,
Num Repeats:,6,,
PGA Gain:,64,,
Total Measurement Time in sec:,  2.670,,
Wavelength (nm),Absorbance (AU),Reference Signal (unitless),Sample Signal (unitless)
901.51,0.072589,108485,91787
905.376,0.077746,121306,101423
909.237,0.078109,131909,110196
913.095,0.080135,143299,119154
916.948,0.081863,156982,130013
922.079,0.083324,179937,148524
925.923,0.083404,200504,165470
929.762,0.085222,222660,182987
933.597,0.084830,244426,201056
937.427,0.082908,263972,218097
941.254,0.082906,281845,232865
945.076,0.081820,297271,246225
950.165,0.081734,315605,261463
953.978,0.080283,328029,272665
957.786,0.080753,340470,282700
961.59,0.081135,352317,292280
965.389,0.081140,363056,301185
969.185,0.081623,373162,309225
972.976,0.081473,382632,317182
976.763,0.082482,391202,323533
981.806,0.082744,400190,330767
985.583,0.083080,406088,335382
989.355,0.083348,410162,338538
993.124,0.084102,412868,340180
996.888,0.084398,414263,341097
1000.65,0.085692,415476,341078
1004.4,0.086120,415479,340745
1009.41,0.087645,414358,338634
1013.15,0.087886,412923,337274
1016.89,0.088898,411526,335351
1020.63,0.088258,409066,333838
1024.36,0.088608,406777,331702
1028.09,0.088128,404427,330151
1031.82,0.088388,401911,327900
1036.78,0.087883,398410,325422
1040.49,0.088104,396204,323456
1044.2,0.087218,394236,322506
1047.91,0.087557,392042,320461
1051.61,0.086663,389823,319304
1055.31,0.086933,388234,317805
1059,0.086136,387599,317868
1063.92,0.085408,386688,317653
1067.61,0.084131,386598,318514
1071.29,0.084737,387377,318711
1074.96,0.083943,388536,320249
1078.63,0.083375,389855,321757
1082.3,0.082729,391215,323360
1085.96,0.081906,393215,325630
1090.84,0.080735,396270,329046
1094.49,0.080524,398760,331274
1098.14,0.080105,400987,333446
1101.79,0.079292,403477,336145
1105.43,0.079319,406116,338323
1109.06,0.078424,407701,340344
1112.7,0.078149,409859,342362
1117.53,0.076953,412494,345513
1121.15,0.078473,414909,346322
1124.77,0.078386,416559,347769
1128.38,0.079394,418532,348606
1131.99,0.080404,419956,348979
1135.6,0.082212,421946,349176
1139.2,0.083322,423881,349882
1143.99,0.085404,426786,350595
1147.58,0.086522,428617,351194
1151.17,0.088094,431169,352009
1154.75,0.088493,433579,353651
1158.33,0.090129,436264,354503
1161.91,0.091873,439132,355404
1165.48,0.093751,442389,356495
1169.04,0.095895,446101,357716
1173.79,0.099621,451929,359293
1177.34,0.101284,456026,361165
1180.9,0.103536,461306,363457
1184.44,0.105290,467657,366976
1187.99,0.106278,473969,371084
1191.52,0.106131,479856,375820
1195.06,0.105893,487372,381916
1199.76,0.105497,497347,390088
1203.29,0.104883,504311,396110
1206.81,0.104270,511507,402329
1210.33,0.103498,519078,409011
1213.84,0.103092,527163,415770
1217.35,0.103111,534208,421308
1220.85,0.101683,540472,427652
1225.51,0.100882,549929,435938
1229.01,0.100813,556888,441525
1232.5,0.100293,562180,446254
1235.98,0.099243,567975,451946
1239.46,0.098181,574815,458508
1242.94,0.097544,582782,465545
1246.41,0.096879,591476,473215
1251.03,0.096823,604016,483310
1254.5,0.096789,612289,489968
1257.96,0.097265,619125,494895
1261.41,0.097939,624551,498458
1264.86,0.098487,629900,502094
1268.31,0.098751,634345,505329
1271.75,0.099728,638574,507555
1276.33,0.099753,642499,510645
1279.76,0.099434,645905,513730
1283.19,0.099038,648307,516111
1286.61,0.099240,650446,517572
1290.03,0.098382,652132,519940
1293.44,0.098060,653907,521742
1296.85,0.097676,655963,523846
1301.39,0.097609,657349,525034
1304.8,0.097688,657558,525105
1308.19,0.097938,658515,525567
1311.58,0.098194,658804,525487
1314.97,0.098639,659011,525114
1318.36,0.099077,658272,523997
1321.73,0.099669,658022,523084
1326.23,0.100632,657870,521805
1329.6,0.101536,656482,519621
1332.97,0.102366,654926,517400
1336.33,0.103784,653727,514769
1339.69,0.105569,652497,511693
1343.04,0.107033,649913,507952
1346.39,0.109095,647671,503801
1349.73,0.111310,645338,499433
1354.18,0.113910,641175,493249
1357.52,0.116213,638376,488499
1360.85,0.118442,635805,484041
1364.17,0.120518,633413,479920
1367.49,0.122564,631026,475864
1370.81,0.124797,628050,471191
1374.12,0.127059,625034,466493
1378.54,0.130267,620272,459531
1381.84,0.133469,616892,453670
1385.14,0.137363,613613,447231
1388.43,0.141684,611526,441297
1391.72,0.147098,610663,435215
1395.01,0.152363,610634,429950
1398.29,0.157392,611700,425742
1402.66,0.165474,614051,419499
1405.93,0.171066,616268,415627
1409.2,0.176681,617795,411304
1412.46,0.182742,618872,406311
1415.72,0.186766,619795,403164
1418.98,0.191438,620495,399301
1422.23,0.195398,621087,396054
1426.56,0.199598,621375,392424
1429.8,0.202164,621616,390264
1433.04,0.204581,622129,388418
1436.27,0.207372,621526,385556
1439.5,0.209215,621113,383668
1442.72,0.211394,620921,381630
1445.94,0.214193,620270,378781
1450.23,0.217826,618860,374771
1453.44,0.219985,617697,372212
1456.64,0.222566,616264,369148
1459.85,0.224775,614413,366172
1463.04,0.227792,612307,362391
1466.24,0.229889,610032,359305
1469.43,0.233333,607345,354897
1473.67,0.237981,603789,349063
1476.85,0.243161,601175,343431
1480.02,0.247838,597737,337810
1483.19,0.253303,594479,331767
1486.36,0.257840,591232,326526
1489.52,0.261513,587853,321926
1492.68,0.265514,583875,316815
1496.89,0.266688,578062,312814
1500.03,0.266945,574159,310518
1503.18,0.267114,570285,308303
1506.32,0.265737,565444,306657
1509.45,0.264731,560571,304719
1512.58,0.263264,555821,303159
1515.71,0.261155,550344,301633
1519.87,0.258468,543983,299997
1522.99,0.256143,538764,298714
1526.1,0.253408,533692,297771
1529.21,0.250877,527902,296262
1532.32,0.248172,521886,294716
1535.42,0.245474,515888,293144
1538.51,0.242447,509987,291818
1541.6,0.239422,503936,290371
1545.72,0.235056,494694,287926
1548.8,0.232563,488378,285886
1551.88,0.230623,481832,283317
1554.95,0.227766,474989,281137
1558.02,0.226360,467818,277790
1561.08,0.224751,460730,274597
1564.15,0.224179,454170,271044
1568.22,0.222473,444181,266126
1571.27,0.222708,436947,261650
1574.32,0.221015,429598,258254
1577.36,0.220066,422039,254265
1580.4,0.219848,414375,249773
1583.43,0.216890,406354,246612
1586.46,0.216006,398475,242323
1590.49,0.214297,388982,237483
1593.51,0.211488,380708,233940
1596.53,0.209436,372727,230120
1599.54,0.207258,365060,226520
1602.55,0.205729,357543,222638
1605.55,0.204200,349495,218394
1608.55,0.202245,341154,214144
1612.54,0.199861,330877,208836
1615.53,0.197394,322904,204965
1618.51,0.197280,315116,200074
1621.49,0.195679,307217,195779
1624.47,0.194155,299481,191520
1627.44,0.193255,292112,187195
1630.41,0.192454,284245,182490
1634.36,0.191655,274079,176287
1637.32,0.190223,266916,172247
1640.27,0.189727,259612,167725
1643.22,0.188806,251804,163026
1646.16,0.188852,244348,158182
1649.1,0.186813,236703,153954
1652.04,0.186134,228171,148637
1655.95,0.182272,215408,141576
1658.88,0.178711,204937,135803
1661.8,0.172846,193395,129897
1664.72,0.166097,179728,122608
1667.63,0.154464,163642,114665
1670.54,0.140175,146312,105951
1673.44,0.124030,128451,96540
1677.31,0.107267,105080,82083
1680.21,0.094328,88906,71549
1683.1,0.089545,75033,61053
1685.99,0.087751,63520,51899
1688.87,0.094222,53714,43238
1691.75,0.097034,45653,36512
1694.62,0.099004,39137,31159
1697.49,0.104691,33776,26541
1701.31,0.118680,28175,21438

File: Column 1_050578_20150331_121309.csv
Method:,Column 1,,
Host Date-Time:,31/3/15 @ 12:13:9,,
Header Version:,1,,
System Temp (C):,33.83,,
Detector Temp (C):,34.59,,
Humidity (%):,2.05,,
Lamp PD:,3819,,
Shift Vector Coefficients:,-10.5391,0.0761263,-0.000134223,,
Pixel to Wavelength Coefficients:,1775.68,-0.916766,-0.000235065,,
Serial Number:,5510004,,
Scan Config Name:,Column 1,,
Scan Config Type:,Slew,,
Section 1,,
Start wavelength (nm):,900,,
End wavelength (nm):,1700,,
Pattern Pixel Width (nm):,   7.03,,,,
Exposure (ms):,  0.635,,,,
Digital Resolution:,228,,
Num Repeats:,6,,
PGA Gain:,64,,
Total Measurement Time in sec:,  2.668,,
Wavelength (nm),Absorbance (AU),Reference Signal (unitless),Sample Signal (unitless)
901.51,0.073797,108485,91532
905.376,0.079260,121306,101070
909.237,0.080143,131909,109681
913.095,0.081423,143299,118801
916.948,0.080223,156982,130505
922.079,0.084850,179937,148003
925.923,0.084300,200504,165129
929.762,0.085001,222660,183080
933.597,0.085068,244426,200946
937.427,0.083492,263972,217804
941.254,0.083552,281845,232519
945.076,0.082108,297271,246062
950.165,0.081446,315605,261636
953.978,0.080629,328029,272448
957.786,0.081500,340470,282214
961.59,0.081798,352317,291834
965.389,0.081660,363056,300825
969.185,0.082150,373162,308850
972.976,0.082007,382632,316792
976.763,0.082489,391202,323528
981.806,0.082797,400190,330727
985.583,0.083896,406088,334753
989.355,0.083846,410162,338150
993.124,0.084148,412868,340144
996.888,0.084751,414263,340820
1000.65,0.085690,415476,341080
1004.4,0.086912,415479,340124
1009.41,0.088146,414358,338244
1013.15,0.088306,412923,336948
1016.89,0.089034,411526,335246
1020.63,0.088914,409066,333334
1024.36,0.088883,406777,331492
1028.09,0.088928,404427,329543
1031.82,0.088447,401911,327856
1036.78,0.088141,398410,325229
1040.49,0.087756,396204,323715
1044.2,0.088610,394236,321474
1047.91,0.086388,392042,321325
1051.61,0.086987,389823,319066
1055.31,0.086433,388234,318171
1059,0.086324,387599,317730
1063.92,0.085322,386688,317716
1067.61,0.085225,386598,317713
1071.29,0.084321,387377,319016
1074.96,0.083807,388536,320350
1078.63,0.083968,389855,321318
1082.3,0.083390,391215,322868
1085.96,0.082058,393215,325516
1090.84,0.081330,396270,328595
1094.49,0.080515,398760,331281
1098.14,0.080305,400987,333292
1101.79,0.079257,403477,336172
1105.43,0.079423,406116,338242
1109.06,0.078328,407701,340419
1112.7,0.078314,409859,342232
1117.53,0.078043,412494,344647
1121.15,0.078794,414909,346066
1124.77,0.078504,416559,347674
1128.38,0.079649,418532,348401
1131.99,0.080767,419956,348688
1135.6,0.082020,421946,349331
1139.2,0.083584,423881,349671
1143.99,0.085704,426786,350353
1147.58,0.086458,428617,351246
1151.17,0.087602,431169,352408
1154.75,0.088512,433579,353636
1158.33,0.090083,436264,354541
1161.91,0.092142,439132,355184
1165.48,0.094074,442389,356230
1169.04,0.095975,446101,357650
1173.79,0.099331,451929,359533
1177.34,0.101383,456026,361083
1180.9,0.103770,461306,363261
1184.44,0.105261,467657,367000
1187.99,0.106891,473969,370560
1191.52,0.106432,479856,375560
1195.06,0.106398,487372,381472
1199.76,0.105299,497347,390266
1203.29,0.104952,504311,396047
1206.81,0.104725,511507,401908
1210.33,0.103445,519078,409061
1213.84,0.103166,527163,415699
1217.35,0.102259,534208,422135
1220.85,0.101984,540472,427355
1225.51,0.101242,549929,435577
1229.01,0.100817,556888,441520
1232.5,0.099928,562180,446630
1235.98,0.099429,567975,451752
1239.46,0.098985,574815,457660
1242.94,0.097785,582782,465287
1246.41,0.096674,591476,473438
1251.03,0.096970,604016,483146
1254.5,0.097538,612289,489123
1257.96,0.097468,619125,494664
1261.41,0.097606,624551,498841
1264.86,0.098158,629900,502474
1268.31,0.099093,634345,504931
1271.75,0.099369,638574,507975
1276.33,0.099741,642499,510659
1279.76,0.099665,645905,513456
1283.19,0.099574,648307,515474
1286.61,0.099089,650446,517753
1290.03,0.098667,652132,519599
1293.44,0.098072,653907,521728
1296.85,0.097731,655963,523779
1301.39,0.098001,657349,524560
1304.8,0.097768,657558,525008
1308.19,0.098446,658515,524952
1311.58,0.098310,658804,525347
1314.97,0.098878,659011,524825
1318.36,0.099395,658272,523613
1321.73,0.099765,658022,522968
1326.23,0.100603,657870,521840
1329.6,0.101654,656482,519480
1332.97,0.102552,654926,517178
1336.33,0.103762,653727,514795
1339.69,0.105937,652497,511260
1343.04,0.107416,649913,507504
1346.39,0.109284,647671,503582
1349.73,0.111468,645338,499251
1354.18,0.114488,641175,492593
1357.52,0.116273,638376,488431
1360.85,0.118466,635805,484014
1364.17,0.120091,633413,480392
1367.49,0.123249,631026,475115
1370.81,0.124630,628050,471372
1374.12,0.127269,625034,466267
1378.54,0.130196,620272,459606
1381.84,0.133777,616892,453348
1385.14,0.137290,613613,447306
1388.43,0.141695,611526,441286
1391.72,0.147059,610663,435254
1395.01,0.151999,610634,430311
1398.29,0.157738,611700,425403
1402.66,0.165327,614051,419641
1405.93,0.171156,616268,415541
1409.2,0.176773,617795,411217
1412.46,0.182370,618872,406659
1415.72,0.187089,619795,402865
1418.98,0.191280,620495,399446
1422.23,0.195125,621087,396303
1426.56,0.200233,621375,391851
1429.8,0.202343,621616,390103
1433.04,0.204969,622129,388071
1436.27,0.207009,621526,385878
1439.5,0.209110,621113,383761
1442.72,0.211461,620921,381571
1445.94,0.214107,620270,378856
1450.23,0.217188,618860,375322
1453.44,0.220387,617697,371868
1456.64,0.222216,616264,369446
1459.85,0.225541,614413,365527
1463.04,0.227607,612307,362545
1466.24,0.230734,610032,358607
1469.43,0.233806,607345,354511
1473.67,0.238709,603789,348479
1476.85,0.242855,601175,343673
1480.02,0.247542,597737,338040
1483.19,0.253059,594479,331954
1486.36,0.258266,591232,326206
1489.52,0.262224,587853,321399
1492.68,0.265135,583875,317092
1496.89,0.266822,578062,312718
1500.03,0.267488,574159,310130
1503.18,0.267186,570285,308252
1506.32,0.266047,565444,306438
1509.45,0.264834,560571,304647
1512.58,0.263002,555821,303342
1515.71,0.261632,550344,301302
1519.87,0.257791,543983,300465
1522.99,0.256127,538764,298725
1526.1,0.254432,533692,297070
1529.21,0.250904,527902,296244
1532.32,0.247718,521886,295024
1535.42,0.245276,515888,293278
1538.51,0.242737,509987,291623
1541.6,0.240007,503936,289980
1545.72,0.235546,494694,287601
1548.8,0.232695,488378,285799
1551.88,0.230229,481832,283574
1554.95,0.228305,474989,280788
1558.02,0.226509,467818,277695
1561.08,0.225379,460730,274200
1564.15,0.224764,454170,270679
1568.22,0.223553,444181,265465
1571.27,0.222441,436947,261811
1574.32,0.222202,429598,257549
1577.36,0.220174,422039,254202
1580.4,0.219139,414375,250181
1583.43,0.217955,406354,246008
1586.46,0.215664,398475,242514
1590.49,0.213827,388982,237740
1593.51,0.211291,380708,234046
1596.53,0.210788,372727,229405
1599.54,0.208262,365060,225997
1602.55,0.206614,357543,222185
1605.55,0.204214,349495,218387
1608.55,0.202581,341154,213978
1612.54,0.199953,330877,208792
1615.53,0.197920,322904,204717
1618.51,0.197230,315116,200097
1621.49,0.195653,307217,195791
1624.47,0.194468,299481,191382
1627.44,0.195008,292112,186441
1630.41,0.194132,284245,181786
1634.36,0.191062,274079,176528
1637.32,0.189752,266916,172434
1640.27,0.190217,259612,167536
1643.22,0.188774,251804,163038
1646.16,0.186388,244348,159082
1649.1,0.186675,236703,154003
1652.04,0.185313,228171,148918
1655.95,0.183935,215408,141035
1658.88,0.179979,204937,135407
1661.8,0.174733,193395,129334
1664.72,0.165474,179728,122784
1667.63,0.154786,163642,114580
1670.54,0.141846,146312,105544
1673.44,0.125743,128451,96160
1677.31,0.107616,105080,82017
1680.21,0.095622,88906,71336
1683.1,0.091134,75033,60830
1685.99,0.091382,63520,51467
1688.87,0.093600,53714,43300
1691.75,0.104786,45653,35866
1694.62,0.103741,39137,30821
1697.49,0.113685,33776,25997
1701.31,0.118416,28175,21451

File: Column 1_050578_20150331_121311.csv
Method:,Column 1,,
Host Date-Time:,31/3/15 @ 12:13:11,,
Header Version:,1,,
System Temp (C):,33.8,,
Detector Temp (C):,34.59,,
Humidity (%):,2.05,,
Lamp PD:,3819,,
Shift Vector Coefficients:,-10.5391,0.0761263,-0.000134223,,
Pixel to Wavelength Coefficients:,1775.68,-0.916766,-0.000235065,,
Serial Number:,5510004,,
Scan Config Name:,Column 1,,
Scan Config Type:,Slew,,
Section 1,,
Start wavelength (nm):,900,,
End wavelength (nm):,1700,,
Pattern Pixel Width (nm):,   7.03,,,,
Exposure (ms):,  0.635,,,,
Digital Resolution:,228,,
Num Repeats:,6,,
PGA Gain:,64,,
Total Measurement Time in sec:,  2.687,,
Wavelength (nm),Absorbance (AU),Reference Signal (unitless),Sample Signal (unitless)
901.51,0.072300,108485,91848
905.376,0.078676,121306,101206
909.237,0.081833,131909,109255
913.095,0.079683,143299,119278
916.948,0.082843,156982,129720
922.079,0.082456,179937,148821
925.923,0.084360,200504,165106
929.762,0.084911,222660,183118
933.597,0.085282,244426,200847
937.427,0.082745,263972,218179
941.254,0.082485,281845,233091
945.076,0.081752,297271,246264
950.165,0.081702,315605,261482
953.978,0.080233,328029,272696
957.786,0.081173,340470,282427
961.59,0.081484,352317,292045
965.389,0.081365,363056,301029
969.185,0.081416,373162,309372
972.976,0.081885,382632,316881
976.763,0.082194,391202,323748
981.806,0.083222,400190,330403
985.583,0.083132,406088,335342
989.355,0.083485,410162,338431
993.124,0.084378,412868,339964
996.888,0.084751,414263,340820
1000.65,0.085229,415476,341442
1004.4,0.086267,415479,340629
1009.41,0.088153,414358,338238
1013.15,0.087853,412923,337300
1016.89,0.088498,411526,335660
1020.63,0.088323,409066,333788
1024.36,0.088339,406777,331908
1028.09,0.088853,404427,329600
1031.82,0.088644,401911,327707
1036.78,0.088456,398410,324993
1040.49,0.087841,396204,323652
1044.2,0.087654,394236,322183
1047.91,0.086974,392042,320892
1051.61,0.087415,389823,318752
1055.31,0.087102,388234,317681
1059,0.086055,387599,317927
1063.92,0.085932,386688,317270
1067.61,0.084751,386598,318060
1071.29,0.084936,387377,318565
1074.96,0.083854,388536,320315
1078.63,0.083525,389855,321646
1082.3,0.082060,391215,323859
1085.96,0.081795,393215,325713
1090.84,0.080828,396270,328975
1094.49,0.080607,398760,331211
1098.14,0.080089,400987,333458
1101.79,0.079278,403477,336156
1105.43,0.079306,406116,338333
1109.06,0.078549,407701,340246
1112.7,0.078106,409859,342396
1117.53,0.077114,412494,345385
1121.15,0.078633,414909,346194
1124.77,0.078603,416559,347595
1128.38,0.079048,418532,348884
1131.99,0.080344,419956,349028
1135.6,0.082175,421946,349206
1139.2,0.083198,423881,349982
1143.99,0.085273,426786,350701
1147.58,0.086540,428617,351180
1151.17,0.087628,431169,352387
1154.75,0.089270,433579,353019
1158.33,0.090192,436264,354452
1161.91,0.092090,439132,355226
1165.48,0.094337,442389,356014
1169.04,0.096337,446101,357352
1173.79,0.099666,451929,359256
1177.34,0.101213,456026,361224
1180.9,0.103530,461306,363462
1184.44,0.105334,467657,366939
1187.99,0.106466,473969,370923
1191.52,0.106293,479856,375680
1195.06,0.106175,487372,381668
1199.76,0.105295,497347,390269
1203.29,0.104403,504311,396548
1206.81,0.104442,511507,402170
1210.33,0.103712,519078,408809
1213.84,0.103607,527163,415277
1217.35,0.102865,534208,421546
1220.85,0.101728,540472,427607
1225.51,0.101531,549929,435287
1229.01,0.100306,556888,442040
1232.5,0.099878,562180,446681
1235.98,0.099051,567975,452145
1239.46,0.098134,574815,458558
1242.94,0.097653,582782,465429
1246.41,0.096535,591476,473590
1251.03,0.096674,604016,483476
1254.5,0.097215,612289,489487
1257.96,0.097320,619125,494833
1261.41,0.097825,624551,498589
1264.86,0.098326,629900,502280
1268.31,0.098774,634345,505303
1271.75,0.099379,638574,507963
1276.33,0.099941,642499,510425
1279.76,0.099272,645905,513921
1283.19,0.099009,648307,516145
1286.61,0.098931,650446,517941
1290.03,0.098367,652132,519958
1293.44,0.098090,653907,521706
1296.85,0.097840,655963,523648
1301.39,0.097398,657349,525289
1304.8,0.097799,657558,524971
1308.19,0.097959,658515,525541
1311.58,0.098100,658804,525601
1314.97,0.099121,659011,524532
1318.36,0.099255,658272,523782
1321.73,0.099833,658022,522886
1326.23,0.100621,657870,521818
1329.6,0.102093,656482,518955
1332.97,0.102902,654926,516762
1336.33,0.104001,653727,514512
1339.69,0.105647,652497,511601
1343.04,0.107337,649913,507596
1346.39,0.109668,647671,503137
1349.73,0.111046,645338,499737
1354.18,0.114309,641175,492797
1357.52,0.116159,638376,488560
1360.85,0.118239,635805,484267
1364.17,0.120495,633413,479946
1367.49,0.122371,631026,476076
1370.81,0.124912,628050,471066
1374.12,0.127164,625034,466380
1378.54,0.130041,620272,459771
1381.84,0.133337,616892,453808
1385.14,0.137244,613613,447353
1388.43,0.142238,611526,440734
1391.72,0.146672,610663,435642
1395.01,0.151837,610634,430471
1398.29,0.157565,611700,425572
1402.66,0.165311,614051,419656
1405.93,0.171285,616268,415417
1409.2,0.176828,617795,411165
1412.46,0.181699,618872,407288
1415.72,0.186814,619795,403120
1418.98,0.190587,620495,400084
1422.23,0.194933,621087,396478
1426.56,0.199137,621375,392841
1429.8,0.202288,621616,390152
1433.04,0.204784,622129,388237
1436.27,0.207028,621526,385861
1439.5,0.209148,621113,383727
1442.72,0.211943,620921,381148
1445.94,0.213497,620270,379388
1450.23,0.217210,618860,375303
1453.44,0.219717,617697,372442
1456.64,0.222202,616264,369458
1459.85,0.225117,614413,365884
1463.04,0.227401,612307,362717
1466.24,0.230325,610032,358945
1469.43,0.233743,607345,354562
1473.67,0.237878,603789,349146
1476.85,0.243020,601175,343543
1480.02,0.247672,597737,337939
1483.19,0.253005,594479,331995
1486.36,0.258052,591232,326367
1489.52,0.261885,587853,321650
1492.68,0.264723,583875,317393
1496.89,0.266634,578062,312853
1500.03,0.267123,574159,310391
1503.18,0.266745,570285,308565
1506.32,0.265551,565444,306788
1509.45,0.264656,560571,304772
1512.58,0.263848,555821,302752
1515.71,0.261194,550344,301606
1519.87,0.257605,543983,300594
1522.99,0.256437,538764,298512
1526.1,0.253496,533692,297711
1529.21,0.251065,527902,296134
1532.32,0.248028,521886,294814
1535.42,0.245120,515888,293383
1538.51,0.242606,509987,291711
1541.6,0.239101,503936,290586
1545.72,0.235629,494694,287546
1548.8,0.232908,488378,285659
1551.88,0.229599,481832,283986
1554.95,0.227293,474989,281443
1558.02,0.226809,467818,277503
1561.08,0.225154,460730,274342
1564.15,0.224899,454170,270595
1568.22,0.223260,444181,265644
1571.27,0.223183,436947,261364
1574.32,0.221527,429598,257950
1577.36,0.219820,422039,254409
1580.4,0.218757,414375,250401
1583.43,0.217530,406354,246249
1586.46,0.216191,398475,242220
1590.49,0.213743,388982,237786
1593.51,0.212318,380708,233493
1596.53,0.209657,372727,230003
1599.54,0.207636,365060,226323
1602.55,0.205497,357543,222757
1605.55,0.203990,349495,218500
1608.55,0.201926,341154,214301
1612.54,0.200040,330877,208750
1615.53,0.197146,322904,205082
1618.51,0.196434,315116,200464
1621.49,0.195335,307217,195934
1624.47,0.194393,299481,191415
1627.44,0.193849,292112,186939
1630.41,0.192828,284245,182333
1634.36,0.190713,274079,176670
1637.32,0.190649,266916,172078
1640.27,0.190191,259612,167546
1643.22,0.188864,251804,163004
1646.16,0.187385,244348,158717
1649.1,0.187858,236703,153584
1652.04,0.185558,228171,148834
1655.95,0.182901,215408,141371
1658.88,0.178014,204937,136021
1661.8,0.173622,193395,129665
1664.72,0.166756,179728,122422
1667.63,0.153473,163642,114927
1670.54,0.140085,146312,105973
1673.44,0.122965,128451,96777
1677.31,0.105688,105080,82382
1680.21,0.094759,88906,71478
1683.1,0.091242,75033,60815
1685.99,0.088841,63520,51769
1688.87,0.092758,53714,43384
1691.75,0.097069,45653,36509
1694.62,0.111891,39137,30248
1697.49,0.111037,33776,26156
1701.31,0.117062,28175,21518