Folder: textile_sorting_NIRSCAN_/samples/wool/wool-000811 (part 175)

File: Column 1_050628_20150331_123648.csv
Method:,Column 1,,
Host Date-Time:,31/3/15 @ 12:36:48,,
Header Version:,1,,
System Temp (C):,34.13,,
Detector Temp (C):,35.05,,
Humidity (%):,1.56,,
Lamp PD:,3818,,
Shift Vector Coefficients:,-10.5391,0.0761263,-0.000134223,,
Pixel to Wavelength Coefficients:,1775.68,-0.916766,-0.000235065,,
Serial Number:,5510004,,
Scan Config Name:,Column 1,,
Scan Config Type:,Slew,,
Section 1,,
Start wavelength (nm):,900,,
End wavelength (nm):,1700,,
Pattern Pixel Width (nm):,   7.03,,,,
Exposure (ms):,  0.635,,,,
Digital Resolution:,228,,
Num Repeats:,6,,
PGA Gain:,64,,
Total Measurement Time in sec:,  2.677,,
Wavelength (nm),Absorbance (AU),Reference Signal (unitless),Sample Signal (unitless)
901.51,0.068117,108485,92737
905.376,0.073930,121306,102318
909.237,0.076763,131909,110538
913.095,0.076393,143299,120185
916.948,0.078589,156982,130997
922.079,0.080276,179937,149570
925.923,0.082099,200504,165968
929.762,0.083330,222660,183786
933.597,0.082149,244426,202301
937.427,0.080551,263972,219284
941.254,0.079540,281845,234677
945.076,0.079181,297271,247726
950.165,0.078894,315605,263178
953.978,0.076633,328029,274966
957.786,0.077431,340470,284871
961.59,0.077371,352317,294824
965.389,0.077580,363056,303664
969.185,0.077776,373162,311976
972.976,0.077835,382632,319850
976.763,0.078290,391202,326671
981.806,0.078543,400190,333982
985.583,0.079168,406088,338417
989.355,0.079486,410162,341562
993.124,0.079762,412868,343597
996.888,0.080501,414263,344172
1000.65,0.080781,415476,344957
1004.4,0.082615,415479,343506
1009.41,0.084126,414358,341389
1013.15,0.083525,412923,340678
1016.89,0.084887,411526,338462
1020.63,0.084576,409066,336680
1024.36,0.084430,406777,334909
1028.09,0.083506,404427,333683
1031.82,0.083826,401911,331363
1036.78,0.083527,398410,328703
1040.49,0.083586,396204,326838
1044.2,0.083650,394236,325167
1047.91,0.083017,392042,323829
1051.61,0.082587,389823,322315
1055.31,0.082758,388234,320875
1059,0.082026,387599,320890
1063.92,0.081408,386688,320592
1067.61,0.080352,386598,321298
1071.29,0.080719,387377,321673
1074.96,0.079526,388536,323523
1078.63,0.078899,389855,325090
1082.3,0.078075,391215,326844
1085.96,0.077282,393215,329115
1090.84,0.076053,396270,332612
1094.49,0.076016,398760,334731
1098.14,0.075507,400987,336995
1101.79,0.074533,403477,339849
1105.43,0.074501,406116,342097
1109.06,0.073778,407701,344004
1112.7,0.073602,409859,345965
1117.53,0.072425,412494,349134
1121.15,0.073219,414909,350537
1124.77,0.074092,416559,351224
1128.38,0.074530,418532,352532
1131.99,0.075465,419956,352971
1135.6,0.076759,421946,353588
1139.2,0.078716,423881,353613
1143.99,0.080866,426786,354278
1147.58,0.080904,428617,355767
1151.17,0.081362,431169,357508
1154.75,0.082743,433579,358365
1158.33,0.083734,436264,359762
1161.91,0.086013,439132,360232
1165.48,0.087710,442389,361488
1169.04,0.090196,446101,362441
1173.79,0.093600,451929,364309
1177.34,0.095600,456026,365923
1180.9,0.097721,461306,368356
1184.44,0.099348,467657,372031
1187.99,0.100021,473969,376469
1191.52,0.100631,479856,380610
1195.06,0.100175,487372,386977
1199.76,0.099661,497347,395365
1203.29,0.098716,504311,401775
1206.81,0.099036,511507,407207
1210.33,0.097916,519078,414302
1213.84,0.096969,527163,421673
1217.35,0.096774,534208,427500
1220.85,0.096239,540472,433046
1225.51,0.095571,549929,441302
1229.01,0.094941,556888,447535
1232.5,0.094220,562180,452538
1235.98,0.093250,567975,458225
1239.46,0.092662,574815,464372
1242.94,0.091607,582782,471953
1246.41,0.091027,591476,479634
1251.03,0.090985,604016,489850
1254.5,0.091165,612289,496354
1257.96,0.091473,619125,501540
1261.41,0.092158,624551,505138
1264.86,0.092235,629900,509374
1268.31,0.093163,634345,511873
1271.75,0.093568,638574,514805
1276.33,0.094017,642499,517434
1279.76,0.093929,645905,520283
1283.19,0.093339,648307,522928
1286.61,0.092942,650446,525133
1290.03,0.092673,652132,526820
1293.44,0.092059,653907,529002
1296.85,0.092364,655963,530292
1301.39,0.091529,657349,532435
1304.8,0.091848,657558,532214
1308.19,0.091576,658515,533322
1311.58,0.091973,658804,533069
1314.97,0.092381,659011,532735
1318.36,0.092339,658272,532190
1321.73,0.092959,658022,531229
1326.23,0.093499,657870,530446
1329.6,0.094373,656482,528263
1332.97,0.094979,654926,526275
1336.33,0.095583,653727,524582
1339.69,0.097392,652497,521418
1343.04,0.099041,649913,517385
1346.39,0.100500,647671,513871
1349.73,0.102604,645338,509546
1354.18,0.105276,641175,503154
1357.52,0.107787,638376,498069
1360.85,0.109398,635805,494226
1364.17,0.111237,633413,490286
1367.49,0.113358,631026,486059
1370.81,0.115819,628050,481033
1374.12,0.117502,625034,476872
1378.54,0.120504,620272,469979
1381.84,0.122799,616892,464954
1385.14,0.126331,613613,458737
1388.43,0.129546,611526,453805
1391.72,0.133107,610663,449464
1395.01,0.137101,610634,445328
1398.29,0.140689,611700,442435
1402.66,0.146975,614051,437753
1405.93,0.151629,616268,434651
1409.2,0.156140,617795,431225
1412.46,0.160231,618872,427927
1415.72,0.164054,619795,424809
1418.98,0.167544,620495,421885
1422.23,0.170615,621087,419312
1426.56,0.174709,621375,415571
1429.8,0.176880,621616,413659
1433.04,0.179438,622129,411569
1436.27,0.181723,621526,409012
1439.5,0.183831,621113,406761
1442.72,0.186005,620921,404605
1445.94,0.188477,620270,401887
1450.23,0.192099,618860,397643
1453.44,0.194819,617697,394418
1456.64,0.197462,616264,391115
1459.85,0.200305,614413,387396
1463.04,0.203426,612307,383304
1466.24,0.207109,610032,378655
1469.43,0.210735,607345,373853
1473.67,0.217817,603789,365652
1476.85,0.224178,601175,358776
1480.02,0.230123,597737,351874
1483.19,0.235951,594479,345291
1486.36,0.242407,591232,338338
1489.52,0.247467,587853,332508
1492.68,0.251967,583875,326853
1496.89,0.253166,578062,322707
1500.03,0.253669,574159,320157
1503.18,0.253734,570285,317949
1506.32,0.254489,565444,314703
1509.45,0.250942,560571,314549
1512.58,0.249746,555821,312744
1515.71,0.247734,550344,311100
1519.87,0.244782,543983,309602
1522.99,0.241915,538764,308662
1526.1,0.239858,533692,307208
1529.21,0.236083,527902,306528
1532.32,0.233849,521886,304598
1535.42,0.231377,515888,302816
1538.51,0.228263,509987,301506
1541.6,0.225093,503936,300111
1545.72,0.220834,494694,297511
1548.8,0.218207,488378,295494
1551.88,0.216184,481832,292895
1554.95,0.213828,474989,290306
1558.02,0.212418,467818,286853
1561.08,0.210927,460730,283478
1564.15,0.210970,454170,279414
1568.22,0.210223,444181,273739
1571.27,0.209059,436947,270004
1574.32,0.208370,429598,265884
1577.36,0.207036,422039,262009
1580.4,0.206026,414375,257850
1583.43,0.204742,406354,253608
1586.46,0.203186,398475,249583
1590.49,0.201470,388982,244602
1593.51,0.199591,380708,240437
1596.53,0.197584,372727,236487
1599.54,0.195230,365060,232881
1602.55,0.193063,357543,229227
1605.55,0.191498,349495,224876
1608.55,0.190550,341154,219989
1612.54,0.187837,330877,214699
1615.53,0.186131,322904,210350
1618.51,0.185771,315116,205447
1621.49,0.184407,307217,200927
1624.47,0.183416,299481,196315
1627.44,0.181703,292112,192241
1630.41,0.181076,284245,187334
1634.36,0.179464,274079,181306
1637.32,0.178905,266916,176795
1640.27,0.177747,259612,172416
1643.22,0.176905,251804,167555
1646.16,0.176992,244348,162561
1649.1,0.175877,236703,157880
1652.04,0.174296,228171,152744
1655.95,0.173187,215408,144569
1658.88,0.166894,204937,139549
1661.8,0.161114,193395,133454
1664.72,0.153587,179728,126191
1667.63,0.141836,163642,118048
1670.54,0.126886,146312,109243
1673.44,0.111867,128451,99282
1677.31,0.090077,105080,85397
1680.21,0.077084,88906,74447
1683.1,0.071973,75033,63574
1685.99,0.072532,63520,53750
1688.87,0.075247,53714,45169
1691.75,0.081358,45653,37854
1694.62,0.085407,39137,32150
1697.49,0.093130,33776,27257
1701.31,0.105983,28175,22074

File: Column 1_050628_20150331_123654.csv
Method:,Column 1,,
Host Date-Time:,31/3/15 @ 12:36:54,,
Header Version:,1,,
System Temp (C):,34.16,,
Detector Temp (C):,35.06,,
Humidity (%):,1.56,,
Lamp PD:,3818,,
Shift Vector Coefficients:,-10.5391,0.0761263,-0.000134223,,
Pixel to Wavelength Coefficients:,1775.68,-0.916766,-0.000235065,,
Serial Number:,5510004,,
Scan Config Name:,Column 1,,
Scan Config Type:,Slew,,
Section 1,,
Start wavelength (nm):,900,,
End wavelength (nm):,1700,,
Pattern Pixel Width (nm):,   7.03,,,,
Exposure (ms):,  0.635,,,,
Digital Resolution:,228,,
Num Repeats:,6,,
PGA Gain:,64,,
Total Measurement Time in sec:,  2.681,,
Wavelength (nm),Absorbance (AU),Reference Signal (unitless),Sample Signal (unitless)
901.51,0.067176,108485,92938
905.376,0.073540,121306,102410
909.237,0.074799,131909,111039
913.095,0.077884,143299,119773
916.948,0.077886,156982,131209
922.079,0.079768,179937,149745
925.923,0.080706,200504,166501
929.762,0.081964,222660,184365
933.597,0.081465,244426,202620
937.427,0.080381,263972,219370
941.254,0.079730,281845,234574
945.076,0.078538,297271,248093
950.165,0.077882,315605,263792
953.978,0.076610,328029,274981
957.786,0.076996,340470,285156
961.59,0.077221,352317,294926
965.389,0.077124,363056,303983
969.185,0.077520,373162,312160
972.976,0.077498,382632,320098
976.763,0.077887,391202,326975
981.806,0.077739,400190,334601
985.583,0.078649,406088,338822
989.355,0.078898,410162,342025
993.124,0.079180,412868,344058
996.888,0.079750,414263,344767
1000.65,0.081247,415476,344587
1004.4,0.082233,415479,343808
1009.41,0.083705,414358,341720
1013.15,0.083658,412923,340574
1016.89,0.084486,411526,338775
1020.63,0.083849,409066,337244
1024.36,0.083815,406777,335383
1028.09,0.084083,404427,333240
1031.82,0.083329,401911,331742
1036.78,0.083519,398410,328709
1040.49,0.083228,396204,327108
1044.2,0.083021,394236,325638
1047.91,0.083121,392042,323751
1051.61,0.082489,389823,322388
1055.31,0.081973,388234,321455
1059,0.082215,387599,320751
1063.92,0.081400,386688,320598
1067.61,0.079871,386598,321654
1071.29,0.079381,387377,322666
1074.96,0.078671,388536,324161
1078.63,0.079299,389855,324791
1082.3,0.077317,391215,327415
1085.96,0.076573,393215,329653
1090.84,0.076048,396270,332616
1094.49,0.075278,398760,335300
1098.14,0.075355,400987,337113
1101.79,0.074253,403477,340068
1105.43,0.074102,406116,342411
1109.06,0.073068,407701,344567
1112.7,0.072825,409859,346585
1117.53,0.072602,412494,348992
1121.15,0.073241,414909,350519
1124.77,0.072786,416559,352282
1128.38,0.074619,418532,352460
1131.99,0.075183,419956,353200
1135.6,0.076328,421946,353939
1139.2,0.077563,423881,354553
1143.99,0.079906,426786,355062
1147.58,0.080424,428617,356160
1151.17,0.081737,431169,357199
1154.75,0.082510,433579,358557
1158.33,0.083202,436264,360203
1161.91,0.085699,439132,360492
1165.48,0.087231,442389,361887
1169.04,0.090095,446101,362525
1173.79,0.093081,451929,364745
1177.34,0.095084,456026,366358
1180.9,0.097318,461306,368698
1184.44,0.099015,467657,372317
1187.99,0.100298,473969,376229
1191.52,0.100047,479856,381122
1195.06,0.099606,487372,387485
1199.76,0.099386,497347,395616
1203.29,0.098710,504311,401780
1206.81,0.098248,511507,407947
1210.33,0.097589,519078,414614
1213.84,0.096910,527163,421730
1217.35,0.096532,534208,427739
1220.85,0.095895,540472,433389
1225.51,0.095164,549929,441715
1229.01,0.094769,556888,447712
1232.5,0.094081,562180,452683
1235.98,0.093487,567975,457975
1239.46,0.092391,574815,464662
1242.94,0.091491,582782,472080
1246.41,0.090511,591476,480204
1251.03,0.090606,604016,490278
1254.5,0.091025,612289,496514
1257.96,0.091494,619125,501516
1261.41,0.091855,624551,505490
1264.86,0.093836,629900,507499
1268.31,0.092659,634345,512468
1271.75,0.093477,638574,514914
1276.33,0.094038,642499,517409
1279.76,0.093653,645905,520614
1283.19,0.093213,648307,523080
1286.61,0.092877,650446,525212
1290.03,0.092401,652132,527150
1293.44,0.091911,653907,529182
1296.85,0.091813,655963,530966
1301.39,0.091170,657349,532876
1304.8,0.091371,657558,532799
1308.19,0.091122,658515,533880
1311.58,0.091230,658804,533981
1314.97,0.091979,659011,533229
1318.36,0.092208,658272,532350
1321.73,0.092555,658022,531723
1326.23,0.093074,657870,530965
1329.6,0.094119,656482,528571
1332.97,0.094751,654926,526552
1336.33,0.095617,653727,524541
1339.69,0.097466,652497,521330
1343.04,0.098352,649913,518207
1346.39,0.100633,647671,513714
1349.73,0.102728,645338,509400
1354.18,0.105096,641175,503362
1357.52,0.107159,638376,498790
1360.85,0.109006,635805,494673
1364.17,0.111301,633413,490214
1367.49,0.113284,631026,486142
1370.81,0.115504,628050,481382
1374.12,0.117536,625034,476835
1378.54,0.119931,620272,470599
1381.84,0.122709,616892,465050
1385.14,0.125910,613613,459182
1388.43,0.129415,611526,453942
1391.72,0.132818,610663,449763
1395.01,0.137170,610634,445257
1398.29,0.140904,611700,442216
1402.66,0.146870,614051,437859
1405.93,0.151555,616268,434725
1409.2,0.155830,617795,431533
1412.46,0.160188,618872,427970
1415.72,0.163899,619795,424961
1418.98,0.167232,620495,422188
1422.23,0.170493,621087,419430
1426.56,0.174314,621375,415949
1429.8,0.175787,621616,414701
1433.04,0.179152,622129,411840
1436.27,0.181252,621526,409456
1439.5,0.183201,621113,407352
1442.72,0.186018,620921,404593
1445.94,0.188397,620270,401961
1450.23,0.192292,618860,397466
1453.44,0.194741,617697,394489
1456.64,0.197592,616264,390998
1459.85,0.200242,614413,387452
1463.04,0.203299,612307,383416
1466.24,0.206690,610032,379020
1469.43,0.210805,607345,373792
1473.67,0.217142,603789,366221
1476.85,0.223621,601175,359236
1480.02,0.229579,597737,352315
1483.19,0.236656,594479,344731
1486.36,0.242190,591232,338507
1489.52,0.247418,587853,332545
1492.68,0.250662,583875,327837
1496.89,0.253193,578062,322687
1500.03,0.253111,574159,320569
1503.18,0.253498,570285,318122
1506.32,0.252466,565444,316172
1509.45,0.251329,560571,314269
1512.58,0.249895,555821,312637
1515.71,0.247405,550344,311336
1519.87,0.243721,543983,310359
1522.99,0.242248,538764,308426
1526.1,0.239787,533692,307258
1529.21,0.236650,527902,306128
1532.32,0.234141,521886,304393
1535.42,0.230646,515888,303326
1538.51,0.227308,509987,302170
1541.6,0.224823,503936,300298
1545.72,0.220246,494694,297914
1548.8,0.218141,488378,295539
1551.88,0.214903,481832,293760
1554.95,0.214085,474989,290134
1558.02,0.212032,467818,287108
1561.08,0.210985,460730,283440
1564.15,0.210566,454170,279674
1568.22,0.209310,444181,274315
1571.27,0.208695,436947,270230
1574.32,0.208053,429598,266078
1577.36,0.207043,422039,262005
1580.4,0.205417,414375,258212
1583.43,0.203847,406354,254131
1586.46,0.203217,398475,249565
1590.49,0.200942,388982,244899
1593.51,0.198845,380708,240850
1596.53,0.197283,372727,236651
1599.54,0.194416,365060,233318
1602.55,0.192050,357543,229762
1605.55,0.190578,349495,225353
1608.55,0.189605,341154,220468
1612.54,0.188241,330877,214499
1615.53,0.185660,322904,210578
1618.51,0.184782,315116,205915
1621.49,0.183731,307217,201240
1624.47,0.181859,299481,197020
1627.44,0.181198,292112,192465
1630.41,0.179401,284245,188058
1634.36,0.177983,274079,181925
1637.32,0.178684,266916,176885
1640.27,0.178259,259612,172213
1643.22,0.177606,251804,167285
1646.16,0.175531,244348,163109
1649.1,0.175574,236703,157990
1652.04,0.172676,228171,153315
1655.95,0.171116,215408,145260
1658.88,0.167270,204937,139428
1661.8,0.161097,193395,133459
1664.72,0.154214,179728,126009
1667.63,0.140008,163642,118546
1670.54,0.125612,146312,109564
1673.44,0.109007,128451,99938
1677.31,0.089767,105080,85458
1680.21,0.075105,88906,74787
1683.1,0.072239,75033,63535
1685.99,0.067224,63520,54411
1688.87,0.069848,53714,45734
1691.75,0.078111,45653,38138
1694.62,0.079090,39137,32621
1697.49,0.089528,33776,27484
1701.31,0.089346,28175,22936

File: Column 1_050628_20150331_123700.csv
Method:,Column 1,,
Host Date-Time:,31/3/15 @ 12:37:0,,
Header Version:,1,,
System Temp (C):,34.16,,
Detector Temp (C):,35.05,,
Humidity (%):,1.56,,
Lamp PD:,3818,,
Shift Vector Coefficients:,-10.5391,0.0761263,-0.000134223,,
Pixel to Wavelength Coefficients:,1775.68,-0.916766,-0.000235065,,
Serial Number:,5510004,,
Scan Config Name:,Column 1,,
Scan Config Type:,Slew,,
Section 1,,
Start wavelength (nm):,900,,
End wavelength (nm):,1700,,
Pattern Pixel Width (nm):,   7.03,,,,
Exposure (ms):,  0.635,,,,
Digital Resolution:,228,,
Num Repeats:,6,,
PGA Gain:,64,,
Total Measurement Time in sec:,  2.728,,
Wavelength (nm),Absorbance (AU),Reference Signal (unitless),Sample Signal (unitless)
901.51,0.069905,108485,92356
905.376,0.075320,121306,101991
909.237,0.079221,131909,109914
913.095,0.078211,143299,119683
916.948,0.080309,156982,130479
922.079,0.079884,179937,149705
925.923,0.081231,200504,166300
929.762,0.081919,222660,184384
933.597,0.083007,244426,201902
937.427,0.080949,263972,219083
941.254,0.079927,281845,234468
945.076,0.078874,297271,247901
950.165,0.078480,315605,263429
953.978,0.077603,328029,274353
957.786,0.077893,340470,284568
961.59,0.077823,352317,294517
965.389,0.077446,363056,303758
969.185,0.077846,373162,311926
972.976,0.077398,382632,320172
976.763,0.077823,391202,327023
981.806,0.078442,400190,334060
985.583,0.078764,406088,338732
989.355,0.079845,410162,341280
993.124,0.080260,412868,343203
996.888,0.080325,414263,344311
1000.65,0.081279,415476,344562
1004.4,0.082088,415479,343923
1009.41,0.083671,414358,341747
1013.15,0.083942,412923,340351
1016.89,0.084501,411526,338763
1020.63,0.084201,409066,336971
1024.36,0.084775,406777,334643
1028.09,0.084289,404427,333082
1031.82,0.084273,401911,331022
1036.78,0.084415,398410,328031
1040.49,0.083475,396204,326922
1044.2,0.082943,394236,325697
1047.91,0.083666,392042,323345
1051.61,0.083155,389823,321894
1055.31,0.082334,388234,321188
1059,0.082383,387599,320627
1063.92,0.081220,386688,320731
1067.61,0.080345,386598,321303
1071.29,0.080785,387377,321624
1074.96,0.079728,388536,323373
1078.63,0.078598,389855,325316
1082.3,0.077634,391215,327176
1085.96,0.077329,393215,329080
1090.84,0.076996,396270,331891
1094.49,0.076166,398760,334615
1098.14,0.075275,400987,337175
1101.79,0.074657,403477,339752
1105.43,0.074891,406116,341790
1109.06,0.073742,407701,344033
1112.7,0.073537,409859,346017
1117.53,0.073261,412494,348463
1121.15,0.073549,414909,350271
1124.77,0.073078,416559,352045
1128.38,0.074862,418532,352263
1131.99,0.075190,419956,353194
1135.6,0.076902,421946,353472
1139.2,0.078602,423881,353706
1143.99,0.080293,426786,354746
1147.58,0.080757,428617,355887
1151.17,0.081583,431169,357326
1154.75,0.082447,433579,358609
1158.33,0.083879,436264,359642
1161.91,0.085667,439132,360519
1165.48,0.088652,442389,360705
1169.04,0.090225,446101,362417
1173.79,0.093939,451929,364025
1177.34,0.095618,456026,365908
1180.9,0.097691,461306,368382
1184.44,0.099904,467657,371555
1187.99,0.100347,473969,376186
1191.52,0.100312,479856,380889
1195.06,0.100747,487372,386468
1199.76,0.100341,497347,394747
1203.29,0.099196,504311,401331
1206.81,0.098455,511507,407752
1210.33,0.098389,519078,413851
1213.84,0.097684,527163,420979
1217.35,0.097508,534208,426778
1220.85,0.096303,540472,432982
1225.51,0.095294,549929,441583
1229.01,0.095054,556888,447418
1232.5,0.094358,562180,452395
1235.98,0.093202,567975,458276
1239.46,0.092685,574815,464347
1242.94,0.091492,582782,472078
1246.41,0.091091,591476,479563
1251.03,0.091245,604016,489557
1254.5,0.090974,612289,496572
1257.96,0.091498,619125,501511
1261.41,0.092066,624551,505245
1264.86,0.092493,629900,509071
1268.31,0.093005,634345,512060
1271.75,0.093430,638574,514969
1276.33,0.093954,642499,517510
1279.76,0.093664,645905,520600
1283.19,0.093499,648307,522735
1286.61,0.093046,650446,525007
1290.03,0.093063,652132,526348
1293.44,0.091985,653907,529092
1296.85,0.091845,655963,530927
1301.39,0.091619,657349,532325
1304.8,0.091582,657558,532540
1308.19,0.091756,658515,533101
1311.58,0.091831,658804,533243
1314.97,0.092371,659011,532748
1318.36,0.092743,658272,531695
1321.73,0.092606,658022,531661
1326.23,0.093531,657870,530407
1329.6,0.094221,656482,528448
1332.97,0.095341,654926,525837
1336.33,0.096020,653727,524055
1339.69,0.097136,652497,521726
1343.04,0.098973,649913,517467
1346.39,0.101055,647671,513215
1349.73,0.102727,645338,509402
1354.18,0.105407,641175,503002
1357.52,0.107702,638376,498167
1360.85,0.109607,635805,493989
1364.17,0.111352,633413,490157
1367.49,0.113579,631026,485812
1370.81,0.115430,628050,481464
1374.12,0.117567,625034,476800
1378.54,0.119855,620272,470682
1381.84,0.122680,616892,465082
1385.14,0.126107,613613,458973
1388.43,0.129957,611526,453375
1391.72,0.133670,610663,448881
1395.01,0.137540,610634,444878
1398.29,0.141135,611700,441981
1402.66,0.147165,614051,437562
1405.93,0.151590,616268,434690
1409.2,0.156005,617795,431360
1412.46,0.160506,618872,427656
1415.72,0.163877,619795,424983
1418.98,0.167551,620495,421878
1422.23,0.170731,621087,419200
1426.56,0.174502,621375,415769
1429.8,0.177421,621616,413144
1433.04,0.179402,622129,411603
1436.27,0.181889,621526,408856
1439.5,0.183686,621113,406897
1442.72,0.186122,620921,404496
1445.94,0.188852,620270,401540
1450.23,0.192114,618860,397629
1453.44,0.194639,617697,394581
1456.64,0.197772,616264,390836
1459.85,0.200475,614413,387245
1463.04,0.203622,612307,383131
1466.24,0.207325,610032,378467
1469.43,0.211179,607345,373471
1473.67,0.217941,603789,365548
1476.85,0.223437,601175,359388
1480.02,0.230053,597737,351931
1483.19,0.236538,594479,344825
1486.36,0.242561,591232,338218
1489.52,0.248108,587853,332017
1492.68,0.250748,583875,327772
1496.89,0.253079,578062,322772
1500.03,0.254051,574159,319876
1503.18,0.254106,570285,317677
1506.32,0.253396,565444,315496
1509.45,0.251568,560571,314096
1512.58,0.250289,555821,312353
1515.71,0.247317,550344,311399
1519.87,0.244671,543983,309681
1522.99,0.242985,538764,307903
1526.1,0.239821,533692,307234
1529.21,0.236819,527902,306009
1532.32,0.233474,521886,304861
1535.42,0.230425,515888,303480
1538.51,0.227828,509987,301808
1541.6,0.225260,503936,299996
1545.72,0.220809,494694,297528
1548.8,0.217624,488378,295891
1551.88,0.215268,481832,293513
1554.95,0.214137,474989,290099
1558.02,0.212048,467818,287097
1561.08,0.211830,460730,282889
1564.15,0.211329,454170,279183
1568.22,0.210052,444181,273847
1571.27,0.208978,436947,270054
1574.32,0.208801,429598,265620
1577.36,0.207715,422039,261600
1580.4,0.206239,414375,257724
1583.43,0.204071,406354,254000
1586.46,0.202996,398475,249692
1590.49,0.201462,388982,244606
1593.51,0.199865,380708,240285
1596.53,0.197461,372727,236554
1599.54,0.194984,365060,233013
1602.55,0.193567,357543,228961
1605.55,0.191786,349495,224727
1608.55,0.189865,341154,220336
1612.54,0.188258,330877,214491
1615.53,0.185675,322904,210571
1618.51,0.185097,315116,205766
1621.49,0.184295,307217,200979
1624.47,0.183916,299481,196089
1627.44,0.182545,292112,191869
1630.41,0.180573,284245,187551
1634.36,0.179835,274079,181151
1637.32,0.178669,266916,176891
1640.27,0.178670,259612,172050
1643.22,0.177139,251804,167465
1646.16,0.176397,244348,162784
1649.1,0.176716,236703,157575
1652.04,0.174475,228171,152681
1655.95,0.170766,215408,145377
1658.88,0.167944,204937,139212
1661.8,0.161234,193395,133417
1664.72,0.154714,179728,125864
1667.63,0.141185,163642,118225
1670.54,0.126890,146312,109242
1673.44,0.110631,128451,99565
1677.31,0.090378,105080,85338
1680.21,0.078211,88906,74254
1683.1,0.075388,75033,63076
1685.99,0.070549,63520,53996
1688.87,0.076672,53714,45021
1691.75,0.081495,45653,37842
1694.62,0.082982,39137,32330
1697.49,0.088282,33776,27563
1701.31,0.101617,28175,22297