Folder: textile_sorting_NIRSCAN_/samples/wool/wool-000811 (part 145)

File: Column 1_050612_20150331_122914.csv
Method:,Column 1,,
Host Date-Time:,31/3/15 @ 12:29:14,,
Header Version:,1,,
System Temp (C):,34.07,,
Detector Temp (C):,34.9,,
Humidity (%):,1.66,,
Lamp PD:,3818,,
Shift Vector Coefficients:,-10.5391,0.0761263,-0.000134223,,
Pixel to Wavelength Coefficients:,1775.68,-0.916766,-0.000235065,,
Serial Number:,5510004,,
Scan Config Name:,Column 1,,
Scan Config Type:,Slew,,
Section 1,,
Start wavelength (nm):,900,,
End wavelength (nm):,1700,,
Pattern Pixel Width (nm):,   7.03,,,,
Exposure (ms):,  0.635,,,,
Digital Resolution:,228,,
Num Repeats:,6,,
PGA Gain:,64,,
Total Measurement Time in sec:,  2.665,,
Wavelength (nm),Absorbance (AU),Reference Signal (unitless),Sample Signal (unitless)
901.51,0.068566,108485,92641
905.376,0.073523,121306,102414
909.237,0.075660,131909,110819
913.095,0.076505,143299,120154
916.948,0.078045,156982,131161
922.079,0.081020,179937,149314
925.923,0.080680,200504,166511
929.762,0.081669,222660,184490
933.597,0.081656,244426,202531
937.427,0.079813,263972,219657
941.254,0.079782,281845,234546
945.076,0.079120,297271,247761
950.165,0.078528,315605,263400
953.978,0.076643,328029,274960
957.786,0.077449,340470,284859
961.59,0.077658,352317,294629
965.389,0.077163,363056,303956
969.185,0.077455,373162,312207
972.976,0.078035,382632,319703
976.763,0.078003,391202,326887
981.806,0.078824,400190,333766
985.583,0.079864,406088,337875
989.355,0.079275,410162,341728
993.124,0.079828,412868,343545
996.888,0.080675,414263,344034
1000.65,0.081411,415476,344457
1004.4,0.082717,415479,343425
1009.41,0.083820,414358,341630
1013.15,0.084662,412923,339787
1016.89,0.084866,411526,338479
1020.63,0.084604,409066,336658
1024.36,0.084888,406777,334556
1028.09,0.084349,404427,333036
1031.82,0.084054,401911,331189
1036.78,0.084050,398410,328307
1040.49,0.083617,396204,326815
1044.2,0.083518,394236,325266
1047.91,0.083214,392042,323682
1051.61,0.083466,389823,321663
1055.31,0.083014,388234,320686
1059,0.082353,387599,320649
1063.92,0.081351,386688,320634
1067.61,0.080437,386598,321235
1071.29,0.079964,387377,322233
1074.96,0.079914,388536,323234
1078.63,0.079652,389855,324527
1082.3,0.078542,391215,326493
1085.96,0.077953,393215,328607
1090.84,0.076756,396270,332074
1094.49,0.076057,398760,334699
1098.14,0.075388,400987,337087
1101.79,0.075435,403477,339144
1105.43,0.075109,406116,341618
1109.06,0.073920,407701,343892
1112.7,0.073212,409859,346276
1117.53,0.073277,412494,348450
1121.15,0.073598,414909,350231
1124.77,0.073755,416559,351497
1128.38,0.074779,418532,352330
1131.99,0.076048,419956,352497
1135.6,0.077858,421946,352695
1139.2,0.077993,423881,354202
1143.99,0.080609,426786,354488
1147.58,0.081902,428617,354950
1151.17,0.082201,431169,356818
1154.75,0.082852,433579,358275
1158.33,0.085109,436264,358625
1161.91,0.086494,439132,359833
1165.48,0.088891,442389,360507
1169.04,0.091127,446101,361665
1173.79,0.094071,451929,363914
1177.34,0.096298,456026,365335
1180.9,0.098206,461306,367945
1184.44,0.099807,467657,371638
1187.99,0.101243,473969,375411
1191.52,0.100555,479856,380676
1195.06,0.100911,487372,386322
1199.76,0.100521,497347,394583
1203.29,0.099422,504311,401122
1206.81,0.099044,511507,407200
1210.33,0.098470,519078,413773
1213.84,0.097854,527163,420815
1217.35,0.097329,534208,426954
1220.85,0.096448,540472,432838
1225.51,0.095685,549929,441186
1229.01,0.095459,556888,447001
1232.5,0.094736,562180,452001
1235.98,0.094220,567975,457203
1239.46,0.093210,574815,463787
1242.94,0.092157,582782,471356
1246.41,0.091559,591476,479047
1251.03,0.091821,604016,488908
1254.5,0.092030,612289,495366
1257.96,0.092382,619125,500491
1261.41,0.092741,624551,504460
1264.86,0.093347,629900,508071
1268.31,0.093578,634345,511385
1271.75,0.094151,638574,514115
1276.33,0.094442,642499,516928
1279.76,0.094212,645905,519944
1283.19,0.093690,648307,522505
1286.61,0.093268,650446,524739
1290.03,0.093034,652132,526382
1293.44,0.092695,653907,528227
1296.85,0.092821,655963,529735
1301.39,0.092361,657349,531417
1304.8,0.091981,657558,532051
1308.19,0.092352,658515,532370
1311.58,0.092062,658804,532960
1314.97,0.092708,659011,532335
1318.36,0.093188,658272,531150
1321.73,0.093361,658022,530737
1326.23,0.094324,657870,529439
1329.6,0.094997,656482,527504
1332.97,0.095685,654926,525421
1336.33,0.096871,653727,523028
1339.69,0.098356,652497,520262
1343.04,0.099518,649913,516818
1346.39,0.101721,647671,512429
1349.73,0.103910,645338,508016
1354.18,0.106370,641175,501888
1357.52,0.108489,638376,497265
1360.85,0.109971,635805,493575
1364.17,0.112318,633413,489068
1367.49,0.114300,631026,485006
1370.81,0.116375,628050,480418
1374.12,0.118821,625034,475426
1378.54,0.121562,620272,468835
1381.84,0.124366,616892,463280
1385.14,0.127657,613613,457338
1388.43,0.131386,611526,451886
1391.72,0.135314,610663,447185
1395.01,0.139099,610634,443284
1398.29,0.143808,611700,439269
1402.66,0.149695,614051,435020
1405.93,0.154384,616268,431902
1409.2,0.159204,617795,428194
1412.46,0.163496,618872,424722
1415.72,0.167716,619795,421242
1418.98,0.170541,620495,418984
1422.23,0.174027,621087,416031
1426.56,0.177768,621375,412654
1429.8,0.179989,621616,410708
1433.04,0.182930,622129,408273
1436.27,0.184971,621526,405965
1439.5,0.187180,621113,403637
1442.72,0.189306,620921,401541
1445.94,0.192181,620270,398474
1450.23,0.195562,618860,394485
1453.44,0.197988,617697,391550
1456.64,0.201113,616264,387841
1459.85,0.203826,614413,384268
1463.04,0.206398,612307,380690
1466.24,0.210209,610032,375962
1469.43,0.213719,607345,371293
1473.67,0.220049,603789,363778
1476.85,0.226327,601175,357005
1480.02,0.232322,597737,350097
1483.19,0.238198,594479,343509
1486.36,0.243695,591232,337336
1489.52,0.249576,587853,330897
1492.68,0.252364,583875,326555
1496.89,0.254819,578062,321481
1500.03,0.255641,574159,318707
1503.18,0.254982,570285,317037
1506.32,0.254918,565444,314392
1509.45,0.253471,560571,312723
1512.58,0.251799,555821,311269
1515.71,0.249048,550344,310160
1519.87,0.246643,543983,308278
1522.99,0.243161,538764,307778
1526.1,0.241168,533692,306283
1529.21,0.238316,527902,304956
1532.32,0.235540,521886,303414
1535.42,0.233281,515888,301491
1538.51,0.229995,509987,300306
1541.6,0.227115,503936,298717
1545.72,0.222381,494694,296453
1548.8,0.220186,488378,294151
1551.88,0.217812,481832,291799
1554.95,0.215628,474989,289105
1558.02,0.214690,467818,285356
1561.08,0.212742,460730,282296
1564.15,0.212648,454170,278337
1568.22,0.211962,444181,272645
1571.27,0.210856,436947,268889
1574.32,0.209623,429598,265118
1577.36,0.209155,422039,260734
1580.4,0.207985,414375,256690
1583.43,0.206279,406354,252712
1586.46,0.205176,398475,248442
1590.49,0.203136,388982,243665
1593.51,0.201651,380708,239299
1596.53,0.198646,372727,235909
1599.54,0.196850,365060,232014
1602.55,0.194615,357543,228409
1605.55,0.192534,349495,224340
1608.55,0.190747,341154,219889
1612.54,0.189131,330877,214060
1615.53,0.187469,322904,209703
1618.51,0.187113,315116,204813
1621.49,0.185838,307217,200266
1624.47,0.185018,299481,195592
1627.44,0.183689,292112,191364
1630.41,0.182200,284245,186850
1634.36,0.180862,274079,180723
1637.32,0.181655,266916,175679
1640.27,0.180251,259612,171425
1643.22,0.178390,251804,166983
1646.16,0.178504,244348,161996
1649.1,0.177158,236703,157415
1652.04,0.175803,228171,152215
1655.95,0.172610,215408,144761
1658.88,0.169581,204937,138688
1661.8,0.163185,193395,132819
1664.72,0.155758,179728,125562
1667.63,0.143480,163642,117602
1670.54,0.128424,146312,108857
1673.44,0.114407,128451,98703
1677.31,0.090979,105080,85220
1680.21,0.081187,88906,73747
1683.1,0.075416,75033,63072
1685.99,0.072766,63520,53721
1688.87,0.077261,53714,44960
1691.75,0.082875,45653,37722
1694.62,0.088634,39137,31912
1697.49,0.095639,33776,27100
1701.31,0.098725,28175,22446

File: Column 1_050612_20150331_122923.csv
Method:,Column 1,,
Host Date-Time:,31/3/15 @ 12:29:23,,
Header Version:,1,,
System Temp (C):,34.09,,
Detector Temp (C):,34.87,,
Humidity (%):,1.66,,
Lamp PD:,3818,,
Shift Vector Coefficients:,-10.5391,0.0761263,-0.000134223,,
Pixel to Wavelength Coefficients:,1775.68,-0.916766,-0.000235065,,
Serial Number:,5510004,,
Scan Config Name:,Column 1,,
Scan Config Type:,Slew,,
Section 1,,
Start wavelength (nm):,900,,
End wavelength (nm):,1700,,
Pattern Pixel Width (nm):,   7.03,,,,
Exposure (ms):,  0.635,,,,
Digital Resolution:,228,,
Num Repeats:,6,,
PGA Gain:,64,,
Total Measurement Time in sec:,  2.679,,
Wavelength (nm),Absorbance (AU),Reference Signal (unitless),Sample Signal (unitless)
901.51,0.069181,108485,92510
905.376,0.074997,121306,102067
909.237,0.076959,131909,110488
913.095,0.076718,143299,120095
916.948,0.076789,156982,131541
922.079,0.080750,179937,149407
925.923,0.080597,200504,166543
929.762,0.082522,222660,184128
933.597,0.081759,244426,202483
937.427,0.080614,263972,219252
941.254,0.079901,281845,234482
945.076,0.079379,297271,247613
950.165,0.078325,315605,263523
953.978,0.077383,328029,274492
957.786,0.077175,340470,285039
961.59,0.077580,352317,294682
965.389,0.077254,363056,303892
969.185,0.077619,373162,312089
972.976,0.077068,382632,320415
976.763,0.078212,391202,326730
981.806,0.078573,400190,333959
985.583,0.079307,406088,338309
989.355,0.079399,410162,341630
993.124,0.080425,412868,343073
996.888,0.080655,414263,344050
1000.65,0.081690,415476,344236
1004.4,0.082070,415479,343937
1009.41,0.084073,414358,341431
1013.15,0.084719,412923,339743
1016.89,0.084706,411526,338603
1020.63,0.084396,409066,336820
1024.36,0.084485,406777,334866
1028.09,0.084236,404427,333123
1031.82,0.084184,401911,331090
1036.78,0.083791,398410,328503
1040.49,0.083978,396204,326543
1044.2,0.083957,394236,324937
1047.91,0.083362,392042,323572
1051.61,0.082888,389823,322092
1055.31,0.082488,388234,321074
1059,0.082292,387599,320694
1063.92,0.081015,386688,320882
1067.61,0.081029,386598,320797
1071.29,0.080031,387377,322183
1074.96,0.080007,388536,323165
1078.63,0.078930,389855,325067
1082.3,0.078908,391215,326218
1085.96,0.077741,393215,328768
1090.84,0.076469,396270,332294
1094.49,0.075690,398760,334982
1098.14,0.075799,400987,336768
1101.79,0.074694,403477,339723
1105.43,0.074261,406116,342286
1109.06,0.073604,407701,344142
1112.7,0.073749,409859,345848
1117.53,0.073236,412494,348483
1121.15,0.073813,414909,350058
1124.77,0.073312,416559,351856
1128.38,0.074667,418532,352421
1131.99,0.075299,419956,353106
1135.6,0.077455,421946,353022
1139.2,0.078599,423881,353708
1143.99,0.080862,426786,354281
1147.58,0.081199,428617,355525
1151.17,0.082408,431169,356648
1154.75,0.083525,433579,357720
1158.33,0.084360,436264,359244
1161.91,0.086214,439132,360065
1165.48,0.088423,442389,360895
1169.04,0.090632,446101,362077
1173.79,0.093742,451929,364190
1177.34,0.095930,456026,365645
1180.9,0.098150,461306,367993
1184.44,0.100438,467657,371099
1187.99,0.100993,473969,375627
1191.52,0.100705,479856,380545
1195.06,0.100881,487372,386349
1199.76,0.100084,497347,394980
1203.29,0.099287,504311,401247
1206.81,0.099115,511507,407133
1210.33,0.098181,519078,414049
1213.84,0.098047,527163,420628
1217.35,0.097331,534208,426952
1220.85,0.096373,540472,432913
1225.51,0.097547,549929,439298
1229.01,0.095284,556888,447182
1232.5,0.095096,562180,451626
1235.98,0.094112,567975,457317
1239.46,0.093081,574815,463924
1242.94,0.091942,582782,471589
1246.41,0.091647,591476,478950
1251.03,0.091613,604016,489142
1254.5,0.091831,612289,495593
1257.96,0.091647,619125,501339
1261.41,0.092234,624551,505049
1264.86,0.092986,629900,508494
1268.31,0.093486,634345,511493
1271.75,0.094190,638574,514069
1276.33,0.094753,642499,516559
1279.76,0.094448,645905,519662
1283.19,0.093877,648307,522280
1286.61,0.093613,650446,524322
1290.03,0.093351,652132,525999
1293.44,0.092689,653907,528235
1296.85,0.092215,655963,530474
1301.39,0.092334,657349,531450
1304.8,0.091942,657558,532098
1308.19,0.092067,658515,532719
1311.58,0.092306,658804,532660
1314.97,0.092914,659011,532082
1318.36,0.092862,658272,531549
1321.73,0.093402,658022,530687
1326.23,0.093987,657870,529850
1329.6,0.094680,656482,527889
1332.97,0.095810,654926,525270
1336.33,0.096901,653727,522992
1339.69,0.098372,652497,520243
1343.04,0.099835,649913,516440
1346.39,0.101324,647671,512897
1349.73,0.103277,645338,508757
1354.18,0.106420,641175,501830
1357.52,0.108139,638376,497665
1360.85,0.110390,635805,493099
1364.17,0.112301,633413,489087
1367.49,0.114825,631026,484420
1370.81,0.116702,628050,480056
1374.12,0.118914,625034,475324
1378.54,0.121412,620272,468997
1381.84,0.123896,616892,463781
1385.14,0.127515,613613,457488
1388.43,0.131206,611526,452073
1391.72,0.135048,610663,447459
1395.01,0.139120,610634,443263
1398.29,0.143518,611700,439562
1402.66,0.149422,614051,435294
1405.93,0.154197,616268,432088
1409.2,0.159051,617795,428345
1412.46,0.163177,618872,425034
1415.72,0.167335,619795,421612
1418.98,0.170974,620495,418566
1422.23,0.173835,621087,416215
1426.56,0.178175,621375,412267
1429.8,0.180263,621616,410449
1433.04,0.182542,622129,408638
1436.27,0.184901,621526,406030
1439.5,0.186680,621113,404102
1442.72,0.189526,620921,401338
1445.94,0.192198,620270,398458
1450.23,0.195387,618860,394644
1453.44,0.197902,617697,391628
1456.64,0.200717,616264,388195
1459.85,0.203457,614413,384595
1463.04,0.206402,612307,380686
1466.24,0.209828,610032,376292
1469.43,0.214100,607345,370967
1473.67,0.220243,603789,363615
1476.85,0.225801,601175,357437
1480.02,0.232262,597737,350145
1483.19,0.238645,594479,343156
1486.36,0.244849,591232,336441
1489.52,0.249118,587853,331246
1492.68,0.252341,583875,326572
1496.89,0.255072,578062,321294
1500.03,0.255201,574159,319030
1503.18,0.255430,570285,316710
1506.32,0.254202,565444,314911
1509.45,0.252981,560571,313076
1512.58,0.251183,555821,311711
1515.71,0.249436,550344,309883
1519.87,0.246337,543983,308495
1522.99,0.243431,538764,307587
1526.1,0.241403,533692,306117
1529.21,0.238016,527902,305167
1532.32,0.235198,521886,303653
1535.42,0.232628,515888,301945
1538.51,0.229694,509987,300514
1541.6,0.226147,503936,299384
1545.72,0.223165,494694,295918
1548.8,0.220078,488378,294224
1551.88,0.217319,481832,292130
1554.95,0.214812,474989,289649
1558.02,0.213769,467818,285962
1561.08,0.212791,460730,282264
1564.15,0.212701,454170,278303
1568.22,0.210488,444181,273572
1571.27,0.211358,436947,268578
1574.32,0.209874,429598,264965
1577.36,0.208349,422039,261218
1580.4,0.207988,414375,256688
1583.43,0.205770,406354,253008
1586.46,0.203952,398475,249143
1590.49,0.202805,388982,243851
1593.51,0.200131,380708,240138
1596.53,0.198996,372727,235719
1599.54,0.196375,365060,232268
1602.55,0.194954,357543,228231
1605.55,0.192478,349495,224369
1608.55,0.190834,341154,219845
1612.54,0.189704,330877,213778
1615.53,0.187576,322904,209651
1618.51,0.186321,315116,205187
1621.49,0.185558,307217,200395
1624.47,0.184102,299481,196005
1627.44,0.183528,292112,191435
1630.41,0.182765,284245,186607
1634.36,0.180865,274079,180722
1637.32,0.180487,266916,176152
1640.27,0.180013,259612,171519
1643.22,0.178572,251804,166913
1646.16,0.177894,244348,162224
1649.1,0.177942,236703,157131
1652.04,0.176220,228171,152069
1655.95,0.171708,215408,145062
1658.88,0.169550,204937,138698
1661.8,0.163623,193395,132685
1664.72,0.155436,179728,125655
1667.63,0.141983,163642,118008
1670.54,0.128025,146312,108957
1673.44,0.112537,128451,99129
1677.31,0.092531,105080,84916
1680.21,0.081340,88906,73721
1683.1,0.074439,75033,63214
1685.99,0.077268,63520,53167
1688.87,0.078955,53714,44785
1691.75,0.078932,45653,38066
1694.62,0.084948,39137,32184
1697.49,0.092748,33776,27281
1701.31,0.106022,28175,22072

File: Column 1_050612_20150331_122926.csv
Method:,Column 1,,
Host Date-Time:,31/3/15 @ 12:29:26,,
Header Version:,1,,
System Temp (C):,34.09,,
Detector Temp (C):,34.89,,
Humidity (%):,1.66,,
Lamp PD:,3818,,
Shift Vector Coefficients:,-10.5391,0.0761263,-0.000134223,,
Pixel to Wavelength Coefficients:,1775.68,-0.916766,-0.000235065,,
Serial Number:,5510004,,
Scan Config Name:,Column 1,,
Scan Config Type:,Slew,,
Section 1,,
Start wavelength (nm):,900,,
End wavelength (nm):,1700,,
Pattern Pixel Width (nm):,   7.03,,,,
Exposure (ms):,  0.635,,,,
Digital Resolution:,228,,
Num Repeats:,6,,
PGA Gain:,64,,
Total Measurement Time in sec:,  2.725,,
Wavelength (nm),Absorbance (AU),Reference Signal (unitless),Sample Signal (unitless)
901.51,0.070333,108485,92265
905.376,0.075418,121306,101968
909.237,0.076951,131909,110490
913.095,0.077881,143299,119774
916.948,0.078300,156982,131084
922.079,0.081259,179937,149232
925.923,0.081523,200504,166188
929.762,0.081540,222660,184545
933.597,0.082216,244426,202270
937.427,0.081399,263972,218856
941.254,0.079423,281845,234740
945.076,0.079832,297271,247355
950.165,0.078022,315605,263707
953.978,0.078035,328029,274080
957.786,0.078288,340470,284309
961.59,0.078173,352317,294280
965.389,0.077176,363056,303947
969.185,0.078056,373162,311775
972.976,0.078100,382632,319655
976.763,0.078531,391202,326490
981.806,0.078850,400190,333746
985.583,0.079217,406088,338379
989.355,0.079429,410162,341607
993.124,0.079909,412868,343481
996.888,0.080867,414263,343882
1000.65,0.081253,415476,344582
1004.4,0.082621,415479,343501
1009.41,0.084346,414358,341216
1013.15,0.084439,412923,339962
1016.89,0.085008,411526,338368
1020.63,0.084197,409066,336974
1024.36,0.084860,406777,334577
1028.09,0.084725,404427,332748
1031.82,0.084036,401911,331203
1036.78,0.083390,398410,328806
1040.49,0.083969,396204,326550
1044.2,0.083560,394236,325234
1047.91,0.083146,392042,323733
1051.61,0.083325,389823,321768
1055.31,0.082560,388234,321021
1059,0.082530,387599,320518
1063.92,0.081384,386688,320610
1067.61,0.080338,386598,321308
1071.29,0.080180,387377,322073
1074.96,0.080038,388536,323142
1078.63,0.079226,389855,324846
1082.3,0.078301,391215,326674
1085.96,0.077397,393215,329028
1090.84,0.076949,396270,331927
1094.49,0.076662,398760,334233
1098.14,0.075852,400987,336727
1101.79,0.074662,403477,339748
1105.43,0.075098,406116,341627
1109.06,0.074055,407701,343785
1112.7,0.074100,409859,345569
1117.53,0.073126,412494,348571
1121.15,0.073623,414909,350211
1124.77,0.074100,416559,351218
1128.38,0.074812,418532,352303
1131.99,0.075901,419956,352617
1135.6,0.077138,421946,353280
1139.2,0.078738,423881,353595
1143.99,0.080394,426786,354663
1147.58,0.081303,428617,355440
1151.17,0.082033,431169,356956
1154.75,0.082869,433579,358261
1158.33,0.084493,436264,359134
1161.91,0.086200,439132,360077
1165.48,0.088306,442389,360993
1169.04,0.091111,446101,361678
1173.79,0.094260,451929,363756
1177.34,0.095934,456026,365642
1180.9,0.098473,461306,367719
1184.44,0.100331,467657,371190
1187.99,0.101364,473969,375306
1191.52,0.101198,479856,380113
1195.06,0.101151,487372,386109
1199.76,0.100365,497347,394725
1203.29,0.099589,504311,400968
1206.81,0.099155,511507,407096
1210.33,0.098595,519078,413654
1213.84,0.097930,527163,420741
1217.35,0.097705,534208,426585
1220.85,0.096653,540472,432634
1225.51,0.095762,549929,441108
1229.01,0.095282,556888,447184
1232.5,0.094736,562180,452001
1235.98,0.094448,567975,456963
1239.46,0.093364,574815,463622
1242.94,0.092645,582782,470827
1246.41,0.092009,591476,478551
1251.03,0.091586,604016,489173
1254.5,0.091450,612289,496028
1257.96,0.092132,619125,500779
1261.41,0.092504,624551,504735
1264.86,0.093058,629900,508409
1268.31,0.093459,634345,511525
1271.75,0.094493,638574,513710
1276.33,0.094211,642499,517203
1279.76,0.094306,645905,519831
1283.19,0.093597,648307,522617
1286.61,0.093225,650446,524791
1290.03,0.093125,652132,526272
1293.44,0.092584,653907,528362
1296.85,0.092652,655963,529941
1301.39,0.092095,657349,531742
1304.8,0.091929,657558,532114
1308.19,0.092109,658515,532668
1311.58,0.092352,658804,532604
1314.97,0.092645,659011,532412
1318.36,0.093167,658272,531176
1321.73,0.093514,658022,530550
1326.23,0.094294,657870,529476
1329.6,0.094833,656482,527703
1332.97,0.095810,654926,525270
1336.33,0.096974,653727,522905
1339.69,0.098166,652497,520490
1343.04,0.099687,649913,516617
1346.39,0.101935,647671,512176
1349.73,0.103559,645338,508427
1354.18,0.106304,641175,501964
1357.52,0.108410,638376,497355
1360.85,0.110791,635805,492644
1364.17,0.112163,633413,489242
1367.49,0.114356,631026,484944
1370.81,0.116647,628050,480117
1374.12,0.118606,625034,475661
1378.54,0.121715,620272,468670
1381.84,0.124663,616892,462963
1385.14,0.127874,613613,457110
1388.43,0.131025,611526,452262
1391.72,0.135170,610663,447334
1395.01,0.139252,610634,443128
1398.29,0.143672,611700,439407
1402.66,0.149807,614051,434908
1405.93,0.154707,616268,431581
1409.2,0.159350,617795,428050
1412.46,0.163613,618872,424608
1415.72,0.167533,619795,421420
1418.98,0.170675,620495,418855
1422.23,0.173808,621087,416241
1426.56,0.177554,621375,412857
1429.8,0.180471,621616,410252
1433.04,0.182599,622129,408584
1436.27,0.184782,621526,406141
1439.5,0.187369,621113,403461
1442.72,0.189481,620921,401380
1445.94,0.191676,620270,398937
1450.23,0.195464,618860,394574
1453.44,0.198342,617697,391231
1456.64,0.201277,616264,387695
1459.85,0.203294,614413,384739
1463.04,0.206399,612307,380689
1466.24,0.210224,610032,375949
1469.43,0.213878,607345,371157
1473.67,0.220423,603789,363465
1476.85,0.226271,601175,357051
1480.02,0.232254,597737,350152
1483.19,0.238550,594479,343231
1486.36,0.244376,591232,336808
1489.52,0.249590,587853,330886
1492.68,0.252604,583875,326374
1496.89,0.254248,578062,321904
1500.03,0.255444,574159,318851
1503.18,0.255736,570285,316487
1506.32,0.254166,565444,314937
1509.45,0.253935,560571,312389
1512.58,0.251760,555821,311297
1515.71,0.249626,550344,309748
1519.87,0.246756,543983,308198
1522.99,0.243248,538764,307716
1526.1,0.240767,533692,306566
1529.21,0.237898,527902,305250
1532.32,0.234966,521886,303815
1535.42,0.233039,515888,301659
1538.51,0.229353,509987,300750
1541.6,0.226857,503936,298895
1545.72,0.222781,494694,296180
1548.8,0.219055,488378,294918
1551.88,0.218168,481832,291560
1554.95,0.215986,474989,288867
1558.02,0.214284,467818,285623
1561.08,0.212542,460730,282426
1564.15,0.213335,454170,277897
1568.22,0.211657,444181,272837
1571.27,0.210951,436947,268830
1574.32,0.209875,429598,264964
1577.36,0.209122,422039,260754
1580.4,0.207560,414375,256941
1583.43,0.205681,406354,253060
1586.46,0.204217,398475,248991
1590.49,0.202801,388982,243853
1593.51,0.201230,380708,239531
1596.53,0.198742,372727,235857
1599.54,0.197234,365060,231809
1602.55,0.194651,357543,228390
1605.55,0.192602,349495,224305
1608.55,0.191884,341154,219314
1612.54,0.188730,330877,214258
1615.53,0.187067,322904,209897
1618.51,0.185959,315116,205358
1621.49,0.185966,307217,200207
1624.47,0.184778,299481,195700
1627.44,0.183819,292112,191307
1630.41,0.181847,284245,187002
1634.36,0.180351,274079,180936
1637.32,0.180053,266916,176328
1640.27,0.180443,259612,171349
1643.22,0.178099,251804,167095
1646.16,0.178097,244348,162148
1649.1,0.177782,236703,157189
1652.04,0.176411,228171,152002
1655.95,0.172715,215408,144726
1658.88,0.168109,204937,139159
1661.8,0.164685,193395,132361
1664.72,0.154545,179728,125913
1667.63,0.144986,163642,117195
1670.54,0.128831,146312,108755
1673.44,0.113537,128451,98901
1677.31,0.093216,105080,84782
1680.21,0.081464,88906,73700
1683.1,0.074226,75033,63245
1685.99,0.073900,63520,53581
1688.87,0.079120,53714,44768
1691.75,0.081736,45653,37821
1694.62,0.084408,39137,32224
1697.49,0.093959,33776,27205
1701.31,0.110015,28175,21870