Folder: textile_sorting_NIRSCAN_/samples/wool/wool-000811 (part 153)

File: Column 1_050615_20150331_123051.csv
Method:,Column 1,,
Host Date-Time:,31/3/15 @ 12:30:51,,
Header Version:,1,,
System Temp (C):,34.14,,
Detector Temp (C):,34.93,,
Humidity (%):,1.66,,
Lamp PD:,3818,,
Shift Vector Coefficients:,-10.5391,0.0761263,-0.000134223,,
Pixel to Wavelength Coefficients:,1775.68,-0.916766,-0.000235065,,
Serial Number:,5510004,,
Scan Config Name:,Column 1,,
Scan Config Type:,Slew,,
Section 1,,
Start wavelength (nm):,900,,
End wavelength (nm):,1700,,
Pattern Pixel Width (nm):,   7.03,,,,
Exposure (ms):,  0.635,,,,
Digital Resolution:,228,,
Num Repeats:,6,,
PGA Gain:,64,,
Total Measurement Time in sec:,  2.724,,
Wavelength (nm),Absorbance (AU),Reference Signal (unitless),Sample Signal (unitless)
901.51,0.067948,108485,92773
905.376,0.072959,121306,102547
909.237,0.080036,131909,109708
913.095,0.077783,143299,119801
916.948,0.078933,156982,130893
922.079,0.080241,179937,149582
925.923,0.081226,200504,166302
929.762,0.082386,222660,184186
933.597,0.082646,244426,202070
937.427,0.080497,263972,219311
941.254,0.079916,281845,234474
945.076,0.079128,297271,247756
950.165,0.078371,315605,263495
953.978,0.077506,328029,274414
957.786,0.077705,340470,284691
961.59,0.078157,352317,294291
965.389,0.077309,363056,303854
969.185,0.077631,373162,312080
972.976,0.077724,382632,319932
976.763,0.078930,391202,326190
981.806,0.079103,400190,333552
985.583,0.079533,406088,338133
989.355,0.079824,410162,341296
993.124,0.080583,412868,342948
996.888,0.080594,414263,344098
1000.65,0.081112,415476,344694
1004.4,0.082639,415479,343487
1009.41,0.083464,414358,341910
1013.15,0.084279,412923,340087
1016.89,0.084665,411526,338635
1020.63,0.084570,409066,336685
1024.36,0.084732,406777,334676
1028.09,0.084237,404427,333122
1031.82,0.084768,401911,330645
1036.78,0.084092,398410,328275
1040.49,0.084066,396204,326477
1044.2,0.083753,394236,325090
1047.91,0.084098,392042,323024
1051.61,0.083145,389823,321901
1055.31,0.083001,388234,320695
1059,0.082123,387599,320819
1063.92,0.081408,386688,320592
1067.61,0.080714,386598,321030
1071.29,0.080688,387377,321696
1074.96,0.080166,388536,323047
1078.63,0.078977,389855,325032
1082.3,0.078207,391215,326745
1085.96,0.077689,393215,328807
1090.84,0.076277,396270,332441
1094.49,0.076262,398760,334541
1098.14,0.075569,400987,336947
1101.79,0.075110,403477,339398
1105.43,0.075097,406116,341628
1109.06,0.073725,407701,344046
1112.7,0.073740,409859,345855
1117.53,0.073598,412494,348193
1121.15,0.074263,414909,349695
1124.77,0.073937,416559,351350
1128.38,0.074846,418532,352276
1131.99,0.076121,419956,352438
1135.6,0.077589,421946,352913
1139.2,0.078266,423881,353979
1143.99,0.080968,426786,354195
1147.58,0.081163,428617,355555
1151.17,0.082049,431169,356943
1154.75,0.083305,433579,357901
1158.33,0.084680,436264,358979
1161.91,0.086525,439132,359807
1165.48,0.088449,442389,360874
1169.04,0.090071,446101,362545
1173.79,0.093522,451929,364375
1177.34,0.096433,456026,365222
1180.9,0.098167,461306,367978
1184.44,0.100400,467657,371131
1187.99,0.100682,473969,375896
1191.52,0.101399,479856,379937
1195.06,0.100729,487372,386484
1199.76,0.100774,497347,394353
1203.29,0.099753,504311,400816
1206.81,0.098747,511507,407478
1210.33,0.098585,519078,413664
1213.84,0.097931,527163,420740
1217.35,0.097333,534208,426950
1220.85,0.096657,540472,432630
1225.51,0.095955,549929,440912
1229.01,0.095285,556888,447180
1232.5,0.094501,562180,452246
1235.98,0.094395,567975,457019
1239.46,0.093284,574815,463708
1242.94,0.092105,582782,471412
1246.41,0.091752,591476,478834
1251.03,0.091408,604016,489373
1254.5,0.091531,612289,495936
1257.96,0.092179,619125,500725
1261.41,0.092824,624551,504364
1264.86,0.093304,629900,508122
1268.31,0.093677,634345,511268
1271.75,0.094461,638574,513748
1276.33,0.094169,642499,517254
1279.76,0.094654,645905,519415
1283.19,0.093478,648307,522760
1286.61,0.093510,650446,524447
1290.03,0.093005,652132,526418
1293.44,0.092786,653907,528117
1296.85,0.092373,655963,530281
1301.39,0.092195,657349,531620
1304.8,0.092008,657558,532018
1308.19,0.092265,658515,532477
1311.58,0.092001,658804,533034
1314.97,0.092686,659011,532361
1318.36,0.093226,658272,531104
1321.73,0.093219,658022,530911
1326.23,0.094249,657870,529531
1329.6,0.095062,656482,527425
1332.97,0.096008,654926,525030
1336.33,0.096589,653727,523368
1339.69,0.098056,652497,520622
1343.04,0.099281,649913,517100
1346.39,0.101471,647671,512724
1349.73,0.103482,645338,508517
1354.18,0.106135,641175,502159
1357.52,0.108245,638376,497544
1360.85,0.110310,635805,493190
1364.17,0.112474,633413,488892
1367.49,0.114710,631026,484549
1370.81,0.116593,628050,480177
1374.12,0.118852,625034,475392
1378.54,0.121392,620272,469019
1381.84,0.123965,616892,463707
1385.14,0.127021,613613,458008
1388.43,0.130695,611526,452606
1391.72,0.134598,610663,447923
1395.01,0.138881,610634,443506
1398.29,0.143453,611700,439628
1402.66,0.149146,614051,435570
1405.93,0.154245,616268,432041
1409.2,0.158253,617795,429132
1412.46,0.162797,618872,425406
1415.72,0.166705,619795,422224
1418.98,0.170545,620495,418980
1422.23,0.173232,621087,416793
1426.56,0.177005,621375,413379
1429.8,0.179561,621616,411113
1433.04,0.182436,622129,408737
1436.27,0.184637,621526,406277
1439.5,0.186295,621113,404460
1442.72,0.189107,620921,401725
1445.94,0.190955,620270,399600
1450.23,0.194925,618860,395064
1453.44,0.197783,617697,391735
1456.64,0.200233,616264,388628
1459.85,0.202665,614413,385297
1463.04,0.205848,612307,381172
1466.24,0.210020,610032,376125
1469.43,0.213057,607345,371859
1473.67,0.219546,603789,364199
1476.85,0.225273,601175,357872
1480.02,0.231621,597737,350662
1483.19,0.238675,594479,343132
1486.36,0.243954,591232,337135
1489.52,0.249121,587853,331244
1492.68,0.253104,583875,325999
1496.89,0.254341,578062,321835
1500.03,0.255248,574159,318995
1503.18,0.254783,570285,317182
1506.32,0.254280,565444,314854
1509.45,0.253153,560571,312952
1512.58,0.251431,555821,311533
1515.71,0.248817,550344,310325
1519.87,0.245905,543983,308802
1522.99,0.243709,538764,307390
1526.1,0.241371,533692,306140
1529.21,0.237836,527902,305293
1532.32,0.235290,521886,303589
1535.42,0.231735,515888,302566
1538.51,0.229423,509987,300702
1541.6,0.226327,503936,299260
1545.72,0.222634,494694,296280
1548.8,0.219071,488378,294907
1551.88,0.217250,481832,292177
1554.95,0.215900,474989,288924
1558.02,0.213131,467818,286382
1561.08,0.213174,460730,282015
1564.15,0.212259,454170,278586
1568.22,0.211000,444181,273250
1571.27,0.211180,436947,268688
1574.32,0.209920,429598,264937
1577.36,0.207886,422039,261497
1580.4,0.207136,414375,257192
1583.43,0.205973,406354,252890
1586.46,0.204825,398475,248643
1590.49,0.202093,388982,244251
1593.51,0.200535,380708,239915
1596.53,0.198545,372727,235964
1599.54,0.196399,365060,232255
1602.55,0.194606,357543,228414
1605.55,0.192741,349495,224233
1608.55,0.191057,341154,219732
1612.54,0.189299,330877,213977
1615.53,0.187651,322904,209615
1618.51,0.185980,315116,205348
1621.49,0.185123,307217,200596
1624.47,0.184093,299481,196009
1627.44,0.184098,292112,191184
1630.41,0.183016,284245,186499
1634.36,0.181334,274079,180527
1637.32,0.180031,266916,176337
1640.27,0.180233,259612,171432
1643.22,0.180168,251804,166301
1646.16,0.178041,244348,162169
1649.1,0.177031,236703,157461
1652.04,0.176283,228171,152047
1655.95,0.172388,215408,144835
1658.88,0.168668,204937,138980
1661.8,0.164190,193395,132512
1664.72,0.155519,179728,125631
1667.63,0.143927,163642,117481
1670.54,0.130074,146312,108444
1673.44,0.111338,128451,99403
1677.31,0.092587,105080,84905
1680.21,0.080269,88906,73903
1683.1,0.076298,75033,62944
1685.99,0.075556,63520,53377
1688.87,0.077599,53714,44925
1691.75,0.084305,45653,37598
1694.62,0.091830,39137,31678
1697.49,0.097389,33776,26991
1701.31,0.102417,28175,22256

File: Column 1_050615_20150331_123054.csv
Method:,Column 1,,
Host Date-Time:,31/3/15 @ 12:30:54,,
Header Version:,1,,
System Temp (C):,34.1,,
Detector Temp (C):,34.92,,
Humidity (%):,1.66,,
Lamp PD:,3819,,
Shift Vector Coefficients:,-10.5391,0.0761263,-0.000134223,,
Pixel to Wavelength Coefficients:,1775.68,-0.916766,-0.000235065,,
Serial Number:,5510004,,
Scan Config Name:,Column 1,,
Scan Config Type:,Slew,,
Section 1,,
Start wavelength (nm):,900,,
End wavelength (nm):,1700,,
Pattern Pixel Width (nm):,   7.03,,,,
Exposure (ms):,  0.635,,,,
Digital Resolution:,228,,
Num Repeats:,6,,
PGA Gain:,64,,
Total Measurement Time in sec:,  2.664,,
Wavelength (nm),Absorbance (AU),Reference Signal (unitless),Sample Signal (unitless)
901.51,0.070022,108485,92331
905.376,0.075674,121306,101908
909.237,0.076739,131909,110544
913.095,0.077529,143299,119871
916.948,0.079471,156982,130731
922.079,0.081293,179937,149220
925.923,0.083115,200504,165580
929.762,0.082652,222660,184073
933.597,0.082618,244426,202083
937.427,0.082128,263972,218489
941.254,0.080640,281845,234083
945.076,0.079255,297271,247684
950.165,0.078528,315605,263400
953.978,0.078203,328029,273974
957.786,0.077417,340470,284880
961.59,0.078294,352317,294198
965.389,0.077585,363056,303661
969.185,0.077810,373162,311952
972.976,0.078752,382632,319175
976.763,0.078405,391202,326585
981.806,0.079318,400190,333387
985.583,0.079743,406088,337969
989.355,0.079926,410162,341216
993.124,0.080658,412868,342889
996.888,0.081088,414263,343707
1000.65,0.081823,415476,344130
1004.4,0.082606,415479,343513
1009.41,0.083854,414358,341603
1013.15,0.085109,412923,339438
1016.89,0.085265,411526,338168
1020.63,0.085107,409066,336269
1024.36,0.084601,406777,334777
1028.09,0.085318,404427,332294
1031.82,0.084845,401911,330586
1036.78,0.084654,398410,327851
1040.49,0.084286,396204,326312
1044.2,0.083957,394236,324937
1047.91,0.084040,392042,323067
1051.61,0.083406,389823,321708
1055.31,0.083224,388234,320531
1059,0.082261,387599,320717
1063.92,0.081686,386688,320387
1067.61,0.080880,386598,320907
1071.29,0.080712,387377,321678
1074.96,0.080343,388536,322915
1078.63,0.079107,389855,324935
1082.3,0.078737,391215,326346
1085.96,0.077841,393215,328692
1090.84,0.076883,396270,331977
1094.49,0.076388,398760,334444
1098.14,0.075823,400987,336750
1101.79,0.074645,403477,339761
1105.43,0.074984,406116,341717
1109.06,0.074301,407701,343590
1112.7,0.073533,409859,346020
1117.53,0.073912,412494,347941
1121.15,0.074758,414909,349297
1124.77,0.073666,416559,351569
1128.38,0.075464,418532,351775
1131.99,0.075929,419956,352594
1135.6,0.077177,421946,353248
1139.2,0.078462,423881,353820
1143.99,0.081073,426786,354109
1147.58,0.082129,428617,354765
1151.17,0.082572,431169,356513
1154.75,0.083102,433579,358069
1158.33,0.084332,436264,359267
1161.91,0.086637,439132,359715
1165.48,0.088131,442389,361138
1169.04,0.090294,446101,362359
1173.79,0.094213,451929,363795
1177.34,0.096092,456026,365509
1180.9,0.098479,461306,367714
1184.44,0.100272,467657,371241
1187.99,0.100621,473969,375949
1191.52,0.101541,479856,379813
1195.06,0.101289,487372,385986
1199.76,0.100215,497347,394861
1203.29,0.099371,504311,401169
1206.81,0.099381,511507,406884
1210.33,0.098920,519078,413345
1213.84,0.097950,527163,420722
1217.35,0.097505,534208,426781
1220.85,0.096490,540472,432796
1225.51,0.095700,549929,441171
1229.01,0.095560,556888,446897
1232.5,0.094938,562180,451791
1235.98,0.094297,567975,457122
1239.46,0.093247,574815,463747
1242.94,0.092492,582782,470993
1246.41,0.091539,591476,479069
1251.03,0.091732,604016,489008
1254.5,0.091840,612289,495583
1257.96,0.092550,619125,500298
1261.41,0.092679,624551,504532
1264.86,0.093594,629900,507782
1268.31,0.093622,634345,511333
1271.75,0.094179,638574,514082
1276.33,0.094930,642499,516348
1279.76,0.094235,645905,519916
1283.19,0.093633,648307,522574
1286.61,0.093280,650446,524724
1290.03,0.093289,652132,526073
1293.44,0.092890,653907,527990
1296.85,0.093047,655963,529459
1301.39,0.092577,657349,531152
1304.8,0.092596,657558,531298
1308.19,0.092071,658515,532715
1311.58,0.092340,658804,532618
1314.97,0.092790,659011,532234
1318.36,0.093114,658272,531241
1321.73,0.093085,658022,531075
1326.23,0.094312,657870,529454
1329.6,0.094989,656482,527514
1332.97,0.095831,654926,525244
1336.33,0.096603,653727,523352
1339.69,0.098487,652497,520105
1343.04,0.099673,649913,516633
1346.39,0.101889,647671,512231
1349.73,0.103392,645338,508622
1354.18,0.106365,641175,501894
1357.52,0.108215,638376,497579
1360.85,0.110933,635805,492483
1364.17,0.112179,633413,489224
1367.49,0.114416,631026,484877
1370.81,0.116942,628050,479791
1374.12,0.118823,625034,475424
1378.54,0.121220,620272,469204
1381.84,0.124304,616892,463346
1385.14,0.127672,613613,457322
1388.43,0.131325,611526,451950
1391.72,0.135353,610663,447145
1395.01,0.138718,610634,443673
1398.29,0.142746,611700,440344
1402.66,0.149109,614051,435608
1405.93,0.153790,616268,432494
1409.2,0.158451,617795,428937
1412.46,0.162946,618872,425260
1415.72,0.166558,619795,422367
1418.98,0.170004,620495,419502
1422.23,0.173649,621087,416393
1426.56,0.177524,621375,412886
1429.8,0.179591,621616,411085
1433.04,0.182566,622129,408615
1436.27,0.184333,621526,406562
1439.5,0.186420,621113,404344
1442.72,0.188857,620921,401957
1445.94,0.190972,620270,399585
1450.23,0.194859,618860,395124
1453.44,0.197861,617697,391665
1456.64,0.200646,616264,388258
1459.85,0.203342,614413,384697
1463.04,0.206346,612307,380735
1466.24,0.209839,610032,376282
1469.43,0.213580,607345,371412
1473.67,0.219877,603789,363922
1476.85,0.225754,601175,357476
1480.02,0.232227,597737,350173
1483.19,0.238224,594479,343489
1486.36,0.244774,591232,336499
1489.52,0.249534,587853,330929
1492.68,0.252425,583875,326509
1496.89,0.254642,578062,321612
1500.03,0.254967,574159,319202
1503.18,0.255400,570285,316732
1506.32,0.253682,565444,315288
1509.45,0.252895,560571,313138
1512.58,0.250911,555821,311906
1515.71,0.248672,550344,310429
1519.87,0.246358,543983,308480
1522.99,0.243309,538764,307673
1526.1,0.240901,533692,306471
1529.21,0.238208,527902,305032
1532.32,0.235041,521886,303763
1535.42,0.232180,515888,302256
1538.51,0.230927,509987,299662
1541.6,0.226770,503936,298955
1545.72,0.223017,494694,296019
1548.8,0.219618,488378,294536
1551.88,0.217064,481832,292302
1554.95,0.216338,474989,288633
1558.02,0.213911,467818,285868
1561.08,0.212474,460730,282470
1564.15,0.212420,454170,278483
1568.22,0.211353,444181,273028
1571.27,0.210396,436947,269174
1574.32,0.210179,429598,264779
1577.36,0.208095,422039,261371
1580.4,0.208068,414375,256641
1583.43,0.206107,406354,252812
1586.46,0.203947,398475,249146
1590.49,0.202670,388982,243927
1593.51,0.200582,380708,239889
1596.53,0.198545,372727,235964
1599.54,0.197466,365060,231685
1602.55,0.194876,357543,228272
1605.55,0.192943,349495,224129
1608.55,0.191251,341154,219634
1612.54,0.189659,330877,213800
1615.53,0.188396,322904,209256
1618.51,0.187631,315116,204569
1621.49,0.185634,307217,200360
1624.47,0.185514,299481,195369
1627.44,0.183921,292112,191262
1630.41,0.182446,284245,186744
1634.36,0.180795,274079,180751
1637.32,0.180273,266916,176239
1640.27,0.180056,259612,171502
1643.22,0.178661,251804,166879
1646.16,0.178161,244348,162124
1649.1,0.177182,236703,157406
1652.04,0.176914,228171,151826
1655.95,0.173079,215408,144605
1658.88,0.168465,204937,139045
1661.8,0.163800,193395,132631
1664.72,0.155353,179728,125679
1667.63,0.144153,163642,117420
1670.54,0.129286,146312,108641
1673.44,0.113050,128451,99012
1677.31,0.093862,105080,84656
1680.21,0.081069,88906,73767
1683.1,0.075850,75033,63009
1685.99,0.074938,63520,53453
1688.87,0.077783,53714,44906
1691.75,0.085461,45653,37498
1694.62,0.087940,39137,31963
1697.49,0.092621,33776,27289
1701.31,0.098957,28175,22434

File: Column 1_050615_20150331_123057.csv
Method:,Column 1,,
Host Date-Time:,31/3/15 @ 12:30:57,,
Header Version:,1,,
System Temp (C):,34.12,,
Detector Temp (C):,34.92,,
Humidity (%):,1.66,,
Lamp PD:,3818,,
Shift Vector Coefficients:,-10.5391,0.0761263,-0.000134223,,
Pixel to Wavelength Coefficients:,1775.68,-0.916766,-0.000235065,,
Serial Number:,5510004,,
Scan Config Name:,Column 1,,
Scan Config Type:,Slew,,
Section 1,,
Start wavelength (nm):,900,,
End wavelength (nm):,1700,,
Pattern Pixel Width (nm):,   7.03,,,,
Exposure (ms):,  0.635,,,,
Digital Resolution:,228,,
Num Repeats:,6,,
PGA Gain:,64,,
Total Measurement Time in sec:,  2.663,,
Wavelength (nm),Absorbance (AU),Reference Signal (unitless),Sample Signal (unitless)
901.51,0.068356,108485,92686
905.376,0.076365,121306,101746
909.237,0.076319,131909,110651
913.095,0.078995,143299,119467
916.948,0.078330,156982,131075
922.079,0.079780,179937,149741
925.923,0.081743,200504,166104
929.762,0.082180,222660,184273
933.597,0.082124,244426,202313
937.427,0.081021,263972,219047
941.254,0.079686,281845,234598
945.076,0.078384,297271,248181
950.165,0.078535,315605,263396
953.978,0.077228,328029,274590
957.786,0.077409,340470,284885
961.59,0.077436,352317,294780
965.389,0.077725,363056,303563
969.185,0.076975,373162,312552
972.976,0.077615,382632,320012
976.763,0.078413,391202,326579
981.806,0.078030,400190,334377
985.583,0.079738,406088,337973
989.355,0.079730,410162,341370
993.124,0.079810,412868,343559
996.888,0.080777,414263,343953
1000.65,0.081897,415476,344072
1004.4,0.082017,415479,343979
1009.41,0.083906,414358,341562
1013.15,0.084168,412923,340174
1016.89,0.084831,411526,338506
1020.63,0.084696,409066,336587
1024.36,0.084742,406777,334668
1028.09,0.083984,404427,333316
1031.82,0.084507,401911,330844
1036.78,0.083690,398410,328579
1040.49,0.083519,396204,326889
1044.2,0.083860,394236,325010
1047.91,0.083433,392042,323519
1051.61,0.082696,389823,322234
1055.31,0.083431,388234,320378
1059,0.082303,387599,320686
1063.92,0.081499,386688,320525
1067.61,0.081002,386598,320817
1071.29,0.080491,387377,321842
1074.96,0.079787,388536,323329
1078.63,0.079854,389855,324376
1082.3,0.077791,391215,327058
1085.96,0.077553,393215,328910
1090.84,0.076446,396270,332311
1094.49,0.076096,398760,334669
1098.14,0.076012,400987,336603
1101.79,0.075104,403477,339402
1105.43,0.075079,406116,341642
1109.06,0.074098,407701,343751
1112.7,0.073486,409859,346058
1117.53,0.073546,412494,348234
1121.15,0.073994,414909,349912
1124.77,0.074230,416559,351113
1128.38,0.074582,418532,352490
1131.99,0.075933,419956,352591
1135.6,0.077114,421946,353299
1139.2,0.078856,423881,353499
1143.99,0.080556,426786,354531
1147.58,0.081439,428617,355329
1151.17,0.082047,431169,356944
1154.75,0.082988,433579,358163
1158.33,0.084823,436264,358861
1161.91,0.086559,439132,359779
1165.48,0.088179,442389,361098
1169.04,0.090089,446101,362530
1173.79,0.093569,451929,364335
1177.34,0.095903,456026,365668
1180.9,0.098186,461306,367962
1184.44,0.100101,467657,371387
1187.99,0.100817,473969,375779
1191.52,0.100748,479856,380507
1195.06,0.100881,487372,386349
1199.76,0.100210,497347,394866
1203.29,0.099422,504311,401122
1206.81,0.098882,511507,407352
1210.33,0.098459,519078,413784
1213.84,0.097916,527163,420755
1217.35,0.097421,534208,426864
1220.85,0.096183,540472,433102
1225.51,0.095820,549929,441049
1229.01,0.095338,556888,447126
1232.5,0.094391,562180,452360
1235.98,0.093927,567975,457512
1239.46,0.093259,574815,463734
1242.94,0.092116,582782,471401
1246.41,0.091570,591476,479035
1251.03,0.091421,604016,489359
1254.5,0.091698,612289,495745
1257.96,0.091868,619125,501084
1261.41,0.092867,624551,504314
1264.86,0.093383,629900,508029
1268.31,0.093443,634345,511544
1271.75,0.094296,638574,513943
1276.33,0.094508,642499,516850
1279.76,0.094103,645905,520075
1283.19,0.094166,648307,521933
1286.61,0.093648,650446,524280
1290.03,0.093195,652132,526187
1293.44,0.092928,653907,527944
1296.85,0.092568,655963,530043
1301.39,0.092151,657349,531674
1304.8,0.091922,657558,532123
1308.19,0.092006,658515,532794
1311.58,0.092177,658804,532819
1314.97,0.092631,659011,532429
1318.36,0.092933,658272,531462
1321.73,0.093581,658022,530468
1326.23,0.094095,657870,529719
1329.6,0.095109,656482,527368
1332.97,0.095596,654926,525529
1336.33,0.096881,653727,523017
1339.69,0.098041,652497,520640
1343.04,0.099472,649913,516872
1346.39,0.101413,647671,512792
1349.73,0.103526,645338,508465
1354.18,0.106215,641175,502067
1357.52,0.108185,638376,497613
1360.85,0.110340,635805,493155
1364.17,0.112456,633413,488912
1367.49,0.114426,631026,484866
1370.81,0.117373,628050,479315
1374.12,0.118918,625034,475319
1378.54,0.121624,620272,468768
1381.84,0.124081,616892,463584
1385.14,0.126976,613613,458056
1388.43,0.130402,611526,452911
1391.72,0.134806,610663,447709
1395.01,0.139033,610634,443351
1398.29,0.142634,611700,440458
1402.66,0.149128,614051,435589
1405.93,0.153944,616268,432340
1409.2,0.158483,617795,428905
1412.46,0.163098,618872,425111
1415.72,0.166473,619795,422450
1418.98,0.169921,620495,419582
1422.23,0.173348,621087,416682
1426.56,0.177307,621375,413092
1429.8,0.179437,621616,411230
1433.04,0.182188,622129,408971
1436.27,0.183863,621526,407002
1439.5,0.185637,621113,405073
1442.72,0.188755,620921,402051
1445.94,0.191292,620270,399290
1450.23,0.194287,618860,395645
1453.44,0.197391,617697,392089
1456.64,0.200791,616264,388129
1459.85,0.203265,614413,384765
1463.04,0.206050,612307,380995
1466.24,0.209315,610032,376736
1469.43,0.212860,607345,372028
1473.67,0.219514,603789,364226
1476.85,0.225865,601175,357385
1480.02,0.231859,597737,350470
1483.19,0.238029,594479,343643
1486.36,0.244519,591232,336697
1489.52,0.248881,587853,331427
1492.68,0.252233,583875,326653
1496.89,0.254553,578062,321678
1500.03,0.255142,574159,319073
1503.18,0.254846,570285,317136
1506.32,0.254424,565444,314750
1509.45,0.253642,560571,312600
1512.58,0.251188,555821,311707
1515.71,0.249092,550344,310129
1519.87,0.245585,543983,309030
1522.99,0.243057,538764,307852
1526.1,0.240845,533692,306511
1529.21,0.237918,527902,305236
1532.32,0.235360,521886,303540
1535.42,0.231951,515888,302416
1538.51,0.229488,509987,300657
1541.6,0.226771,503936,298954
1545.72,0.222774,494694,296185
1548.8,0.219576,488378,294564
1551.88,0.217039,481832,292319
1554.95,0.215517,474989,289179
1558.02,0.213441,467818,286178
1561.08,0.212167,460730,282670
1564.15,0.211480,454170,279086
1568.22,0.210622,444181,273488
1571.27,0.210018,436947,269408
1574.32,0.209183,429598,265387
1577.36,0.208371,422039,261205
1580.4,0.207295,414375,257098
1583.43,0.205583,406354,253117
1586.46,0.204195,398475,249004
1590.49,0.202550,388982,243994
1593.51,0.200656,380708,239848
1596.53,0.198473,372727,236003
1599.54,0.195889,365060,232528
1602.55,0.195371,357543,228012
1605.55,0.192827,349495,224189
1608.55,0.191020,341154,219751
1612.54,0.188938,330877,214155
1615.53,0.187403,322904,209735
1618.51,0.186833,315116,204945
1621.49,0.185808,307217,200280
1624.47,0.183613,299481,196226
1627.44,0.183369,292112,191505
1630.41,0.181819,284245,187014
1634.36,0.180156,274079,181017
1637.32,0.180657,266916,176083
1640.27,0.179468,259612,171734
1643.22,0.178149,251804,167076
1646.16,0.177284,244348,162452
1649.1,0.178365,236703,156978
1652.04,0.175929,228171,152171
1655.95,0.173139,215408,144585
1658.88,0.168040,204937,139181
1661.8,0.162300,193395,133090
1664.72,0.156464,179728,125358
1667.63,0.142657,163642,117825
1670.54,0.129086,146312,108691
1673.44,0.114064,128451,98781
1677.31,0.091984,105080,85023
1680.21,0.078720,88906,74167
1683.1,0.074487,75033,63207
1685.99,0.071902,63520,53828
1688.87,0.075276,53714,45166
1691.75,0.082898,45653,37720
1694.62,0.090256,39137,31793
1697.49,0.085846,33776,27718
1701.31,0.098512,28175,22457