Folder: textile_sorting_NIRSCAN_/samples/wool/wool-000811 (part 75)

File: Column 1_050571_20150331_120941.csv
Method:,Column 1,,
Host Date-Time:,31/3/15 @ 12:9:41,,
Header Version:,1,,
System Temp (C):,34.06,,
Detector Temp (C):,34.17,,
Humidity (%):,1.76,,
Lamp PD:,3818,,
Shift Vector Coefficients:,-10.5391,0.0761263,-0.000134223,,
Pixel to Wavelength Coefficients:,1775.68,-0.916766,-0.000235065,,
Serial Number:,5510004,,
Scan Config Name:,Column 1,,
Scan Config Type:,Slew,,
Section 1,,
Start wavelength (nm):,900,,
End wavelength (nm):,1700,,
Pattern Pixel Width (nm):,   7.03,,,,
Exposure (ms):,  0.635,,,,
Digital Resolution:,228,,
Num Repeats:,6,,
PGA Gain:,64,,
Total Measurement Time in sec:,  2.682,,
Wavelength (nm),Absorbance (AU),Reference Signal (unitless),Sample Signal (unitless)
901.51,0.035457,108485,99980
905.376,0.040308,121306,110554
909.237,0.043634,131909,119300
913.095,0.043163,143299,129742
916.948,0.046492,156982,141045
922.079,0.046991,179937,161484
925.923,0.047996,200504,179526
929.762,0.049556,222660,198649
933.597,0.050265,244426,217712
937.427,0.047964,263972,236371
941.254,0.048236,281845,252217
945.076,0.047692,297271,266355
950.165,0.046720,315605,283416
953.978,0.046525,328029,294705
957.786,0.046142,340470,306152
961.59,0.046917,352317,316240
965.389,0.047144,363056,325709
969.185,0.046805,373162,335037
972.976,0.047615,382632,342899
976.763,0.047921,391202,350332
981.806,0.048868,400190,357601
985.583,0.049317,406088,362496
989.355,0.050169,410162,365415
993.124,0.049798,412868,368140
996.888,0.050971,414263,368388
1000.65,0.051444,415476,369064
1004.4,0.052849,415479,367875
1009.41,0.053831,414358,366054
1013.15,0.054783,412923,363987
1016.89,0.055527,411526,362135
1020.63,0.055003,409066,360405
1024.36,0.055352,406777,358100
1028.09,0.054954,404427,356358
1031.82,0.054678,401911,354366
1036.78,0.054491,398410,351430
1040.49,0.054139,396204,349768
1044.2,0.053562,394236,348493
1047.91,0.053311,392042,346754
1051.61,0.053315,389823,344788
1055.31,0.052682,388234,343884
1059,0.051988,387599,343870
1063.92,0.050663,386688,344110
1067.61,0.049544,386598,344918
1071.29,0.048875,387377,346146
1074.96,0.048877,388536,347180
1078.63,0.048592,389855,348587
1082.3,0.047247,391215,350888
1085.96,0.046311,393215,353443
1090.84,0.045564,396270,356802
1094.49,0.045584,398760,359027
1098.14,0.045058,400987,361470
1101.79,0.044318,403477,364335
1105.43,0.044503,406116,366562
1109.06,0.044217,407701,368235
1112.7,0.044271,409859,370138
1117.53,0.044069,412494,372691
1121.15,0.045041,414909,374035
1124.77,0.045744,416559,374915
1128.38,0.046913,418532,375678
1131.99,0.048382,419956,375683
1135.6,0.050123,421946,375953
1139.2,0.051358,423881,376605
1143.99,0.054238,426786,376680
1147.58,0.054806,428617,377801
1151.17,0.056312,431169,378735
1154.75,0.057766,433579,379579
1158.33,0.059219,436264,380654
1161.91,0.061776,439132,380907
1165.48,0.064194,442389,381602
1169.04,0.066347,446101,382901
1173.79,0.070427,451929,384276
1177.34,0.071986,456026,386370
1180.9,0.074947,461306,388188
1184.44,0.076736,467657,391915
1187.99,0.077454,473969,396548
1191.52,0.077128,479856,401775
1195.06,0.077402,487372,407811
1199.76,0.076826,497347,416710
1203.29,0.075355,504311,423978
1206.81,0.074637,511507,430739
1210.33,0.073560,519078,438200
1213.84,0.073077,527163,445521
1217.35,0.072077,534208,452515
1220.85,0.071302,540472,458639
1225.51,0.070254,549929,467792
1229.01,0.069992,556888,473997
1232.5,0.069641,562180,478889
1235.98,0.068314,567975,485306
1239.46,0.067649,574815,491903
1242.94,0.066272,582782,500304
1246.41,0.065750,591476,508379
1251.03,0.065797,604016,519100
1254.5,0.065635,612289,526407
1257.96,0.066501,619125,531224
1261.41,0.067006,624551,535256
1264.86,0.067660,629900,539028
1268.31,0.068197,634345,542161
1271.75,0.069114,638574,544625
1276.33,0.069323,642499,547709
1279.76,0.069082,645905,550918
1283.19,0.068637,648307,553533
1286.61,0.068124,650446,556016
1290.03,0.067976,652132,557647
1293.44,0.067213,653907,560148
1296.85,0.067305,655963,561790
1301.39,0.066893,657349,563512
1304.8,0.066974,657558,563586
1308.19,0.067155,658515,564171
1311.58,0.067274,658804,564264
1314.97,0.068046,659011,563439
1318.36,0.068165,658272,562653
1321.73,0.068539,658022,561955
1326.23,0.069447,657870,560651
1329.6,0.070409,656482,558231
1332.97,0.071829,654926,555090
1336.33,0.072634,653727,553048
1339.69,0.073991,652497,550285
1343.04,0.075734,649913,545910
1346.39,0.078038,647671,541148
1349.73,0.080342,645338,536346
1354.18,0.083357,641175,529200
1357.52,0.085506,638376,524289
1360.85,0.087392,635805,519915
1364.17,0.090183,633413,514641
1367.49,0.092211,631026,510312
1370.81,0.095226,628050,504392
1374.12,0.097173,625034,499724
1378.54,0.100527,620272,492102
1381.84,0.104103,616892,485407
1385.14,0.107749,613613,478791
1388.43,0.111597,611526,472953
1391.72,0.116530,610663,466951
1395.01,0.121537,610634,461577
1398.29,0.126635,611700,456987
1402.66,0.133697,614051,451344
1405.93,0.139280,616268,447187
1409.2,0.144106,617795,443341
1412.46,0.149117,618872,439020
1415.72,0.153801,619795,434958
1418.98,0.157739,620495,431518
1422.23,0.161931,621087,427781
1426.56,0.165600,621375,424379
1429.8,0.168442,621616,421774
1433.04,0.171247,622129,419405
1436.27,0.173588,621526,416746
1439.5,0.176100,621113,414067
1442.72,0.178510,620921,411648
1445.94,0.180577,620270,409264
1450.23,0.184389,618860,404765
1453.44,0.187474,617697,401145
1456.64,0.190688,616264,397264
1459.85,0.193829,614413,393216
1463.04,0.196480,612307,389484
1466.24,0.199960,610032,384940
1469.43,0.203628,607345,380021
1473.67,0.209820,603789,372448
1476.85,0.215899,601175,365681
1480.02,0.222168,597737,358379
1483.19,0.229190,594479,350709
1486.36,0.235211,591232,343991
1489.52,0.240718,587853,337715
1492.68,0.244391,583875,332605
1496.89,0.246354,578062,327809
1500.03,0.247240,574159,324932
1503.18,0.246974,570285,322937
1506.32,0.246362,565444,320647
1509.45,0.245633,560571,318418
1512.58,0.243707,555821,317123
1515.71,0.241108,550344,315883
1519.87,0.238063,543983,314429
1522.99,0.234786,538764,313771
1526.1,0.233050,533692,312062
1529.21,0.229618,527902,311125
1532.32,0.226719,521886,309640
1535.42,0.222725,515888,308909
1538.51,0.219749,509987,307475
1541.6,0.216704,503936,305965
1545.72,0.212169,494694,303506
1548.8,0.208764,488378,301990
1551.88,0.206603,481832,299428
1554.95,0.204531,474989,296587
1558.02,0.202621,467818,293397
1561.08,0.200899,460730,290100
1564.15,0.201130,454170,285817
1568.22,0.199398,444181,280648
1571.27,0.199321,436947,276126
1574.32,0.197745,429598,272469
1577.36,0.196479,422039,268456
1580.4,0.195762,414375,264017
1583.43,0.193207,406354,260434
1586.46,0.192319,398475,255907
1590.49,0.190021,388982,251136
1593.51,0.187930,380708,246980
1596.53,0.184400,372727,243776
1599.54,0.183227,365060,239407
1602.55,0.180641,357543,235878
1605.55,0.177676,349495,232148
1608.55,0.176573,341154,227184
1612.54,0.174307,330877,221493
1615.53,0.171736,322904,217439
1618.51,0.171596,315116,212263
1621.49,0.170724,307217,207358
1624.47,0.168443,299481,203201
1627.44,0.167352,292112,198700
1630.41,0.166958,284245,193524
1634.36,0.164502,274079,187661
1637.32,0.163108,266916,183344
1640.27,0.163597,259612,178126
1643.22,0.162447,251804,173227
1646.16,0.160572,244348,168825
1649.1,0.160928,236703,163409
1652.04,0.158418,228171,158432
1655.95,0.156780,215408,150135
1658.88,0.152833,204937,144141
1661.8,0.148364,193395,137430
1664.72,0.141605,179728,129721
1667.63,0.131249,163642,120961
1670.54,0.118957,146312,111256
1673.44,0.104515,128451,100977
1677.31,0.089376,105080,85535
1680.21,0.079043,88906,74112
1683.1,0.074913,75033,63145
1685.99,0.077178,63520,53178
1688.87,0.079217,53714,44758
1691.75,0.087400,45653,37331
1694.62,0.091487,39137,31703
1697.49,0.097293,33776,26997
1701.31,0.110572,28175,21842

File: Column 1_050571_20150331_120943.csv
Method:,Column 1,,
Host Date-Time:,31/3/15 @ 12:9:43,,
Header Version:,1,,
System Temp (C):,34.07,,
Detector Temp (C):,34.14,,
Humidity (%):,1.76,,
Lamp PD:,3818,,
Shift Vector Coefficients:,-10.5391,0.0761263,-0.000134223,,
Pixel to Wavelength Coefficients:,1775.68,-0.916766,-0.000235065,,
Serial Number:,5510004,,
Scan Config Name:,Column 1,,
Scan Config Type:,Slew,,
Section 1,,
Start wavelength (nm):,900,,
End wavelength (nm):,1700,,
Pattern Pixel Width (nm):,   7.03,,,,
Exposure (ms):,  0.635,,,,
Digital Resolution:,228,,
Num Repeats:,6,,
PGA Gain:,64,,
Total Measurement Time in sec:,  2.674,,
Wavelength (nm),Absorbance (AU),Reference Signal (unitless),Sample Signal (unitless)
901.51,0.035179,108485,100044
905.376,0.041177,121306,110333
909.237,0.044403,131909,119089
913.095,0.047404,143299,128481
916.948,0.047081,156982,140854
922.079,0.046784,179937,161561
925.923,0.048618,200504,179269
929.762,0.049901,222660,198491
933.597,0.050129,244426,217780
937.427,0.049099,263972,235754
941.254,0.048406,281845,252118
945.076,0.047512,297271,266465
950.165,0.047474,315605,282924
953.978,0.046292,328029,294863
957.786,0.046514,340470,305890
961.59,0.047407,352317,315883
965.389,0.046749,363056,326005
969.185,0.047331,373162,334631
972.976,0.047673,382632,342853
976.763,0.048909,391202,349536
981.806,0.049053,400190,357448
985.583,0.049590,406088,362268
989.355,0.050357,410162,365257
993.124,0.050451,412868,367587
996.888,0.051545,414263,367901
1000.65,0.052060,415476,368541
1004.4,0.053191,415479,367585
1009.41,0.054789,414358,365247
1013.15,0.055236,412923,363608
1016.89,0.055445,411526,362203
1020.63,0.055251,409066,360199
1024.36,0.055665,406777,357842
1028.09,0.055069,404427,356263
1031.82,0.055184,401911,353953
1036.78,0.054337,398410,351555
1040.49,0.054263,396204,349668
1044.2,0.053860,394236,348254
1047.91,0.053846,392042,346327
1051.61,0.053352,389823,344759
1055.31,0.052181,388234,344281
1059,0.052105,387599,343778
1063.92,0.051078,386688,343782
1067.61,0.050015,386598,344544
1071.29,0.049431,387377,345703
1074.96,0.048852,388536,347200
1078.63,0.048312,389855,348812
1082.3,0.047150,391215,350966
1085.96,0.046890,393215,352972
1090.84,0.046417,396270,356102
1094.49,0.046214,398760,358507
1098.14,0.045746,400987,360898
1101.79,0.045607,403477,363255
1105.43,0.045080,406116,366075
1109.06,0.044529,407701,367970
1112.7,0.044534,409859,369914
1117.53,0.044798,412494,372066
1121.15,0.045409,414909,373718
1124.77,0.045579,416559,375057
1128.38,0.046715,418532,375849
1131.99,0.048192,419956,375848
1135.6,0.049963,421946,376092
1139.2,0.052153,423881,375916
1143.99,0.054662,426786,376312
1147.58,0.054976,428617,377653
1151.17,0.056532,431169,378543
1154.75,0.058192,433579,379207
1158.33,0.059809,436264,380137
1161.91,0.061549,439132,381106
1165.48,0.064361,442389,381455
1169.04,0.066777,446101,382522
1173.79,0.070016,451929,384640
1177.34,0.072906,456026,385553
1180.9,0.074974,461306,388164
1184.44,0.076989,467657,391686
1187.99,0.077637,473969,396381
1191.52,0.077705,479856,401242
1195.06,0.077186,487372,408014
1199.76,0.076713,497347,416818
1203.29,0.075277,504311,424054
1206.81,0.074787,511507,430591
1210.33,0.073974,519078,437783
1213.84,0.073666,527163,444917
1217.35,0.072540,534208,452033
1220.85,0.071371,540472,458566
1225.51,0.070601,549929,467418
1229.01,0.069971,556888,474020
1232.5,0.069481,562180,479065
1235.98,0.068801,567975,484762
1239.46,0.067755,574815,491782
1242.94,0.066796,582782,499701
1246.41,0.066180,591476,507875
1251.03,0.065876,604016,519006
1254.5,0.065905,612289,526079
1257.96,0.066690,619125,530993
1261.41,0.067358,624551,534823
1264.86,0.067926,629900,538698
1268.31,0.068470,634345,541820
1271.75,0.069393,638574,544275
1276.33,0.069573,642499,547393
1279.76,0.069425,645905,550483
1283.19,0.068796,648307,553330
1286.61,0.068407,650446,555654
1290.03,0.067834,652132,557830
1293.44,0.067571,653907,559687
1296.85,0.067449,655963,561604
1301.39,0.067242,657349,563059
1304.8,0.067175,657558,563325
1308.19,0.067040,658515,564320
1311.58,0.067496,658804,563975
1314.97,0.067801,659011,563757
1318.36,0.068605,658272,562083
1321.73,0.068571,658022,561914
1326.23,0.069678,657870,560354
1329.6,0.070501,656482,558113
1332.97,0.071563,654926,555430
1336.33,0.072722,653727,552935
1339.69,0.074661,652497,549436
1343.04,0.076268,649913,545239
1346.39,0.078042,647671,541144
1349.73,0.080160,645338,536571
1354.18,0.083592,641175,528914
1357.52,0.085551,638376,524235
1360.85,0.088074,635805,519099
1364.17,0.090053,633413,514795
1367.49,0.092480,631026,509996
1370.81,0.095149,628050,504482
1374.12,0.097401,625034,499462
1378.54,0.101078,620272,491478
1381.84,0.104199,616892,485300
1385.14,0.107721,613613,478821
1388.43,0.112441,611526,472035
1391.72,0.117111,610663,466327
1395.01,0.121699,610634,461405
1398.29,0.126645,611700,456976
1402.66,0.133574,614051,451472
1405.93,0.139471,616268,446991
1409.2,0.145154,617795,442273
1412.46,0.149658,618872,438473
1415.72,0.154359,619795,434399
1418.98,0.158135,620495,431125
1422.23,0.161724,621087,427985
1426.56,0.165707,621375,424274
1429.8,0.168858,621616,421371
1433.04,0.171283,622129,419370
1436.27,0.174058,621526,416295
1439.5,0.176295,621113,413881
1442.72,0.178825,620921,411350
1445.94,0.180533,620270,409306
1450.23,0.184679,618860,404495
1453.44,0.187939,617697,400716
1456.64,0.191019,616264,396961
1459.85,0.193384,614413,393619
1463.04,0.196904,612307,389104
1466.24,0.200181,610032,384744
1469.43,0.203650,607345,380002
1473.67,0.210076,603789,372228
1476.85,0.216358,601175,365294
1480.02,0.222471,597737,358129
1483.19,0.229963,594479,350085
1486.36,0.235596,591232,343686
1489.52,0.241197,587853,337343
1492.68,0.243977,583875,332922
1496.89,0.246195,578062,327929
1500.03,0.248472,574159,324011
1503.18,0.248188,570285,322036
1506.32,0.247394,565444,319886
1509.45,0.245580,560571,318457
1512.58,0.243669,555821,317151
1515.71,0.241412,550344,315662
1519.87,0.238345,543983,314225
1522.99,0.236004,538764,312892
1526.1,0.232456,533692,312489
1529.21,0.230103,527902,310778
1532.32,0.226625,521886,309707
1535.42,0.223607,515888,308282
1538.51,0.220073,509987,307246
1541.6,0.216914,503936,305817
1545.72,0.212241,494694,303456
1548.8,0.209917,488378,301189
1551.88,0.207309,481832,298942
1554.95,0.205401,474989,295994
1558.02,0.202846,467818,293245
1561.08,0.201705,460730,289562
1564.15,0.201246,454170,285741
1568.22,0.200168,444181,280151
1571.27,0.199230,436947,276184
1574.32,0.198307,429598,272117
1577.36,0.196790,422039,268264
1580.4,0.195628,414375,264098
1583.43,0.194354,406354,259747
1586.46,0.191964,398475,256116
1590.49,0.190024,388982,251134
1593.51,0.187918,380708,246987
1596.53,0.185626,372727,243089
1599.54,0.183817,365060,239082
1602.55,0.181476,357543,235425
1605.55,0.179245,349495,231311
1608.55,0.175937,341154,227517
1612.54,0.174077,330877,221610
1615.53,0.173098,322904,216758
1618.51,0.171537,315116,212292
1621.49,0.170869,307217,207289
1624.47,0.169428,299481,202741
1627.44,0.167732,292112,198526
1630.41,0.166617,284245,193676
1634.36,0.165278,274079,187326
1637.32,0.165164,266916,182478
1640.27,0.163536,259612,178151
1643.22,0.163280,251804,172895
1646.16,0.161950,244348,168290
1649.1,0.160821,236703,163449
1652.04,0.159046,228171,158203
1655.95,0.158060,215408,149693
1658.88,0.153357,204937,143967
1661.8,0.149522,193395,137064
1664.72,0.143367,179728,129196
1667.63,0.130984,163642,121035
1670.54,0.117947,146312,111515
1673.44,0.105967,128451,100640
1677.31,0.088808,105080,85647
1680.21,0.083436,88906,73366
1683.1,0.077355,75033,62791
1685.99,0.077783,63520,53104
1688.87,0.085816,53714,44083
1691.75,0.091855,45653,36950
1694.62,0.097487,39137,31268
1697.49,0.103939,33776,26587
1701.31,0.113945,28175,21673

File: Column 1_050571_20150331_120946.csv
Method:,Column 1,,
Host Date-Time:,31/3/15 @ 12:9:46,,
Header Version:,1,,
System Temp (C):,34.08,,
Detector Temp (C):,34.14,,
Humidity (%):,1.76,,
Lamp PD:,3818,,
Shift Vector Coefficients:,-10.5391,0.0761263,-0.000134223,,
Pixel to Wavelength Coefficients:,1775.68,-0.916766,-0.000235065,,
Serial Number:,5510004,,
Scan Config Name:,Column 1,,
Scan Config Type:,Slew,,
Section 1,,
Start wavelength (nm):,900,,
End wavelength (nm):,1700,,
Pattern Pixel Width (nm):,   7.03,,,,
Exposure (ms):,  0.635,,,,
Digital Resolution:,228,,
Num Repeats:,6,,
PGA Gain:,64,,
Total Measurement Time in sec:,  2.681,,
Wavelength (nm),Absorbance (AU),Reference Signal (unitless),Sample Signal (unitless)
901.51,0.035535,108485,99962
905.376,0.041575,121306,110232
909.237,0.043088,131909,119450
913.095,0.044208,143299,129430
916.948,0.045096,156982,141499
922.079,0.046797,179937,161556
925.923,0.049231,200504,179016
929.762,0.049484,222660,198682
933.597,0.050012,244426,217839
937.427,0.048519,263972,236069
941.254,0.048536,281845,252043
945.076,0.047617,297271,266401
950.165,0.046428,315605,283606
953.978,0.046136,328029,294969
957.786,0.046322,340470,306025
961.59,0.046969,352317,316202
965.389,0.047113,363056,325732
969.185,0.047166,373162,334758
972.976,0.047490,382632,342998
976.763,0.047900,391202,350349
981.806,0.048292,400190,358075
985.583,0.049764,406088,362123
989.355,0.049597,410162,365897
993.124,0.050574,412868,367483
996.888,0.050854,414263,368487
1000.65,0.051773,415476,368785
1004.4,0.052776,415479,367937
1009.41,0.054220,414358,365726
1013.15,0.054436,412923,364278
1016.89,0.055432,411526,362214
1020.63,0.055158,409066,360276
1024.36,0.055139,406777,358276
1028.09,0.054583,404427,356662
1031.82,0.054196,401911,354759
1036.78,0.054027,398410,351806
1040.49,0.054007,396204,349874
1044.2,0.053009,394236,348937
1047.91,0.052918,392042,347068
1051.61,0.052597,389823,345359
1055.31,0.052429,388234,344084
1059,0.051712,387599,344089
1063.92,0.050472,386688,344262
1067.61,0.049619,386598,344858
1071.29,0.049551,387377,345607
1074.96,0.048825,388536,347221
1078.63,0.048419,389855,348726
1082.3,0.047664,391215,350551
1085.96,0.046820,393215,353029
1090.84,0.045915,396270,356514
1094.49,0.045601,398760,359013
1098.14,0.045315,400987,361256
1101.79,0.044824,403477,363911
1105.43,0.045138,406116,366026
1109.06,0.044610,407701,367902
1112.7,0.044259,409859,370148
1117.53,0.044168,412494,372606
1121.15,0.044854,414909,374196
1124.77,0.045901,416559,374779
1128.38,0.046503,418532,376033
1131.99,0.048233,419956,375812
1135.6,0.049965,421946,376090
1139.2,0.051624,423881,376374
1143.99,0.054454,426786,376492
1147.58,0.055293,428617,377378
1151.17,0.056454,431169,378611
1154.75,0.057665,433579,379667
1158.33,0.059260,436264,380618
1161.91,0.061422,439132,381218
1165.48,0.063965,442389,381803
1169.04,0.066415,446101,382841
1173.79,0.070134,451929,384535
1177.34,0.072366,456026,386032
1180.9,0.075167,461306,387991
1184.44,0.076428,467657,392193
1187.99,0.077945,473969,396100
1191.52,0.077223,479856,401687
1195.06,0.076954,487372,408232
1199.76,0.075980,497347,417522
1203.29,0.074785,504311,424535
1206.81,0.075439,511507,429945
1210.33,0.073816,519078,437942
1213.84,0.072971,527163,445630
1217.35,0.072112,534208,452479
1220.85,0.071620,540472,458304
1225.51,0.070340,549929,467699
1229.01,0.070228,556888,473740
1232.5,0.069253,562180,479316
1235.98,0.068385,567975,485226
1239.46,0.067650,574815,491902
1242.94,0.066970,582782,499501
1246.41,0.065811,591476,508307
1251.03,0.065605,604016,519330
1254.5,0.065550,612289,526510
1257.96,0.066364,619125,531391
1261.41,0.066894,624551,535395
1264.86,0.067360,629900,539401
1268.31,0.068269,634345,542071
1271.75,0.069029,638574,544731
1276.33,0.069201,642499,547862
1279.76,0.069094,645905,550903
1283.19,0.068515,648307,553689
1286.61,0.068408,650446,555653
1290.03,0.068160,652132,557411
1293.44,0.067304,653907,560031
1296.85,0.067278,655963,561825
1301.39,0.066975,657349,563406
1304.8,0.067417,657558,563011
1308.19,0.067381,658515,563877
1311.58,0.067099,658804,564491
1314.97,0.067701,659011,563887
1318.36,0.068318,658272,562454
1321.73,0.068224,658022,562362
1326.23,0.069259,657870,560895
1329.6,0.070351,656482,558306
1332.97,0.071514,654926,555493
1336.33,0.072557,653727,553146
1339.69,0.074067,652497,550189
1343.04,0.075855,649913,545758
1346.39,0.078008,647671,541186
1349.73,0.079924,645338,536863
1354.18,0.083285,641175,529287
1357.52,0.085502,638376,524294
1360.85,0.087503,635805,519782
1364.17,0.090055,633413,514792
1367.49,0.092701,631026,509737
1370.81,0.094516,628050,505217
1374.12,0.097526,625034,499319
1378.54,0.100470,620272,492167
1381.84,0.104318,616892,485167
1385.14,0.107827,613613,478704
1388.43,0.112075,611526,472433
1391.72,0.116579,610663,466899
1395.01,0.121293,610634,461836
1398.29,0.126617,611700,457006
1402.66,0.133451,614051,451599
1405.93,0.139250,616268,447218
1409.2,0.144732,617795,442703
1412.46,0.149724,618872,438406
1415.72,0.153863,619795,434896
1418.98,0.157831,620495,431427
1422.23,0.161416,621087,428289
1426.56,0.166103,621375,423888
1429.8,0.168304,621616,421908
1433.04,0.171348,622129,419307
1436.27,0.173683,621526,416655
1439.5,0.176192,621113,413979
1442.72,0.178016,620921,412117
1445.94,0.180535,620270,409304
1450.23,0.184182,618860,404958
1453.44,0.187698,617697,400938
1456.64,0.190577,616264,397365
1459.85,0.193724,614413,393311
1463.04,0.196087,612307,389836
1466.24,0.199898,610032,384995
1469.43,0.203446,607345,380180
1473.67,0.209930,603789,372353
1476.85,0.215893,601175,365686
1480.02,0.221809,597737,358675
1483.19,0.228843,594479,350989
1486.36,0.235337,591232,343891
1489.52,0.240035,587853,338247
1492.68,0.243988,583875,332914
1496.89,0.246555,578062,327657
1500.03,0.247348,574159,324851
1503.18,0.247351,570285,322657
1506.32,0.246246,565444,320733
1509.45,0.244881,560571,318970
1512.58,0.243443,555821,317316
1515.71,0.241013,550344,315952
1519.87,0.237838,543983,314592
1522.99,0.234804,538764,313758
1526.1,0.232912,533692,312161
1529.21,0.229819,527902,310981
1532.32,0.227102,521886,309367
1535.42,0.223991,515888,308010
1538.51,0.219783,509987,307451
1541.6,0.216504,503936,306106
1545.72,0.212469,494694,303297
1548.8,0.209166,488378,301710
1551.88,0.206584,481832,299441
1554.95,0.204530,474989,296588
1558.02,0.202087,467818,293758
1561.08,0.200827,460730,290148
1564.15,0.200493,454170,286237
1568.22,0.199578,444181,280532
1571.27,0.198591,436947,276591
1574.32,0.197134,429598,272853
1577.36,0.196737,422039,268297
1580.4,0.195094,414375,264423
1583.43,0.193184,406354,260448
1586.46,0.192151,398475,256006
1590.49,0.189265,388982,251573
1593.51,0.186613,380708,247730
1596.53,0.184826,372727,243537
1599.54,0.184001,365060,238981
1602.55,0.179964,357543,236246
1605.55,0.178401,349495,231761
1608.55,0.177024,341154,226948
1612.54,0.173819,330877,221742
1615.53,0.172940,322904,216837
1618.51,0.171478,315116,212321
1621.49,0.169741,307217,207828
1624.47,0.168050,299481,203385
1627.44,0.168065,292112,198374
1630.41,0.165840,284245,194023
1634.36,0.163194,274079,188227
1637.32,0.164149,266916,182905
1640.27,0.162448,259612,178598
1643.22,0.162106,251804,173363
1646.16,0.161553,244348,168444
1649.1,0.159919,236703,163789
1652.04,0.158215,228171,158506
1655.95,0.155575,215408,150552
1658.88,0.151891,204937,144454
1661.8,0.148740,193395,137311
1664.72,0.142259,179728,129526
1667.63,0.131109,163642,121000
1670.54,0.117281,146312,111686
1673.44,0.104472,128451,100987
1677.31,0.087476,105080,85910
1680.21,0.077049,88906,74453
1683.1,0.076353,75033,62936
1685.99,0.077701,63520,53114
1688.87,0.082753,53714,44395
1691.75,0.085369,45653,37506
1694.62,0.089683,39137,31835
1697.49,0.097084,33776,27010
1701.31,0.099286,28175,22417