Folder: textile_sorting_NIRSCAN_/samples/wool/wool-000811 (part 36)

File: Column 1_050551_20150331_120008.csv
Method:,Column 1,,
Host Date-Time:,31/3/15 @ 12:0:8,,
Header Version:,1,,
System Temp (C):,33.2,,
Detector Temp (C):,32.43,,
Humidity (%):,3.91,,
Lamp PD:,3820,,
Shift Vector Coefficients:,-10.5391,0.0761263,-0.000134223,,
Pixel to Wavelength Coefficients:,1775.68,-0.916766,-0.000235065,,
Serial Number:,5510004,,
Scan Config Name:,Column 1,,
Scan Config Type:,Slew,,
Section 1,,
Start wavelength (nm):,900,,
End wavelength (nm):,1700,,
Pattern Pixel Width (nm):,   7.03,,,,
Exposure (ms):,  0.635,,,,
Digital Resolution:,228,,
Num Repeats:,6,,
PGA Gain:,64,,
Total Measurement Time in sec:,  2.733,,
Wavelength (nm),Absorbance (AU),Reference Signal (unitless),Sample Signal (unitless)
901.51,0.047511,108485,97243
905.376,0.052397,121306,107519
909.237,0.054997,131909,116219
913.095,0.053758,143299,126615
916.948,0.055295,156982,138215
922.079,0.056777,179937,157886
925.923,0.056781,200504,175931
929.762,0.056555,222660,195473
933.597,0.057091,244426,214317
937.427,0.056302,263972,231876
941.254,0.057138,281845,247100
945.076,0.056725,297271,260872
950.165,0.056912,315605,276842
953.978,0.056582,328029,287959
957.786,0.056820,340470,298716
961.59,0.057324,352317,308752
965.389,0.057298,363056,318182
969.185,0.057910,373162,326578
972.976,0.058423,382632,334471
976.763,0.059275,391202,341292
981.806,0.059488,400190,348962
985.583,0.060592,406088,353206
989.355,0.060985,410162,356427
993.124,0.061248,412868,358561
996.888,0.062004,414263,359147
1000.65,0.063142,415476,359256
1004.4,0.064820,415479,357873
1009.41,0.065933,414358,355994
1013.15,0.066524,412923,354279
1016.89,0.067186,411526,352542
1020.63,0.066856,409066,350701
1024.36,0.066862,406777,348734
1028.09,0.066125,404427,347308
1031.82,0.065609,401911,345558
1036.78,0.065625,398410,342535
1040.49,0.064547,396204,341485
1044.2,0.065165,394236,339306
1047.91,0.064205,392042,338164
1051.61,0.064004,389823,336406
1055.31,0.063540,388234,335393
1059,0.062451,387599,335685
1063.92,0.061931,386688,335297
1067.61,0.061374,386598,335649
1071.29,0.060540,387377,336972
1074.96,0.059834,388536,338530
1078.63,0.059760,389855,339737
1082.3,0.058387,391215,342002
1085.96,0.058602,393215,343580
1090.84,0.057692,396270,346976
1094.49,0.057354,398760,349428
1098.14,0.057362,400987,351373
1101.79,0.056487,403477,354268
1105.43,0.057244,406116,355964
1109.06,0.056239,407701,358181
1112.7,0.057131,409859,359338
1117.53,0.056498,412494,362176
1121.15,0.056814,414909,364031
1124.77,0.057221,416559,365137
1128.38,0.059577,418532,364881
1131.99,0.060143,419956,365646
1135.6,0.062050,421946,365769
1139.2,0.063996,423881,365804
1143.99,0.066504,426786,366190
1147.58,0.068181,428617,366343
1151.17,0.069144,431169,367708
1154.75,0.070067,433579,368979
1158.33,0.072148,436264,369489
1161.91,0.074931,439132,369542
1165.48,0.076440,442389,370992
1169.04,0.079123,446101,371801
1173.79,0.082706,451929,373563
1177.34,0.085344,456026,374667
1180.9,0.087132,461306,377448
1184.44,0.089150,467657,380871
1187.99,0.090059,473969,385204
1191.52,0.090138,479856,389918
1195.06,0.089907,487372,396236
1199.76,0.089880,497347,404371
1203.29,0.088917,504311,410943
1206.81,0.088123,511507,417569
1210.33,0.087218,519078,424634
1213.84,0.086665,527163,431797
1217.35,0.085929,534208,438310
1220.85,0.084637,540472,444771
1225.51,0.084403,549929,452797
1229.01,0.083951,556888,459004
1232.5,0.083158,562180,464213
1235.98,0.082346,567975,469876
1239.46,0.081641,574815,476307
1242.94,0.080634,582782,484030
1246.41,0.079693,591476,492316
1251.03,0.079780,604016,502653
1254.5,0.079854,612289,509451
1257.96,0.080389,619125,514505
1261.41,0.081195,624551,518052
1264.86,0.081310,629900,522350
1268.31,0.082055,634345,525135
1271.75,0.082863,638574,527653
1276.33,0.083014,642499,530711
1279.76,0.083239,645905,533249
1283.19,0.082369,648307,536305
1286.61,0.081952,650446,538591
1290.03,0.082394,652132,539438
1293.44,0.081158,653907,542448
1296.85,0.081419,655963,543827
1301.39,0.081133,657349,545334
1304.8,0.081278,657558,545326
1308.19,0.081391,658515,545977
1311.58,0.081385,658804,546224
1314.97,0.082055,659011,545554
1318.36,0.082851,658272,543944
1321.73,0.083222,658022,543273
1326.23,0.084612,657870,541412
1329.6,0.085590,656482,539055
1332.97,0.086798,654926,536283
1336.33,0.087845,653727,534012
1339.69,0.090276,652497,530032
1343.04,0.092111,649913,525708
1346.39,0.094588,647671,520915
1349.73,0.096807,645338,516393
1354.18,0.100569,641175,508637
1357.52,0.103171,638376,503391
1360.85,0.105503,635805,498679
1364.17,0.107792,633413,494191
1367.49,0.109911,631026,489933
1370.81,0.112290,628050,484958
1374.12,0.114658,625034,480005
1378.54,0.118585,620272,472060
1381.84,0.122434,616892,465345
1385.14,0.126443,613613,458618
1388.43,0.131214,611526,452065
1391.72,0.136905,610663,445550
1395.01,0.142034,610634,440298
1398.29,0.148511,611700,434538
1402.66,0.156813,614051,427948
1405.93,0.163107,616268,423314
1409.2,0.169843,617795,417832
1412.46,0.175783,618872,412874
1415.72,0.181123,619795,408437
1418.98,0.186541,620495,403829
1422.23,0.190648,621087,400410
1426.56,0.196413,621375,395313
1429.8,0.200228,621616,392007
1433.04,0.203363,622129,389509
1436.27,0.206504,621526,386327
1439.5,0.209091,621113,383778
1442.72,0.212029,620921,381072
1445.94,0.215133,620270,377962
1450.23,0.218941,618860,373810
1453.44,0.221960,617697,370523
1456.64,0.225223,616264,366897
1459.85,0.227880,614413,363564
1463.04,0.231275,612307,359496
1466.24,0.234999,610032,355102
1469.43,0.238209,607345,350935
1473.67,0.244799,603789,343626
1476.85,0.250130,601175,337964
1480.02,0.256120,597737,331429
1483.19,0.261492,594479,325570
1486.36,0.266685,591232,319943
1489.52,0.271184,587853,314836
1492.68,0.274388,583875,310407
1496.89,0.276489,578062,305834
1500.03,0.275756,574159,304282
1503.18,0.275835,570285,302174
1506.32,0.275032,565444,300163
1509.45,0.273018,560571,298960
1512.58,0.270634,555821,298058
1515.71,0.268695,550344,296442
1519.87,0.265509,543983,295173
1522.99,0.263056,538764,293997
1526.1,0.260582,533692,292893
1529.21,0.256312,527902,292578
1532.32,0.254153,521886,290685
1535.42,0.250934,515888,289482
1538.51,0.247629,509987,288357
1541.6,0.244730,503936,286844
1545.72,0.239734,494694,284841
1548.8,0.236861,488378,283071
1551.88,0.234163,481832,281017
1554.95,0.232153,474989,278311
1558.02,0.230107,467818,275404
1561.08,0.228785,460730,272058
1564.15,0.228387,454170,268430
1568.22,0.226882,444181,263438
1571.27,0.227151,436947,258987
1574.32,0.225180,429598,255789
1577.36,0.223494,422039,252266
1580.4,0.221968,414375,248557
1583.43,0.220168,406354,244758
1586.46,0.219589,398475,240332
1590.49,0.216510,388982,236276
1593.51,0.214608,380708,232265
1596.53,0.211825,372727,228858
1599.54,0.210203,365060,224989
1602.55,0.208429,357543,221258
1605.55,0.206197,349495,217392
1608.55,0.203793,341154,213382
1612.54,0.200977,330877,208300
1615.53,0.198503,322904,204442
1618.51,0.197997,315116,199744
1621.49,0.196787,307217,195280
1624.47,0.195109,299481,191100
1627.44,0.194177,292112,186798
1630.41,0.193309,284245,182131
1634.36,0.191185,274079,176478
1637.32,0.189664,266916,172469
1640.27,0.190621,259612,167380
1643.22,0.188553,251804,163121
1646.16,0.188863,244348,158178
1649.1,0.186570,236703,154040
1652.04,0.184672,228171,149138
1655.95,0.184742,215408,140773
1658.88,0.180833,204937,135141
1661.8,0.177569,193395,128492
1664.72,0.172685,179728,120762
1667.63,0.163821,163642,112221
1670.54,0.155120,146312,102367
1673.44,0.143908,128451,92221
1677.31,0.134821,105080,77037
1680.21,0.125835,88906,66542
1683.1,0.126584,75033,56062
1685.99,0.131691,63520,46905
1688.87,0.136525,53714,39225
1691.75,0.134347,45653,33506
1694.62,0.139361,39137,28394
1697.49,0.150829,33776,23866
1701.31,0.150357,28175,19930

File: Column 1_050551_20150331_120014.csv
Method:,Column 1,,
Host Date-Time:,31/3/15 @ 12:0:14,,
Header Version:,1,,
System Temp (C):,33.18,,
Detector Temp (C):,32.45,,
Humidity (%):,3.91,,
Lamp PD:,3820,,
Shift Vector Coefficients:,-10.5391,0.0761263,-0.000134223,,
Pixel to Wavelength Coefficients:,1775.68,-0.916766,-0.000235065,,
Serial Number:,5510004,,
Scan Config Name:,Column 1,,
Scan Config Type:,Slew,,
Section 1,,
Start wavelength (nm):,900,,
End wavelength (nm):,1700,,
Pattern Pixel Width (nm):,   7.03,,,,
Exposure (ms):,  0.635,,,,
Digital Resolution:,228,,
Num Repeats:,6,,
PGA Gain:,64,,
Total Measurement Time in sec:,  2.740,,
Wavelength (nm),Absorbance (AU),Reference Signal (unitless),Sample Signal (unitless)
901.51,0.034168,108485,100277
905.376,0.038755,121306,110950
909.237,0.041397,131909,119916
913.095,0.042564,143299,129921
916.948,0.043479,156982,142027
922.079,0.042717,179937,163081
925.923,0.044202,200504,181101
929.762,0.045095,222660,200700
933.597,0.046058,244426,219831
937.427,0.045646,263972,237636
941.254,0.045846,281845,253609
945.076,0.045605,297271,267638
950.165,0.045485,315605,284223
953.978,0.044556,328029,296044
957.786,0.045661,340470,306491
961.59,0.046083,352317,316848
965.389,0.045785,363056,326730
969.185,0.046494,373162,335277
972.976,0.046772,382632,343565
976.763,0.047740,391202,350478
981.806,0.047779,400190,358498
985.583,0.048808,406088,362921
989.355,0.048873,410162,366507
993.124,0.049461,412868,368426
996.888,0.050103,414263,369125
1000.65,0.051336,415476,369156
1004.4,0.051968,415479,368622
1009.41,0.053657,414358,366200
1013.15,0.054112,412923,364550
1016.89,0.054657,411526,362861
1020.63,0.054467,409066,360850
1024.36,0.054417,406777,358872
1028.09,0.054028,404427,357118
1031.82,0.053787,401911,355094
1036.78,0.053218,398410,352462
1040.49,0.053425,396204,350343
1044.2,0.053085,394236,348876
1047.91,0.052384,392042,347495
1051.61,0.052009,389823,345827
1055.31,0.051317,388234,344966
1059,0.051535,387599,344229
1063.92,0.049879,386688,344732
1067.61,0.048807,386598,345504
1071.29,0.048693,387377,346291
1074.96,0.048254,388536,347678
1078.63,0.047245,389855,349670
1082.3,0.046824,391215,351230
1085.96,0.046391,393215,353378
1090.84,0.045172,396270,357124
1094.49,0.044954,398760,359549
1098.14,0.045033,400987,361491
1101.79,0.044327,403477,364327
1105.43,0.044715,406116,366383
1109.06,0.044203,407701,368247
1112.7,0.043808,409859,370533
1117.53,0.043987,412494,372761
1121.15,0.045245,414909,373859
1124.77,0.045307,416559,375292
1128.38,0.047234,418532,375400
1131.99,0.048069,419956,375954
1135.6,0.050038,421946,376027
1139.2,0.051847,423881,376181
1143.99,0.054722,426786,376260
1147.58,0.055531,428617,377171
1151.17,0.056671,431169,378422
1154.75,0.057695,433579,379641
1158.33,0.060226,436264,379772
1161.91,0.062388,439132,380371
1165.48,0.064598,442389,381247
1169.04,0.067052,446101,382280
1173.79,0.070798,451929,383948
1177.34,0.073413,456026,385103
1180.9,0.075189,461306,387972
1184.44,0.077527,467657,391201
1187.99,0.077990,473969,396059
1191.52,0.077929,479856,401035
1195.06,0.077328,487372,407880
1199.76,0.076457,497347,417064
1203.29,0.075653,504311,423687
1206.81,0.075088,511507,430292
1210.33,0.074023,519078,437733
1213.84,0.073751,527163,444830
1217.35,0.072883,534208,451676
1220.85,0.071540,540472,458388
1225.51,0.070914,549929,467081
1229.01,0.070536,556888,473404
1232.5,0.069554,562180,478984
1235.98,0.069002,567975,484537
1239.46,0.068094,574815,491399
1242.94,0.067200,582782,499236
1246.41,0.066602,591476,507382
1251.03,0.066440,604016,518332
1254.5,0.066258,612289,525652
1257.96,0.066675,619125,531011
1261.41,0.067175,624551,535048
1264.86,0.067863,629900,538776
1268.31,0.068645,634345,541602
1271.75,0.069517,638574,544120
1276.33,0.070219,642499,546580
1279.76,0.069951,645905,549816
1283.19,0.069190,648307,552829
1286.61,0.068834,650446,555108
1290.03,0.068455,652132,557033
1293.44,0.068276,653907,558779
1296.85,0.067863,655963,561069
1301.39,0.067796,657349,562341
1304.8,0.067677,657558,562674
1308.19,0.068206,658515,562807
1311.58,0.068064,658804,563238
1314.97,0.068949,659011,562269
1318.36,0.069568,658272,560838
1321.73,0.069632,658022,560542
1326.23,0.071272,657870,558301
1329.6,0.072096,656482,556066
1332.97,0.073162,654926,553389
1336.33,0.074490,653727,550689
1339.69,0.075958,652497,547798
1343.04,0.077897,649913,543198
1346.39,0.080356,647671,538268
1349.73,0.082648,645338,533506
1354.18,0.085483,641175,526615
1357.52,0.088471,638376,520722
1360.85,0.090276,635805,516473
1364.17,0.092503,633413,511899
1367.49,0.095153,631026,506867
1370.81,0.097430,628050,501839
1374.12,0.100133,625034,496330
1378.54,0.103635,620272,488593
1381.84,0.107370,616892,481769
1385.14,0.111602,613613,474562
1388.43,0.116189,611526,467978
1391.72,0.122011,610663,461095
1395.01,0.127583,610634,455195
1398.29,0.133247,611700,450082
1402.66,0.141342,614051,443468
1405.93,0.148287,616268,438009
1409.2,0.154264,617795,433092
1412.46,0.159971,618872,428183
1415.72,0.165122,619795,423766
1418.98,0.169583,620495,419909
1422.23,0.174265,621087,415803
1426.56,0.178951,621375,411531
1429.8,0.182813,621616,408046
1433.04,0.185128,622129,406212
1436.27,0.187706,621526,403416
1439.5,0.190428,621113,400629
1442.72,0.192855,620921,398273
1445.94,0.195288,620270,395633
1450.23,0.199577,618860,390855
1453.44,0.202183,617697,387786
1456.64,0.205160,616264,384244
1459.85,0.207090,614413,381391
1463.04,0.209973,612307,377569
1466.24,0.213307,610032,373289
1469.43,0.216488,607345,368933
1473.67,0.221393,603789,362654
1476.85,0.226209,601175,357102
1480.02,0.231015,597737,351152
1483.19,0.237524,594479,344043
1486.36,0.242995,591232,337880
1489.52,0.246903,587853,332940
1492.68,0.250371,583875,328057
1496.89,0.252597,578062,323130
1500.03,0.252504,574159,321017
1503.18,0.253696,570285,317977
1506.32,0.252391,565444,316227
1509.45,0.250683,560571,314737
1512.58,0.249556,555821,312881
1515.71,0.246996,550344,311629
1519.87,0.244339,543983,309918
1522.99,0.241780,538764,308758
1526.1,0.239722,533692,307304
1529.21,0.236119,527902,306503
1532.32,0.233101,521886,305123
1535.42,0.230420,515888,303484
1538.51,0.226789,509987,302531
1541.6,0.224057,503936,300828
1545.72,0.219245,494694,298601
1548.8,0.215526,488378,297324
1551.88,0.214201,481832,294235
1554.95,0.211351,474989,291966
1558.02,0.210365,467818,288212
1561.08,0.208134,460730,285307
1564.15,0.207530,454170,281636
1568.22,0.206719,444181,275957
1571.27,0.206163,436947,271810
1574.32,0.204540,429598,268239
1577.36,0.203232,422039,264314
1580.4,0.201352,414375,260640
1583.43,0.199570,406354,256646
1586.46,0.198532,398475,252272
1590.49,0.196191,388982,247593
1593.51,0.193786,380708,243672
1596.53,0.191542,372727,239800
1599.54,0.189461,365060,235995
1602.55,0.186263,357543,232844
1605.55,0.184848,349495,228346
1608.55,0.182096,341154,224313
1612.54,0.179548,330877,218836
1615.53,0.177865,322904,214392
1618.51,0.176831,315116,209720
1621.49,0.175166,307217,205248
1624.47,0.173835,299481,200694
1627.44,0.172795,292112,196225
1630.41,0.171386,284245,191561
1634.36,0.170195,274079,185217
1637.32,0.168730,266916,180986
1640.27,0.168341,259612,176191
1643.22,0.166469,251804,171630
1646.16,0.166185,244348,166657
1649.1,0.165539,236703,161683
1652.04,0.164465,228171,156241
1655.95,0.162103,215408,148306
1658.88,0.160042,204937,141768
1661.8,0.155542,193395,135177
1664.72,0.150877,179728,126981
1667.63,0.143598,163642,117570
1670.54,0.133411,146312,107614
1673.44,0.123558,128451,96645
1677.31,0.114749,105080,80681
1680.21,0.108781,88906,69207
1683.1,0.106821,75033,58672
1685.99,0.109782,63520,49332
1688.87,0.116383,53714,41087
1691.75,0.120657,45653,34579
1694.62,0.128322,39137,29125
1697.49,0.129004,33776,25096
1701.31,0.137348,28175,20536

File: Column 1_050551_20150331_120019.csv
Method:,Column 1,,
Host Date-Time:,31/3/15 @ 12:0:19,,
Header Version:,1,,
System Temp (C):,33.28,,
Detector Temp (C):,32.45,,
Humidity (%):,3.82,,
Lamp PD:,3820,,
Shift Vector Coefficients:,-10.5391,0.0761263,-0.000134223,,
Pixel to Wavelength Coefficients:,1775.68,-0.916766,-0.000235065,,
Serial Number:,5510004,,
Scan Config Name:,Column 1,,
Scan Config Type:,Slew,,
Section 1,,
Start wavelength (nm):,900,,
End wavelength (nm):,1700,,
Pattern Pixel Width (nm):,   7.03,,,,
Exposure (ms):,  0.635,,,,
Digital Resolution:,228,,
Num Repeats:,6,,
PGA Gain:,64,,
Total Measurement Time in sec:,  2.681,,
Wavelength (nm),Absorbance (AU),Reference Signal (unitless),Sample Signal (unitless)
901.51,0.033195,108485,100502
905.376,0.039637,121306,110725
909.237,0.042184,131909,119699
913.095,0.042554,143299,129924
916.948,0.042694,156982,142284
922.079,0.043487,179937,162792
925.923,0.044752,200504,180872
929.762,0.044824,222660,200825
933.597,0.045681,244426,220022
937.427,0.045510,263972,237710
941.254,0.045645,281845,253726
945.076,0.045045,297271,267983
950.165,0.044488,315605,284876
953.978,0.044751,328029,295911
957.786,0.045113,340470,306878
961.59,0.046120,352317,316821
965.389,0.045333,363056,327070
969.185,0.045706,373162,335886
972.976,0.046467,382632,343807
976.763,0.047510,391202,350664
981.806,0.048070,400190,358258
985.583,0.048337,406088,363315
989.355,0.049298,410162,366149
993.124,0.049935,412868,368024
996.888,0.049699,414263,369468
1000.65,0.050860,415476,369561
1004.4,0.051876,415479,368700
1009.41,0.053157,414358,366622
1013.15,0.053793,412923,364818
1016.89,0.054950,411526,362616
1020.63,0.054816,409066,360560
1024.36,0.054309,406777,358961
1028.09,0.054205,404427,356973
1031.82,0.053943,401911,354966
1036.78,0.053638,398410,352121
1040.49,0.053161,396204,350556
1044.2,0.053235,394236,348756
1047.91,0.052598,392042,347324
1051.61,0.051973,389823,345855
1055.31,0.051738,388234,344632
1059,0.051138,387599,344544
1063.92,0.049921,386688,344699
1067.61,0.049205,386598,345187
1071.29,0.048689,387377,346294
1074.96,0.048270,388536,347665
1078.63,0.047361,389855,349576
1082.3,0.046514,391215,351481
1085.96,0.046211,393215,353524
1090.84,0.045302,396270,357017
1094.49,0.044889,398760,359602
1098.14,0.044617,400987,361837
1101.79,0.044540,403477,364149
1105.43,0.044427,406116,366626
1109.06,0.044503,407701,367992
1112.7,0.043866,409859,370483
1117.53,0.044325,412494,372471
1121.15,0.045101,414909,373983
1124.77,0.045411,416559,375202
1128.38,0.045903,418532,376553
1131.99,0.048070,419956,375953
1135.6,0.049664,421946,376351
1139.2,0.051743,423881,376271
1143.99,0.054499,426786,376453
1147.58,0.055055,428617,377585
1151.17,0.056951,431169,378178
1154.75,0.058384,433579,379039
1158.33,0.059943,436264,380020
1161.91,0.061750,439132,380930
1165.48,0.064179,442389,381615
1169.04,0.066803,446101,382499
1173.79,0.070784,451929,383960
1177.34,0.072909,456026,385550
1180.9,0.075341,461306,387836
1184.44,0.077247,467657,391454
1187.99,0.077949,473969,396096
1191.52,0.078071,479856,400904
1195.06,0.077583,487372,407641
1199.76,0.076563,497347,416962
1203.29,0.075302,504311,424030
1206.81,0.075197,511507,430184
1210.33,0.073537,519078,438223
1213.84,0.073674,527163,444909
1217.35,0.072643,534208,451926
1220.85,0.071641,540472,458281
1225.51,0.070673,549929,467341
1229.01,0.070321,556888,473638
1232.5,0.069750,562180,478768
1235.98,0.068957,567975,484588
1239.46,0.067696,574815,491849
1242.94,0.066939,582782,499536
1246.41,0.066229,591476,507818
1251.03,0.065823,604016,519070
1254.5,0.066198,612289,525725
1257.96,0.066398,619125,531349
1261.41,0.067248,624551,534958
1264.86,0.068102,629900,538480
1268.31,0.068472,634345,541818
1271.75,0.069457,638574,544195
1276.33,0.069803,642499,547104
1279.76,0.069710,645905,550122
1283.19,0.069048,648307,553010
1286.61,0.068943,650446,554968
1290.03,0.068345,652132,557173
1293.44,0.068026,653907,559101
1296.85,0.067824,655963,561120
1301.39,0.067870,657349,562246
1304.8,0.067629,657558,562736
1308.19,0.068156,658515,562872
1311.58,0.068037,658804,563274
1314.97,0.068884,659011,562352
1318.36,0.069659,658272,560720
1321.73,0.069984,658022,560088
1326.23,0.071013,657870,558634
1329.6,0.072111,656482,556047
1332.97,0.073148,654926,553407
1336.33,0.074266,653727,550973
1339.69,0.076572,652497,547024
1343.04,0.077827,649913,543286
1346.39,0.080366,647671,538255
1349.73,0.082806,645338,533312
1354.18,0.085780,641175,526255
1357.52,0.087647,638376,521710
1360.85,0.090019,635805,516779
1364.17,0.092514,633413,511886
1367.49,0.095187,631026,506828
1370.81,0.097291,628050,501999
1374.12,0.099869,625034,496632
1378.54,0.103599,620272,488633
1381.84,0.107709,616892,481393
1385.14,0.111976,613613,474153
1388.43,0.116072,611526,468105
1391.72,0.122032,610663,461073
1395.01,0.127157,610634,455642
1398.29,0.132871,611700,450472
1402.66,0.141542,614051,443264
1405.93,0.147762,616268,438538
1409.2,0.153888,617795,433467
1412.46,0.159967,618872,428187
1415.72,0.164953,619795,423931
1418.98,0.169681,620495,419814
1422.23,0.173495,621087,416541
1426.56,0.178548,621375,411913
1429.8,0.181835,621616,408966
1433.04,0.185009,622129,406323
1436.27,0.187197,621526,403889
1439.5,0.189760,621113,401246
1442.72,0.192608,620921,398500
1445.94,0.194545,620270,396311
1450.23,0.198735,618860,391613
1453.44,0.201680,617697,388236
1456.64,0.204460,616264,384864
1459.85,0.206890,614413,381567
1463.04,0.209507,612307,377974
1466.24,0.212983,610032,373568
1469.43,0.215652,607345,369644
1473.67,0.221125,603789,362878
1476.85,0.225415,601175,357755
1480.02,0.230724,597737,351387
1483.19,0.237000,594479,344458
1486.36,0.242640,591232,338157
1489.52,0.246489,587853,333257
1492.68,0.249951,583875,328374
1496.89,0.252081,578062,323514
1500.03,0.253391,574159,320362
1503.18,0.253752,570285,317936
1506.32,0.252212,565444,316357
1509.45,0.251054,560571,314468
1512.58,0.249577,555821,312866
1515.71,0.247037,550344,311600
1519.87,0.244084,543983,310100
1522.99,0.241163,538764,309197
1526.1,0.238605,533692,308096
1529.21,0.235405,527902,307007
1532.32,0.232685,521886,305415
1535.42,0.230134,515888,303684
1538.51,0.226614,509987,302653
1541.6,0.224609,503936,300446
1545.72,0.218763,494694,298933
1548.8,0.215805,488378,297133
1551.88,0.212437,481832,295433
1554.95,0.211131,474989,292114
1558.02,0.209717,467818,288642
1561.08,0.207574,460730,285675
1564.15,0.207609,454170,281585
1568.22,0.205326,444181,276843
1571.27,0.205761,436947,272062
1574.32,0.204013,429598,268565
1577.36,0.202718,422039,264627
1580.4,0.201968,414375,260271
1583.43,0.199274,406354,256821
1586.46,0.198585,398475,252241
1590.49,0.195168,388982,248177
1593.51,0.193119,380708,244047
1596.53,0.190668,372727,240283
1599.54,0.189127,365060,236177
1602.55,0.186948,357543,232477
1605.55,0.184636,349495,228457
1608.55,0.181833,341154,224449
1612.54,0.179260,330877,218981
1615.53,0.177306,322904,214668
1618.51,0.175974,315116,210134
1621.49,0.174663,307217,205486
1624.47,0.172964,299481,201097
1627.44,0.172642,292112,196294
1630.41,0.171883,284245,191342
1634.36,0.169235,274079,185627
1637.32,0.168137,266916,181233
1640.27,0.168316,259612,176201
1643.22,0.166535,251804,171604
1646.16,0.165966,244348,166741
1649.1,0.166085,236703,161480
1652.04,0.164755,228171,156137
1655.95,0.161503,215408,148511
1658.88,0.158870,204937,142151
1661.8,0.156305,193395,134940
1664.72,0.148313,179728,127733
1667.63,0.142657,163642,117825
1670.54,0.132114,146312,107936
1673.44,0.123491,128451,96660
1677.31,0.109697,105080,81625
1680.21,0.107303,88906,69443
1683.1,0.107814,75033,58538
1685.99,0.107954,63520,49540
1688.87,0.116489,53714,41077
1691.75,0.118515,45653,34750
1694.62,0.122972,39137,29486
1697.49,0.127484,33776,25184
1701.31,0.127851,28175,20990