Folder: textile_sorting_NIRSCAN_/samples/wool/wool-000811 (part 76)

File: Column 1_050571_20150331_120955.csv
Method:,Column 1,,
Host Date-Time:,31/3/15 @ 12:9:55,,
Header Version:,1,,
System Temp (C):,34.1,,
Detector Temp (C):,34.15,,
Humidity (%):,1.76,,
Lamp PD:,3818,,
Shift Vector Coefficients:,-10.5391,0.0761263,-0.000134223,,
Pixel to Wavelength Coefficients:,1775.68,-0.916766,-0.000235065,,
Serial Number:,5510004,,
Scan Config Name:,Column 1,,
Scan Config Type:,Slew,,
Section 1,,
Start wavelength (nm):,900,,
End wavelength (nm):,1700,,
Pattern Pixel Width (nm):,   7.03,,,,
Exposure (ms):,  0.635,,,,
Digital Resolution:,228,,
Num Repeats:,6,,
PGA Gain:,64,,
Total Measurement Time in sec:,  2.676,,
Wavelength (nm),Absorbance (AU),Reference Signal (unitless),Sample Signal (unitless)
901.51,0.033398,108485,100455
905.376,0.041910,121306,110147
909.237,0.042572,131909,119592
913.095,0.043833,143299,129542
916.948,0.044915,156982,141558
922.079,0.047282,179937,161376
925.923,0.047679,200504,179657
929.762,0.049422,222660,198710
933.597,0.049707,244426,217992
937.427,0.049925,263972,235306
941.254,0.048317,281845,252170
945.076,0.047596,297271,266414
950.165,0.046471,315605,283578
953.978,0.046562,328029,294680
957.786,0.046822,340470,305673
961.59,0.047160,352317,316063
965.389,0.047289,363056,325600
969.185,0.047025,373162,334867
972.976,0.047492,382632,342996
976.763,0.048128,391202,350165
981.806,0.048352,400190,358026
985.583,0.048905,406088,362840
989.355,0.049684,410162,365823
993.124,0.050437,412868,367599
996.888,0.050787,414263,368544
1000.65,0.051676,415476,368867
1004.4,0.052674,415479,368023
1009.41,0.054790,414358,365246
1013.15,0.054621,412923,364123
1016.89,0.054956,411526,362611
1020.63,0.054956,409066,360444
1024.36,0.054592,406777,358727
1028.09,0.054767,404427,356511
1031.82,0.054489,401911,354520
1036.78,0.053649,398410,352112
1040.49,0.053264,396204,350473
1044.2,0.053783,394236,348316
1047.91,0.053152,392042,346881
1051.61,0.052618,389823,345342
1055.31,0.051940,388234,344472
1059,0.051234,387599,344468
1063.92,0.050232,386688,344452
1067.61,0.049725,386598,344774
1071.29,0.049382,387377,345742
1074.96,0.048618,388536,347387
1078.63,0.047767,389855,349250
1082.3,0.047553,391215,350641
1085.96,0.046464,393215,353318
1090.84,0.045870,396270,356551
1094.49,0.045709,398760,358924
1098.14,0.045510,400987,361094
1101.79,0.044739,403477,363982
1105.43,0.045214,406116,365962
1109.06,0.043875,407701,368525
1112.7,0.043818,409859,370524
1117.53,0.044178,412494,372597
1121.15,0.044786,414909,374254
1124.77,0.045156,416559,375423
1128.38,0.046455,418532,376074
1131.99,0.048424,419956,375647
1135.6,0.049291,421946,376674
1139.2,0.051549,423881,376439
1143.99,0.053839,426786,377026
1147.58,0.055233,428617,377430
1151.17,0.056859,431169,378258
1154.75,0.057930,433579,379436
1158.33,0.059180,436264,380688
1161.91,0.061280,439132,381342
1165.48,0.063866,442389,381890
1169.04,0.065983,446101,383222
1173.79,0.069877,451929,384763
1177.34,0.072532,456026,385885
1180.9,0.074785,461306,388333
1184.44,0.076778,467657,391877
1187.99,0.077479,473969,396525
1191.52,0.077202,479856,401707
1195.06,0.077500,487372,407719
1199.76,0.075782,497347,417713
1203.29,0.074900,504311,424423
1206.81,0.074466,511507,430909
1210.33,0.073650,519078,438109
1213.84,0.072966,527163,445635
1217.35,0.072124,534208,452466
1220.85,0.071208,540472,458738
1225.51,0.070274,549929,467770
1229.01,0.069953,556888,474040
1232.5,0.068884,562180,479724
1235.98,0.068355,567975,485260
1239.46,0.067389,574815,492197
1242.94,0.066546,582782,499989
1246.41,0.065780,591476,508343
1251.03,0.065338,604016,519650
1254.5,0.065430,612289,526655
1257.96,0.066279,619125,531495
1261.41,0.067129,624551,535105
1264.86,0.067606,629900,539095
1268.31,0.068082,634345,542305
1271.75,0.068742,638574,545091
1276.33,0.068962,642499,548164
1279.76,0.068887,645905,551165
1283.19,0.068426,648307,553802
1286.61,0.068296,650446,555796
1290.03,0.067766,652132,557917
1293.44,0.067138,653907,560245
1296.85,0.067040,655963,562133
1301.39,0.067063,657349,563291
1304.8,0.066726,657558,563908
1308.19,0.066901,658515,564501
1311.58,0.067251,658804,564294
1314.97,0.067651,659011,563951
1318.36,0.068243,658272,562552
1321.73,0.068357,658022,562190
1326.23,0.069301,657870,560840
1329.6,0.069774,656482,559048
1332.97,0.071311,654926,555752
1336.33,0.072333,653727,553431
1339.69,0.073835,652497,550482
1343.04,0.075782,649913,545850
1346.39,0.078070,647671,541108
1349.73,0.080126,645338,536613
1354.18,0.083442,641175,529096
1357.52,0.085352,638376,524475
1360.85,0.087789,635805,519440
1364.17,0.090205,633413,514615
1367.49,0.092134,631026,510403
1370.81,0.094974,628050,504685
1374.12,0.097686,625034,499135
1378.54,0.100497,620272,492136
1381.84,0.103744,616892,485809
1385.14,0.107675,613613,478872
1388.43,0.111624,611526,472924
1391.72,0.116997,610663,466450
1395.01,0.121029,610634,462117
1398.29,0.126174,611700,457472
1402.66,0.133207,614051,451853
1405.93,0.139098,616268,447375
1409.2,0.144643,617795,442794
1412.46,0.149096,618872,439041
1415.72,0.153884,619795,434875
1418.98,0.157709,620495,431548
1422.23,0.161064,621087,428636
1426.56,0.165628,621375,424352
1429.8,0.168318,621616,421895
1433.04,0.171457,622129,419202
1436.27,0.173588,621526,416746
1439.5,0.175518,621113,414622
1442.72,0.177787,620921,412334
1445.94,0.180611,620270,409232
1450.23,0.184332,618860,404819
1453.44,0.187642,617697,400990
1456.64,0.190362,616264,397562
1459.85,0.193141,614413,393840
1463.04,0.196412,612307,389545
1466.24,0.199422,610032,385417
1469.43,0.203504,607345,380129
1473.67,0.209909,603789,372371
1476.85,0.215711,601175,365839
1480.02,0.221506,597737,358925
1483.19,0.228390,594479,351355
1486.36,0.235390,591232,343849
1489.52,0.240132,587853,338171
1492.68,0.244452,583875,332558
1496.89,0.246252,578062,327886
1500.03,0.247339,574159,324858
1503.18,0.247195,570285,322773
1506.32,0.246343,565444,320661
1509.45,0.244554,560571,319210
1512.58,0.243651,555821,317164
1515.71,0.240943,550344,316003
1519.87,0.237575,543983,314782
1522.99,0.234798,538764,313762
1526.1,0.232413,533692,312520
1529.21,0.228836,527902,311686
1532.32,0.226200,521886,310010
1535.42,0.225106,515888,307220
1538.51,0.219416,509987,307711
1541.6,0.216284,503936,306261
1545.72,0.211879,494694,303709
1548.8,0.208755,488378,301996
1551.88,0.206076,481832,299792
1554.95,0.204486,474989,296618
1558.02,0.202146,467818,293718
1561.08,0.200923,460730,290084
1564.15,0.200468,454170,286253
1568.22,0.199675,444181,280469
1571.27,0.199613,436947,275941
1574.32,0.197932,429598,272352
1577.36,0.196174,422039,268645
1580.4,0.194851,414375,264571
1583.43,0.193219,406354,260427
1586.46,0.192039,398475,256072
1590.49,0.189549,388982,251409
1593.51,0.187259,380708,247362
1596.53,0.184960,372727,243462
1599.54,0.182258,365060,239942
1602.55,0.179809,357543,236330
1605.55,0.178828,349495,231533
1608.55,0.176284,341154,227335
1612.54,0.174271,330877,221511
1615.53,0.171654,322904,217480
1618.51,0.171028,315116,212541
1621.49,0.169332,307217,208024
1624.47,0.167615,299481,203589
1627.44,0.167953,292112,198425
1630.41,0.166037,284245,193935
1634.36,0.163390,274079,188142
1637.32,0.163641,266916,183119
1640.27,0.162045,259612,178764
1643.22,0.162019,251804,173398
1646.16,0.160081,244348,169016
1649.1,0.160028,236703,163748
1652.04,0.159142,228171,158168
1655.95,0.156106,215408,150368
1658.88,0.152691,204937,144188
1661.8,0.147511,193395,137700
1664.72,0.141535,179728,129742
1667.63,0.130381,163642,121203
1670.54,0.119253,146312,111180
1673.44,0.103424,128451,101231
1677.31,0.087658,105080,85874
1680.21,0.077481,88906,74379
1683.1,0.074748,75033,63169
1685.99,0.081256,63520,52681
1688.87,0.082705,53714,44400
1691.75,0.086435,45653,37414
1694.62,0.089056,39137,31881
1697.49,0.096553,33776,27043
1701.31,0.100431,28175,22358

File: Column 1_050571_20150331_121001.csv
Method:,Column 1,,
Host Date-Time:,31/3/15 @ 12:10:1,,
Header Version:,1,,
System Temp (C):,34.1,,
Detector Temp (C):,34.2,,
Humidity (%):,1.76,,
Lamp PD:,3818,,
Shift Vector Coefficients:,-10.5391,0.0761263,-0.000134223,,
Pixel to Wavelength Coefficients:,1775.68,-0.916766,-0.000235065,,
Serial Number:,5510004,,
Scan Config Name:,Column 1,,
Scan Config Type:,Slew,,
Section 1,,
Start wavelength (nm):,900,,
End wavelength (nm):,1700,,
Pattern Pixel Width (nm):,   7.03,,,,
Exposure (ms):,  0.635,,,,
Digital Resolution:,228,,
Num Repeats:,6,,
PGA Gain:,64,,
Total Measurement Time in sec:,  2.677,,
Wavelength (nm),Absorbance (AU),Reference Signal (unitless),Sample Signal (unitless)
901.51,0.036374,108485,99769
905.376,0.041275,121306,110308
909.237,0.045407,131909,118814
913.095,0.044745,143299,129270
916.948,0.046104,156982,141171
922.079,0.047343,179937,161353
925.923,0.048870,200504,179165
929.762,0.049383,222660,198728
933.597,0.050084,244426,217803
937.427,0.048644,263972,236001
941.254,0.048291,281845,252185
945.076,0.048116,297271,266095
950.165,0.047471,315605,282926
953.978,0.046678,328029,294601
957.786,0.047436,340470,305241
961.59,0.047601,352317,315742
965.389,0.047043,363056,325785
969.185,0.047778,373162,334287
972.976,0.047520,382632,342974
976.763,0.048363,391202,349976
981.806,0.049157,400190,357363
985.583,0.050028,406088,361903
989.355,0.049810,410162,365717
993.124,0.050313,412868,367704
996.888,0.051297,414263,368111
1000.65,0.051880,415476,368694
1004.4,0.053021,415479,367729
1009.41,0.054554,414358,365445
1013.15,0.054852,412923,363929
1016.89,0.055288,411526,362334
1020.63,0.055227,409066,360219
1024.36,0.054990,406777,358399
1028.09,0.054655,404427,356603
1031.82,0.054906,401911,354180
1036.78,0.053905,398410,351905
1040.49,0.054300,396204,349638
1044.2,0.053769,394236,348327
1047.91,0.053262,392042,346793
1051.61,0.053371,389823,344744
1055.31,0.052290,388234,344194
1059,0.051930,387599,343916
1063.92,0.050941,386688,343890
1067.61,0.049719,386598,344779
1071.29,0.049718,387377,345474
1074.96,0.049350,388536,346802
1078.63,0.047772,389855,349246
1082.3,0.047252,391215,350884
1085.96,0.046785,393215,353057
1090.84,0.045883,396270,356540
1094.49,0.045793,398760,358855
1098.14,0.045476,400987,361122
1101.79,0.044974,403477,363785
1105.43,0.044825,406116,366290
1109.06,0.044923,407701,367637
1112.7,0.044552,409859,369898
1117.53,0.044255,412494,372531
1121.15,0.045254,414909,373851
1124.77,0.045481,416559,375142
1128.38,0.047098,418532,375518
1131.99,0.048559,419956,375530
1135.6,0.050322,421946,375781
1139.2,0.051877,423881,376155
1143.99,0.054077,426786,376819
1147.58,0.055289,428617,377381
1151.17,0.056311,431169,378736
1154.75,0.057424,433579,379878
1158.33,0.059468,436264,380436
1161.91,0.061711,439132,380964
1165.48,0.064214,442389,381584
1169.04,0.066212,446101,383020
1173.79,0.070192,451929,384484
1177.34,0.072782,456026,385663
1180.9,0.074967,461306,388170
1184.44,0.076754,467657,391898
1187.99,0.077684,473969,396338
1191.52,0.077297,479856,401619
1195.06,0.077532,487372,407689
1199.76,0.076212,497347,417299
1203.29,0.075315,504311,424017
1206.81,0.074706,511507,430671
1210.33,0.073932,519078,437825
1213.84,0.072877,527163,445726
1217.35,0.072553,534208,452020
1220.85,0.071160,540472,458789
1225.51,0.070349,549929,467690
1229.01,0.069904,556888,474093
1232.5,0.069424,562180,479128
1235.98,0.068745,567975,484824
1239.46,0.067477,574815,492097
1242.94,0.067012,582782,499453
1246.41,0.065923,591476,508176
1251.03,0.065887,604016,518993
1254.5,0.066187,612289,525738
1257.96,0.066447,619125,531290
1261.41,0.067067,624551,535181
1264.86,0.067786,629900,538872
1268.31,0.067954,634345,542465
1271.75,0.068784,638574,545038
1276.33,0.068987,642499,548133
1279.76,0.069027,645905,550988
1283.19,0.068625,648307,553548
1286.61,0.068227,650446,555884
1290.03,0.067935,652132,557700
1293.44,0.067191,653907,560176
1296.85,0.067185,655963,561946
1301.39,0.067106,657349,563236
1304.8,0.067251,657558,563227
1308.19,0.067237,658515,564065
1311.58,0.067198,658804,564362
1314.97,0.068000,659011,563499
1318.36,0.068308,658272,562468
1321.73,0.068506,658022,561997
1326.23,0.069754,657870,560256
1329.6,0.070652,656482,557918
1332.97,0.071192,654926,555904
1336.33,0.072618,653727,553068
1339.69,0.074289,652497,549907
1343.04,0.076232,649913,545284
1346.39,0.078705,647671,540318
1349.73,0.080135,645338,536602
1354.18,0.083366,641175,529189
1357.52,0.085870,638376,523850
1360.85,0.087989,635805,519200
1364.17,0.089804,633413,515090
1367.49,0.092779,631026,509646
1370.81,0.095016,628050,504636
1374.12,0.097137,625034,499766
1378.54,0.100672,620272,491938
1381.84,0.103846,616892,485695
1385.14,0.107816,613613,478717
1388.43,0.111392,611526,473176
1391.72,0.116541,610663,466939
1395.01,0.121230,610634,461903
1398.29,0.126423,611700,457210
1402.66,0.133676,614051,451366
1405.93,0.139133,616268,447339
1409.2,0.144322,617795,443121
1412.46,0.149307,618872,438828
1415.72,0.153822,619795,434937
1418.98,0.158139,620495,431121
1422.23,0.161512,621087,428194
1426.56,0.165878,621375,424107
1429.8,0.168496,621616,421722
1433.04,0.170985,622129,419658
1436.27,0.173233,621526,417087
1439.5,0.175678,621113,414470
1442.72,0.178319,620921,411829
1445.94,0.180498,620270,409339
1450.23,0.184411,618860,404745
1453.44,0.187429,617697,401187
1456.64,0.190642,616264,397306
1459.85,0.193260,614413,393732
1463.04,0.196789,612307,389207
1466.24,0.199788,610032,385092
1469.43,0.203131,607345,380456
1473.67,0.209570,603789,372662
1476.85,0.214920,601175,366506
1480.02,0.222043,597737,358482
1483.19,0.229342,594479,350586
1486.36,0.235229,591232,343977
1489.52,0.240389,587853,337971
1492.68,0.243998,583875,332906
1496.89,0.246140,578062,327970
1500.03,0.247730,574159,324565
1503.18,0.247480,570285,322561
1506.32,0.246380,565444,320634
1509.45,0.245476,560571,318533
1512.58,0.243522,555821,317258
1515.71,0.240953,550344,315996
1519.87,0.238137,543983,314375
1522.99,0.235347,538764,313366
1526.1,0.232413,533692,312520
1529.21,0.231762,527902,309593
1532.32,0.226737,521886,309627
1535.42,0.223050,515888,308678
1538.51,0.220339,509987,307058
1541.6,0.216907,503936,305822
1545.72,0.211856,494694,303725
1548.8,0.209956,488378,301162
1551.88,0.206637,481832,299405
1554.95,0.203977,474989,296966
1558.02,0.202225,467818,293665
1561.08,0.201077,460730,289981
1564.15,0.201203,454170,285769
1568.22,0.200635,444181,279850
1571.27,0.198619,436947,276573
1574.32,0.198220,429598,272171
1577.36,0.196137,422039,268668
1580.4,0.195683,414375,264065
1583.43,0.192837,406354,260656
1586.46,0.191473,398475,256406
1590.49,0.190467,388982,250878
1593.51,0.187401,380708,247281
1596.53,0.185524,372727,243146
1599.54,0.182883,365060,239597
1602.55,0.180569,357543,235917
1605.55,0.178142,349495,231899
1608.55,0.175799,341154,227589
1612.54,0.174501,330877,221394
1615.53,0.172192,322904,217211
1618.51,0.171001,315116,212554
1621.49,0.169720,307217,207838
1624.47,0.168110,299481,203357
1627.44,0.167695,292112,198543
1630.41,0.166608,284245,193680
1634.36,0.165141,274079,187385
1637.32,0.164802,266916,182630
1640.27,0.163980,259612,177969
1643.22,0.163152,251804,172946
1646.16,0.162126,244348,168222
1649.1,0.160835,236703,163444
1652.04,0.158464,228171,158415
1655.95,0.156199,215408,150336
1658.88,0.153442,204937,143939
1661.8,0.148367,193395,137429
1664.72,0.141786,179728,129667
1667.63,0.130184,163642,121258
1670.54,0.117935,146312,111518
1673.44,0.105182,128451,100822
1677.31,0.087694,105080,85867
1680.21,0.079905,88906,73965
1683.1,0.075767,75033,63021
1685.99,0.078971,63520,52959
1688.87,0.083556,53714,44313
1691.75,0.091773,45653,36957
1694.62,0.097349,39137,31278
1697.49,0.103302,33776,26626
1701.31,0.112744,28175,21733

File: Column 1_050571_20150331_121003.csv
Method:,Column 1,,
Host Date-Time:,31/3/15 @ 12:10:3,,
Header Version:,1,,
System Temp (C):,34.1,,
Detector Temp (C):,34.23,,
Humidity (%):,1.76,,
Lamp PD:,3818,,
Shift Vector Coefficients:,-10.5391,0.0761263,-0.000134223,,
Pixel to Wavelength Coefficients:,1775.68,-0.916766,-0.000235065,,
Serial Number:,5510004,,
Scan Config Name:,Column 1,,
Scan Config Type:,Slew,,
Section 1,,
Start wavelength (nm):,900,,
End wavelength (nm):,1700,,
Pattern Pixel Width (nm):,   7.03,,,,
Exposure (ms):,  0.635,,,,
Digital Resolution:,228,,
Num Repeats:,6,,
PGA Gain:,64,,
Total Measurement Time in sec:,  2.675,,
Wavelength (nm),Absorbance (AU),Reference Signal (unitless),Sample Signal (unitless)
901.51,0.031853,108485,100813
905.376,0.037574,121306,111252
909.237,0.040139,131909,120264
913.095,0.041846,143299,130136
916.948,0.042886,156982,142221
922.079,0.045037,179937,162212
925.923,0.046812,200504,180016
929.762,0.048052,222660,199338
933.597,0.048682,244426,218507
937.427,0.047385,263972,236686
941.254,0.048159,281845,252262
945.076,0.046869,297271,266860
950.165,0.046579,315605,283508
953.978,0.045434,328029,295446
957.786,0.046169,340470,306133
961.59,0.046066,352317,316860
965.389,0.046141,363056,326462
969.185,0.046785,373162,335052
972.976,0.046468,382632,343806
976.763,0.047833,391202,350403
981.806,0.047753,400190,358520
985.583,0.048179,406088,363447
989.355,0.049025,410162,366379
993.124,0.049477,412868,368412
996.888,0.050107,414263,369121
1000.65,0.050761,415476,369645
1004.4,0.052062,415479,368542
1009.41,0.053882,414358,366011
1013.15,0.053383,412923,365162
1016.89,0.054901,411526,362657
1020.63,0.054273,409066,361011
1024.36,0.053693,406777,359471
1028.09,0.053834,404427,357278
1031.82,0.053513,401911,355318
1036.78,0.053609,398410,352145
1040.49,0.053279,396204,350461
1044.2,0.052742,394236,349152
1047.91,0.052249,392042,347603
1051.61,0.052039,389823,345803
1055.31,0.051174,388234,345080
1059,0.050805,387599,344808
1063.92,0.049980,386688,344652
1067.61,0.049050,386598,345310
1071.29,0.048091,387377,346771
1074.96,0.047903,388536,347959
1078.63,0.047729,389855,349280
1082.3,0.046143,391215,351781
1085.96,0.045512,393215,354094
1090.84,0.045132,396270,357157
1094.49,0.045140,398760,359395
1098.14,0.044114,400987,362257
1101.79,0.044172,403477,364457
1105.43,0.043967,406116,367014
1109.06,0.043448,407701,368887
1112.7,0.043958,409859,370405
1117.53,0.043547,412494,373139
1121.15,0.044607,414909,374409
1124.77,0.044832,416559,375703
1128.38,0.046345,418532,376170
1131.99,0.047151,419956,376750
1135.6,0.049337,421946,376634
1139.2,0.050728,423881,377152
1143.99,0.053185,426786,377594
1147.58,0.053573,428617,378875
1151.17,0.055534,431169,379414
1154.75,0.056835,433579,380394
1158.33,0.058519,436264,381268
1161.91,0.060644,439132,381901
1165.48,0.063435,442389,382269
1169.04,0.065314,446101,383813
1173.79,0.069284,451929,385289
1177.34,0.071155,456026,387110
1180.9,0.074394,461306,388683
1184.44,0.076514,467657,392115
1187.99,0.076875,473969,397077
1191.52,0.076970,479856,401921
1195.06,0.076331,487372,408818
1199.76,0.075506,497347,417978
1203.29,0.074422,504311,424890
1206.81,0.073950,511507,431421
1210.33,0.073164,519078,438600
1213.84,0.072320,527163,446298
1217.35,0.071408,534208,453213
1220.85,0.070705,540472,459270
1225.51,0.069780,549929,468303
1229.01,0.069590,556888,474436
1232.5,0.068673,562180,479957
1235.98,0.068103,567975,485541
1239.46,0.066710,574815,492967
1242.94,0.066158,582782,500435
1246.41,0.065192,591476,509032
1251.03,0.065264,604016,519738
1254.5,0.065350,612289,526752
1257.96,0.065736,619125,532160
1261.41,0.066432,624551,535964
1264.86,0.067420,629900,539326
1268.31,0.067923,634345,542504
1271.75,0.068318,638574,545624
1276.33,0.068625,642499,548589
1279.76,0.068702,645905,551400
1283.19,0.068171,648307,554127
1286.61,0.067748,650446,556498
1290.03,0.067251,652132,558579
1293.44,0.066748,653907,560748
1296.85,0.066538,655963,562784
1301.39,0.066644,657349,563835
1304.8,0.066335,657558,564416
1308.19,0.066569,658515,564933
1311.58,0.066385,658804,565420
1314.97,0.067059,659011,564720
1318.36,0.067698,658272,563258
1321.73,0.068301,658022,562263
1326.23,0.069039,657870,561178
1329.6,0.070060,656482,558679
1332.97,0.070641,654926,556610
1336.33,0.071720,653727,554212
1339.69,0.073618,652497,550757
1343.04,0.075248,649913,546521
1346.39,0.077567,647671,541736
1349.73,0.079393,645338,537519
1354.18,0.082602,641175,530121
1357.52,0.084950,638376,524961
1360.85,0.087281,635805,520047
1364.17,0.089369,633413,515606
1367.49,0.091999,631026,510562
1370.81,0.094332,628050,505431
1374.12,0.097085,625034,499826
1378.54,0.099555,620272,493205
1381.84,0.103108,616892,486521
1385.14,0.106672,613613,479979
1388.43,0.111104,611526,473490
1391.72,0.116379,610663,467114
1395.01,0.120601,610634,462573
1398.29,0.125564,611700,458115
1402.66,0.132927,614051,452145
1405.93,0.138167,616268,448335
1409.2,0.143763,617795,443692
1412.46,0.148702,618872,439439
1415.72,0.153105,619795,435655
1418.98,0.157098,620495,432156
1422.23,0.161078,621087,428622
1426.56,0.164798,621375,425163
1429.8,0.167754,621616,422443
1433.04,0.170214,622129,420404
1436.27,0.172535,621526,417758
1439.5,0.174544,621113,415553
1442.72,0.177338,620921,412761
1445.94,0.180106,620270,409708
1450.23,0.183719,618860,405390
1453.44,0.186736,617697,401827
1456.64,0.189456,616264,398392
1459.85,0.192336,614413,394570
1463.04,0.195452,612307,390407
1466.24,0.199007,610032,385785
1469.43,0.202753,607345,380787
1473.67,0.209523,603789,372702
1476.85,0.215119,601175,366338
1480.02,0.220812,597737,359499
1483.19,0.228137,594479,351560
1486.36,0.234453,591232,344592
1489.52,0.239611,587853,338577
1492.68,0.243333,583875,333416
1496.89,0.245311,578062,328597
1500.03,0.246156,574159,325744
1503.18,0.246904,570285,322989
1506.32,0.245414,565444,321348
1509.45,0.244668,560571,319126
1512.58,0.242640,555821,317903
1515.71,0.240311,550344,316463
1519.87,0.237025,543983,315181
1522.99,0.234074,538764,314286
1526.1,0.230794,533692,313687
1529.21,0.228143,527902,312184
1532.32,0.224983,521886,310880
1535.42,0.222176,515888,309300
1538.51,0.218832,509987,308125
1541.6,0.216098,503936,306392
1545.72,0.211110,494694,304247
1548.8,0.208250,488378,302347
1551.88,0.204946,481832,300573
1554.95,0.203500,474989,297292
1558.02,0.201337,467818,294266
1561.08,0.200357,460730,290462
1564.15,0.199880,454170,286641
1568.22,0.198627,444181,281147
1571.27,0.198010,436947,276961
1574.32,0.196467,429598,273272
1577.36,0.195505,422039,269059
1580.4,0.193805,414375,265209
1583.43,0.192705,406354,260735
1586.46,0.190142,398475,257193
1590.49,0.188788,388982,251850
1593.51,0.186803,380708,247622
1596.53,0.183307,372727,244390
1599.54,0.181732,365060,240233
1602.55,0.179018,357543,236761
1605.55,0.178178,349495,231880
1608.55,0.176359,341154,227296
1612.54,0.173005,330877,222158
1615.53,0.170944,322904,217836
1618.51,0.169410,315116,213334
1621.49,0.169334,307217,208023
1624.47,0.167587,299481,203602
1627.44,0.165417,292112,199587
1630.41,0.164959,284245,194417
1634.36,0.162597,274079,188486
1637.32,0.162474,266916,183612
1640.27,0.162028,259612,178771
1643.22,0.161233,251804,173712
1646.16,0.159426,244348,169271
1649.1,0.158815,236703,164206
1652.04,0.157552,228171,158748
1655.95,0.153862,215408,151147
1658.88,0.150321,204937,144977
1661.8,0.146982,193395,137868
1664.72,0.139921,179728,130225
1667.63,0.127563,163642,121992
1670.54,0.116264,146312,111948
1673.44,0.102622,128451,101418
1677.31,0.083762,105080,86648
1680.21,0.073598,88906,75047
1683.1,0.070500,75033,63790
1685.99,0.071426,63520,53887
1688.87,0.076287,53714,45061
1691.75,0.075908,45653,38332
1694.62,0.082794,39137,32344
1697.49,0.086379,33776,27684
1701.31,0.085482,28175,23141