Folder: textile_sorting_NIRSCAN_/samples/wool/wool-000811 (part 80)

File: Column 1_050574_20150331_121112.csv
Method:,Column 1,,
Host Date-Time:,31/3/15 @ 12:11:12,,
Header Version:,1,,
System Temp (C):,34.17,,
Detector Temp (C):,34.36,,
Humidity (%):,1.66,,
Lamp PD:,3818,,
Shift Vector Coefficients:,-10.5391,0.0761263,-0.000134223,,
Pixel to Wavelength Coefficients:,1775.68,-0.916766,-0.000235065,,
Serial Number:,5510004,,
Scan Config Name:,Column 1,,
Scan Config Type:,Slew,,
Section 1,,
Start wavelength (nm):,900,,
End wavelength (nm):,1700,,
Pattern Pixel Width (nm):,   7.03,,,,
Exposure (ms):,  0.635,,,,
Digital Resolution:,228,,
Num Repeats:,6,,
PGA Gain:,64,,
Total Measurement Time in sec:,  2.690,,
Wavelength (nm),Absorbance (AU),Reference Signal (unitless),Sample Signal (unitless)
901.51,0.035565,108485,99955
905.376,0.041240,121306,110317
909.237,0.045542,131909,118777
913.095,0.044057,143299,129475
916.948,0.046301,156982,141107
922.079,0.047968,179937,161121
925.923,0.049491,200504,178909
929.762,0.050309,222660,198305
933.597,0.049733,244426,217979
937.427,0.049230,263972,235683
941.254,0.048584,281845,252015
945.076,0.047829,297271,266271
950.165,0.047028,315605,283215
953.978,0.046333,328029,294835
957.786,0.047220,340470,305393
961.59,0.047110,352317,316099
965.389,0.046711,363056,326034
969.185,0.047661,373162,334377
972.976,0.047525,382632,342970
976.763,0.048074,391202,350209
981.806,0.048887,400190,357585
985.583,0.049724,406088,362156
989.355,0.049924,410162,365621
993.124,0.050143,412868,367848
996.888,0.050343,414263,368921
1000.65,0.051151,415476,369313
1004.4,0.052581,415479,368102
1009.41,0.054069,414358,365853
1013.15,0.054434,412923,364280
1016.89,0.055040,411526,362541
1020.63,0.054751,409066,360614
1024.36,0.055534,406777,357950
1028.09,0.054888,404427,356412
1031.82,0.054553,401911,354468
1036.78,0.054383,398410,351518
1040.49,0.053718,396204,350107
1044.2,0.053860,394236,348254
1047.91,0.053203,392042,346840
1051.61,0.052584,389823,345369
1055.31,0.052392,388234,344113
1059,0.051331,387599,344391
1063.92,0.050613,386688,344150
1067.61,0.049521,386598,344936
1071.29,0.049661,387377,345520
1074.96,0.048333,388536,347615
1078.63,0.048327,389855,348800
1082.3,0.047238,391215,350895
1085.96,0.046570,393215,353232
1090.84,0.045842,396270,356574
1094.49,0.045395,398760,359184
1098.14,0.045533,400987,361075
1101.79,0.045357,403477,363464
1105.43,0.044865,406116,366256
1109.06,0.044627,407701,367887
1112.7,0.044310,409859,370105
1117.53,0.044420,412494,372390
1121.15,0.044848,414909,374201
1124.77,0.045487,416559,375137
1128.38,0.046805,418532,375771
1131.99,0.047752,419956,376229
1135.6,0.049745,421946,376281
1139.2,0.051590,423881,376404
1143.99,0.054202,426786,376711
1147.58,0.054661,428617,377927
1151.17,0.055914,431169,379082
1154.75,0.057718,433579,379621
1158.33,0.059171,436264,380696
1161.91,0.061328,439132,381300
1165.48,0.063268,442389,382416
1169.04,0.066462,446101,382799
1173.79,0.070036,451929,384622
1177.34,0.072546,456026,385872
1180.9,0.074521,461306,388569
1184.44,0.076563,467657,392071
1187.99,0.077648,473969,396371
1191.52,0.077502,479856,401429
1195.06,0.076777,487372,408398
1199.76,0.076108,497347,417399
1203.29,0.074846,504311,424475
1206.81,0.074789,511507,430589
1210.33,0.073288,519078,438475
1213.84,0.072606,527163,446004
1217.35,0.072120,534208,452471
1220.85,0.071081,540472,458873
1225.51,0.070573,549929,467448
1229.01,0.069969,556888,474022
1232.5,0.069127,562180,479456
1235.98,0.068431,567975,485175
1239.46,0.067442,574815,492137
1242.94,0.066169,582782,500423
1246.41,0.065655,591476,508490
1251.03,0.065536,604016,519413
1254.5,0.066059,612289,525893
1257.96,0.066530,619125,531188
1261.41,0.066860,624551,535436
1264.86,0.067316,629900,539455
1268.31,0.068181,634345,542181
1271.75,0.068951,638574,544829
1276.33,0.069074,642499,548023
1279.76,0.068821,645905,551249
1283.19,0.068273,648307,553997
1286.61,0.067931,650446,556263
1290.03,0.067712,652132,557986
1293.44,0.067068,653907,560335
1296.85,0.067175,655963,561958
1301.39,0.066869,657349,563543
1304.8,0.066997,657558,563556
1308.19,0.066955,658515,564431
1311.58,0.066745,658804,564951
1314.97,0.067594,659011,564025
1318.36,0.068257,658272,562534
1321.73,0.068201,658022,562393
1326.23,0.069173,657870,561005
1329.6,0.070287,656482,558388
1332.97,0.071199,654926,555896
1336.33,0.072317,653727,553451
1339.69,0.074087,652497,550163
1343.04,0.075423,649913,546301
1346.39,0.077756,647671,541500
1349.73,0.079993,645338,536777
1354.18,0.082895,641175,529763
1357.52,0.085470,638376,524332
1360.85,0.087262,635805,520070
1364.17,0.089795,633413,515100
1367.49,0.092164,631026,510368
1370.81,0.094889,628050,504784
1374.12,0.097138,625034,499765
1378.54,0.100045,620272,492648
1381.84,0.103749,616892,485803
1385.14,0.107573,613613,478985
1388.43,0.111323,611526,473251
1391.72,0.116154,610663,467356
1395.01,0.120737,610634,462428
1398.29,0.125837,611700,457827
1402.66,0.132907,614051,452166
1405.93,0.138368,616268,448128
1409.2,0.143593,617795,443866
1412.46,0.148531,618872,439612
1415.72,0.152596,619795,436166
1418.98,0.156919,620495,432334
1422.23,0.160327,621087,429364
1426.56,0.164586,621375,425371
1429.8,0.166959,621616,423217
1433.04,0.169859,622129,420747
1436.27,0.172098,621526,418178
1439.5,0.174657,621113,415445
1442.72,0.176992,620921,413090
1445.94,0.179751,620270,410043
1450.23,0.183306,618860,405776
1453.44,0.186522,617697,402025
1456.64,0.189564,616264,398293
1459.85,0.191568,614413,395269
1463.04,0.195464,612307,390396
1466.24,0.198873,610032,385904
1469.43,0.202384,607345,381111
1473.67,0.208926,603789,373215
1476.85,0.214506,601175,366855
1480.02,0.221464,597737,358960
1483.19,0.228571,594479,351209
1486.36,0.234236,591232,344764
1489.52,0.239922,587853,338335
1492.68,0.243621,583875,333195
1496.89,0.245960,578062,328106
1500.03,0.246764,574159,325288
1503.18,0.246935,570285,322966
1506.32,0.245586,565444,321221
1509.45,0.244598,560571,319178
1512.58,0.243176,555821,317511
1515.71,0.240825,550344,316089
1519.87,0.237689,543983,314700
1522.99,0.234744,538764,313801
1526.1,0.232371,533692,312550
1529.21,0.229288,527902,311362
1532.32,0.225879,521886,310239
1535.42,0.222896,515888,308787
1538.51,0.219416,509987,307711
1541.6,0.216624,503936,306021
1545.72,0.211506,494694,303970
1548.8,0.209069,488378,301778
1551.88,0.205840,481832,299955
1554.95,0.203983,474989,296962
1558.02,0.201840,467818,293925
1561.08,0.200730,460730,290213
1564.15,0.200713,454170,286092
1568.22,0.199653,444181,280483
1571.27,0.198399,436947,276713
1574.32,0.198423,429598,272044
1577.36,0.195763,422039,268899
1580.4,0.194950,414375,264511
1583.43,0.193224,406354,260424
1586.46,0.191436,398475,256428
1590.49,0.189267,388982,251572
1593.51,0.187336,380708,247318
1596.53,0.184081,372727,243955
1599.54,0.182426,365060,239849
1602.55,0.180593,357543,235904
1605.55,0.177528,349495,232227
1608.55,0.176040,341154,227463
1612.54,0.173627,330877,221840
1615.53,0.171912,322904,217351
1618.51,0.170723,315116,212690
1621.49,0.169777,307217,207811
1624.47,0.169336,299481,202784
1627.44,0.166476,292112,199101
1630.41,0.165875,284245,194007
1634.36,0.163584,274079,188058
1637.32,0.163480,266916,183187
1640.27,0.162348,259612,178639
1643.22,0.161831,251804,173473
1646.16,0.160451,244348,168872
1649.1,0.159985,236703,163764
1652.04,0.158933,228171,158244
1655.95,0.155570,215408,150554
1658.88,0.150339,204937,144971
1661.8,0.148743,193395,137310
1664.72,0.142031,179728,129594
1667.63,0.129197,163642,121534
1670.54,0.116792,146312,111812
1673.44,0.103845,128451,101133
1677.31,0.084118,105080,86577
1680.21,0.077113,88906,74442
1683.1,0.071939,75033,63579
1685.99,0.079414,63520,52905
1688.87,0.078102,53714,44873
1691.75,0.088273,45653,37256
1694.62,0.092255,39137,31647
1697.49,0.098146,33776,26944
1701.31,0.104490,28175,22150

File: Column 1_050574_20150331_121117.csv
Method:,Column 1,,
Host Date-Time:,31/3/15 @ 12:11:17,,
Header Version:,1,,
System Temp (C):,34.17,,
Detector Temp (C):,34.4,,
Humidity (%):,1.66,,
Lamp PD:,3818,,
Shift Vector Coefficients:,-10.5391,0.0761263,-0.000134223,,
Pixel to Wavelength Coefficients:,1775.68,-0.916766,-0.000235065,,
Serial Number:,5510004,,
Scan Config Name:,Column 1,,
Scan Config Type:,Slew,,
Section 1,,
Start wavelength (nm):,900,,
End wavelength (nm):,1700,,
Pattern Pixel Width (nm):,   7.03,,,,
Exposure (ms):,  0.635,,,,
Digital Resolution:,228,,
Num Repeats:,6,,
PGA Gain:,64,,
Total Measurement Time in sec:,  2.692,,
Wavelength (nm),Absorbance (AU),Reference Signal (unitless),Sample Signal (unitless)
901.51,0.033939,108485,100330
905.376,0.040453,121306,110517
909.237,0.043230,131909,119411
913.095,0.044235,143299,129422
916.948,0.044728,156982,141619
922.079,0.047772,179937,161194
925.923,0.049542,200504,178888
929.762,0.050769,222660,198095
933.597,0.049964,244426,217863
937.427,0.048821,263972,235905
941.254,0.048307,281845,252176
945.076,0.047323,297271,266581
950.165,0.046824,315605,283348
953.978,0.046590,328029,294661
957.786,0.046262,340470,306067
961.59,0.046795,352317,316329
965.389,0.047149,363056,325705
969.185,0.047047,373162,334850
972.976,0.047113,382632,343296
976.763,0.047681,391202,350526
981.806,0.048416,400190,357973
985.583,0.049098,406088,362679
989.355,0.050553,410162,365092
993.124,0.050782,412868,367307
996.888,0.050652,414263,368658
1000.65,0.051736,415476,368816
1004.4,0.052648,415479,368045
1009.41,0.054309,414358,365651
1013.15,0.054688,412923,364067
1016.89,0.054713,411526,362814
1020.63,0.055252,409066,360198
1024.36,0.054821,406777,358538
1028.09,0.054519,404427,356715
1031.82,0.054516,401911,354498
1036.78,0.053994,398410,351833
1040.49,0.053487,396204,350293
1044.2,0.053233,394236,348757
1047.91,0.052608,392042,347316
1051.61,0.052564,389823,345385
1055.31,0.051558,388234,344775
1059,0.052001,387599,343860
1063.92,0.050513,386688,344229
1067.61,0.049152,386598,345229
1071.29,0.048674,387377,346306
1074.96,0.048510,388536,347473
1078.63,0.048636,389855,348552
1082.3,0.047270,391215,350869
1085.96,0.046939,393215,352932
1090.84,0.045868,396270,356552
1094.49,0.045571,398760,359038
1098.14,0.045015,400987,361506
1101.79,0.044627,403477,364076
1105.43,0.044795,406116,366315
1109.06,0.044066,407701,368363
1112.7,0.044141,409859,370249
1117.53,0.043927,412494,372813
1121.15,0.044812,414909,374232
1124.77,0.045173,416559,375408
1128.38,0.046485,418532,376048
1131.99,0.047483,419956,376462
1135.6,0.049859,421946,376182
1139.2,0.051429,423881,376543
1143.99,0.053756,426786,377098
1147.58,0.055364,428617,377316
1151.17,0.056107,431169,378914
1154.75,0.057362,433579,379932
1158.33,0.058771,436264,381047
1161.91,0.061032,439132,381560
1165.48,0.063508,442389,382205
1169.04,0.066123,446101,383098
1173.79,0.070395,451929,384304
1177.34,0.071924,456026,386425
1180.9,0.074585,461306,388512
1184.44,0.076744,467657,391907
1187.99,0.077474,473969,396530
1191.52,0.076864,479856,402019
1195.06,0.077012,487372,408177
1199.76,0.075448,497347,418034
1203.29,0.074679,504311,424639
1206.81,0.073768,511507,431602
1210.33,0.073135,519078,438629
1213.84,0.072689,527163,445919
1217.35,0.071704,534208,452904
1220.85,0.071296,540472,458646
1225.51,0.070076,549929,467984
1229.01,0.069831,556888,474173
1232.5,0.069010,562180,479585
1235.98,0.068251,567975,485376
1239.46,0.066984,574815,492656
1242.94,0.066441,582782,500110
1246.41,0.065459,591476,508719
1251.03,0.065326,604016,519664
1254.5,0.065844,612289,526153
1257.96,0.066207,619125,531583
1261.41,0.066294,624551,536135
1264.86,0.067247,629900,539541
1268.31,0.068015,634345,542388
1271.75,0.068745,638574,545088
1276.33,0.069017,642499,548094
1279.76,0.068896,645905,551154
1283.19,0.068539,648307,553658
1286.61,0.067941,650446,556250
1290.03,0.067697,652132,558006
1293.44,0.066914,653907,560534
1296.85,0.066880,655963,562341
1301.39,0.066368,657349,564193
1304.8,0.066320,657558,564435
1308.19,0.066716,658515,564742
1311.58,0.066999,658804,564621
1314.97,0.067963,659011,563547
1318.36,0.068308,658272,562467
1321.73,0.068414,658022,562116
1326.23,0.069418,657870,560689
1329.6,0.069783,656482,559036
1332.97,0.070838,654926,556358
1336.33,0.071982,653727,553878
1339.69,0.073764,652497,550572
1343.04,0.075505,649913,546198
1346.39,0.077742,647671,541518
1349.73,0.079310,645338,537622
1354.18,0.082839,641175,529831
1357.52,0.084989,638376,524913
1360.85,0.087327,635805,519992
1364.17,0.089341,633413,515639
1367.49,0.091930,631026,510643
1370.81,0.094373,628050,505384
1374.12,0.096848,625034,500099
1378.54,0.100254,620272,492411
1381.84,0.103362,616892,486236
1385.14,0.106913,613613,479713
1388.43,0.111433,611526,473132
1391.72,0.115940,610663,467586
1395.01,0.120641,610634,462530
1398.29,0.125464,611700,458220
1402.66,0.132660,614051,452423
1405.93,0.138000,616268,448507
1409.2,0.142949,617795,444524
1412.46,0.147864,618872,440288
1415.72,0.152972,619795,435789
1418.98,0.156685,620495,432567
1422.23,0.160267,621087,429423
1426.56,0.164652,621375,425306
1429.8,0.166941,621616,423235
1433.04,0.169407,622129,421186
1436.27,0.172210,621526,418070
1439.5,0.174480,621113,415614
1442.72,0.176510,620921,413548
1445.94,0.178857,620270,410888
1450.23,0.183097,618860,405971
1453.44,0.186180,617697,402342
1456.64,0.188918,616264,398886
1459.85,0.192301,614413,394602
1463.04,0.195119,612307,390706
1466.24,0.198601,610032,386146
1469.43,0.202398,607345,381099
1473.67,0.208485,603789,373594
1476.85,0.214666,601175,366720
1480.02,0.221054,597737,359299
1483.19,0.228203,594479,351507
1486.36,0.234793,591232,344322
1489.52,0.239520,587853,338648
1492.68,0.243189,583875,333527
1496.89,0.245964,578062,328103
1500.03,0.246485,574159,325497
1503.18,0.247157,570285,322801
1506.32,0.245943,565444,320957
1509.45,0.244111,560571,319536
1512.58,0.243130,555821,317545
1515.71,0.240786,550344,316117
1519.87,0.237074,543983,315146
1522.99,0.234339,538764,314094
1526.1,0.232220,533692,312659
1529.21,0.228935,527902,311615
1532.32,0.225510,521886,310503
1535.42,0.222739,515888,308899
1538.51,0.219375,509987,307740
1541.6,0.216533,503936,306085
1545.72,0.211659,494694,303863
1548.8,0.208695,488378,302038
1551.88,0.205654,481832,300083
1554.95,0.203490,474989,297299
1558.02,0.201518,467818,294143
1561.08,0.200454,460730,290397
1564.15,0.200039,454170,286536
1568.22,0.199282,444181,280723
1571.27,0.198274,436947,276793
1574.32,0.197458,429598,272649
1577.36,0.195302,422039,269185
1580.4,0.194380,414375,264858
1583.43,0.192694,406354,260742
1586.46,0.191231,398475,256549
1590.49,0.187997,388982,252309
1593.51,0.186738,380708,247659
1596.53,0.183898,372727,244058
1599.54,0.182247,365060,239948
1602.55,0.179394,357543,236556
1605.55,0.178438,349495,231741
1608.55,0.175683,341154,227650
1612.54,0.174263,330877,221515
1615.53,0.171283,322904,217666
1618.51,0.171028,315116,212541
1621.49,0.169065,307217,208152
1624.47,0.167969,299481,203423
1627.44,0.167017,292112,198853
1630.41,0.165889,284245,194001
1634.36,0.164152,274079,187812
1637.32,0.163829,266916,183040
1640.27,0.163266,259612,178262
1643.22,0.160716,251804,173919
1646.16,0.159714,244348,169159
1649.1,0.159824,236703,163825
1652.04,0.157590,228171,158734
1655.95,0.155777,215408,150482
1658.88,0.152324,204937,144310
1661.8,0.147300,193395,137767
1664.72,0.141037,179728,129891
1667.63,0.129340,163642,121494
1670.54,0.116229,146312,111957
1673.44,0.103064,128451,101315
1677.31,0.084404,105080,86520
1680.21,0.075175,88906,74775
1683.1,0.069629,75033,63918
1685.99,0.070943,63520,53947
1688.87,0.077744,53714,44910
1691.75,0.082472,45653,37757
1694.62,0.082754,39137,32347
1697.49,0.094439,33776,27175
1701.31,0.102553,28175,22249

File: Column 1_050574_20150331_121120.csv
Method:,Column 1,,
Host Date-Time:,31/3/15 @ 12:11:20,,
Header Version:,1,,
System Temp (C):,34.17,,
Detector Temp (C):,34.36,,
Humidity (%):,1.66,,
Lamp PD:,3818,,
Shift Vector Coefficients:,-10.5391,0.0761263,-0.000134223,,
Pixel to Wavelength Coefficients:,1775.68,-0.916766,-0.000235065,,
Serial Number:,5510004,,
Scan Config Name:,Column 1,,
Scan Config Type:,Slew,,
Section 1,,
Start wavelength (nm):,900,,
End wavelength (nm):,1700,,
Pattern Pixel Width (nm):,   7.03,,,,
Exposure (ms):,  0.635,,,,
Digital Resolution:,228,,
Num Repeats:,6,,
PGA Gain:,64,,
Total Measurement Time in sec:,  2.673,,
Wavelength (nm),Absorbance (AU),Reference Signal (unitless),Sample Signal (unitless)
901.51,0.034554,108485,100188
905.376,0.042008,121306,110122
909.237,0.044432,131909,119081
913.095,0.044420,143299,129367
916.948,0.045382,156982,141406
922.079,0.047995,179937,161111
925.923,0.048303,200504,179399
929.762,0.050287,222660,198315
933.597,0.050201,244426,217744
937.427,0.048955,263972,235832
941.254,0.048267,281845,252199
945.076,0.047288,297271,266603
950.165,0.046922,315605,283284
953.978,0.045791,328029,295203
957.786,0.046715,340470,305748
961.59,0.046561,352317,316499
965.389,0.046522,363056,326176
969.185,0.047047,373162,334850
972.976,0.047590,382632,342919
976.763,0.048064,391202,350217
981.806,0.048403,400190,357984
985.583,0.049286,406088,362522
989.355,0.049446,410162,366024
993.124,0.049689,412868,368233
996.888,0.051059,414263,368313
1000.65,0.051593,415476,368938
1004.4,0.053294,415479,367498
1009.41,0.053925,414358,365974
1013.15,0.054745,412923,364019
1016.89,0.055475,411526,362178
1020.63,0.055508,409066,359986
1024.36,0.055074,406777,358329
1028.09,0.054587,404427,356659
1031.82,0.054629,401911,354406
1036.78,0.053952,398410,351867
1040.49,0.053656,396204,350157
1044.2,0.053438,394236,348593
1047.91,0.052807,392042,347157
1051.61,0.051970,389823,345858
1055.31,0.052343,388234,344152
1059,0.051180,387599,344511
1063.92,0.050177,386688,344496
1067.61,0.049288,386598,345121
1071.29,0.049318,387377,345793
1074.96,0.048792,388536,347248
1078.63,0.048048,389855,349024
1082.3,0.047163,391215,350956
1085.96,0.046732,393215,353100
1090.84,0.045874,396270,356547
1094.49,0.045389,398760,359189
1098.14,0.045008,400987,361512
1101.79,0.044600,403477,364098
1105.43,0.044761,406116,366344
1109.06,0.043777,407701,368608
1112.7,0.043581,409859,370726
1117.53,0.044244,412494,372541
1121.15,0.044894,414909,374161
1124.77,0.045417,416559,375197
1128.38,0.046406,418532,376117
1131.99,0.047771,419956,376212
1135.6,0.049680,421946,376337
1139.2,0.051673,423881,376332
1143.99,0.053640,426786,377199
1147.58,0.055021,428617,377614
1151.17,0.056129,431169,378895
1154.75,0.057573,433579,379748
1158.33,0.059043,436264,380808
1161.91,0.061439,439132,381203
1165.48,0.063181,442389,382493
1169.04,0.066208,446101,383023
1173.79,0.069553,451929,385050
1177.34,0.071984,456026,386372
1180.9,0.074537,461306,388555
1184.44,0.076213,467657,392387
1187.99,0.077210,473969,396771
1191.52,0.077063,479856,401835
1195.06,0.076975,487372,408212
1199.76,0.075853,497347,417644
1203.29,0.074739,504311,424580
1206.81,0.074478,511507,430897
1210.33,0.073697,519078,438062
1213.84,0.072550,527163,446062
1217.35,0.071805,534208,452799
1220.85,0.071019,540472,458938
1225.51,0.069972,549929,468096
1229.01,0.069603,556888,474422
1232.5,0.068970,562180,479629
1235.98,0.068395,567975,485215
1239.46,0.067207,574815,492403
1242.94,0.066079,582782,500526
1246.41,0.065463,591476,508715
1251.03,0.065486,604016,519472
1254.5,0.065727,612289,526295
1257.96,0.066410,619125,531335
1261.41,0.066662,624551,535680
1264.86,0.067633,629900,539062
1268.31,0.067989,634345,542421
1271.75,0.068731,638574,545105
1276.33,0.068945,642499,548186
1279.76,0.068726,645905,551369
1283.19,0.068323,648307,553934
1286.61,0.068400,650446,555663
1290.03,0.067752,652132,557935
1293.44,0.066993,653907,560432
1296.85,0.066864,655963,562361
1301.39,0.066890,657349,563516
1304.8,0.066816,657558,563791
1308.19,0.066784,658515,564653
1311.58,0.067118,658804,564467
1314.97,0.067267,659011,564450
1318.36,0.068007,658272,562857
1321.73,0.067868,658022,562824
1326.23,0.069209,657870,560959
1329.6,0.069681,656482,559168
1332.97,0.070853,654926,556339
1336.33,0.072187,653727,553617
1339.69,0.073850,652497,550463
1343.04,0.075461,649913,546254
1346.39,0.077673,647671,541604
1349.73,0.079553,645338,537322
1354.18,0.082810,641175,529867
1357.52,0.084820,638376,525118
1360.85,0.087500,635805,519785
1364.17,0.089761,633413,515141
1367.49,0.092001,631026,510559
1370.81,0.094767,628050,504925
1374.12,0.096874,625034,500069
1378.54,0.100054,620272,492638
1381.84,0.103022,616892,486617
1385.14,0.107032,613613,479582
1388.43,0.111733,611526,472805
1391.72,0.115583,610663,467971
1395.01,0.120460,610634,462723
1398.29,0.125254,611700,458442
1402.66,0.132104,614051,453002
1405.93,0.137987,616268,448521
1409.2,0.143459,617795,444002
1412.46,0.148308,618872,439838
1415.72,0.152407,619795,436356
1418.98,0.156485,620495,432766
1422.23,0.159958,621087,429729
1426.56,0.164222,621375,425728
1429.8,0.166788,621616,423384
1433.04,0.170040,622129,420572
1436.27,0.172248,621526,418034
1439.5,0.173721,621113,416341
1442.72,0.176605,620921,413458
1445.94,0.179121,620270,410639
1450.23,0.182719,618860,406325
1453.44,0.185870,617697,402629
1456.64,0.189017,616264,398795
1459.85,0.192115,614413,394771
1463.04,0.194673,612307,391108
1466.24,0.198276,610032,386435
1469.43,0.202457,607345,381047
1473.67,0.208892,603789,373244
1476.85,0.214914,601175,366511
1480.02,0.221239,597737,359146
1483.19,0.228185,594479,351521
1486.36,0.234193,591232,344798
1489.52,0.239601,587853,338585
1492.68,0.243718,583875,333121
1496.89,0.246197,578062,327927
1500.03,0.246418,574159,325547
1503.18,0.246552,570285,323251
1506.32,0.246352,565444,320655
1509.45,0.244390,560571,319331
1512.58,0.241989,555821,318380
1515.71,0.240758,550344,316138
1519.87,0.237796,543983,314622
1522.99,0.234466,538764,314002
1526.1,0.231637,533692,313079
1529.21,0.228563,527902,311882
1532.32,0.225517,521886,310498
1535.42,0.222790,515888,308863
1538.51,0.219243,509987,307834
1541.6,0.216282,503936,306262
1545.72,0.211269,494694,304136
1548.8,0.208653,488378,302067
1551.88,0.205615,481832,300110
1554.95,0.203579,474989,297238
1558.02,0.201523,467818,294140
1561.08,0.200469,460730,290387
1564.15,0.200329,454170,286345
1568.22,0.199073,444181,280858
1571.27,0.198145,436947,276875
1574.32,0.197337,429598,272725
1577.36,0.195332,422039,269166
1580.4,0.194646,414375,264696
1583.43,0.192356,406354,260945
1586.46,0.191144,398475,256600
1590.49,0.188719,388982,251890
1593.51,0.186685,380708,247689
1596.53,0.184261,372727,243854
1599.54,0.181498,365060,240362
1602.55,0.179730,357543,236373
1605.55,0.178309,349495,231810
1608.55,0.176017,341154,227475
1612.54,0.173613,330877,221847
1615.53,0.171371,322904,217622
1618.51,0.170107,315116,212992
1621.49,0.168645,307217,208353
1624.47,0.167769,299481,203517
1627.44,0.166487,292112,199096
1630.41,0.165558,284245,194149
1634.36,0.164687,274079,187581
1637.32,0.163011,266916,183385
1640.27,0.161870,259612,178836
1643.22,0.161285,251804,173691
1646.16,0.160729,244348,168764
1649.1,0.160089,236703,163725
1652.04,0.158401,228171,158438
1655.95,0.154622,215408,150883
1658.88,0.152246,204937,144336
1661.8,0.147590,193395,137675
1664.72,0.141796,179728,129664
1667.63,0.129905,163642,121336
1670.54,0.115450,146312,112158
1673.44,0.101835,128451,101602
1677.31,0.084966,105080,86408
1680.21,0.074542,88906,74884
1683.1,0.070990,75033,63718
1685.99,0.073316,63520,53653
1688.87,0.077087,53714,44978
1691.75,0.081392,45653,37851
1694.62,0.087723,39137,31979
1697.49,0.091349,33776,27369
1701.31,0.097546,28175,22507