Folder: textile_sorting_NIRSCAN_/samples/wool/wool-000811 (part 67)

File: Column 1_050567_20150331_120752.csv
Method:,Column 1,,
Host Date-Time:,31/3/15 @ 12:7:52,,
Header Version:,1,,
System Temp (C):,33.95,,
Detector Temp (C):,33.89,,
Humidity (%):,1.86,,
Lamp PD:,3819,,
Shift Vector Coefficients:,-10.5391,0.0761263,-0.000134223,,
Pixel to Wavelength Coefficients:,1775.68,-0.916766,-0.000235065,,
Serial Number:,5510004,,
Scan Config Name:,Column 1,,
Scan Config Type:,Slew,,
Section 1,,
Start wavelength (nm):,900,,
End wavelength (nm):,1700,,
Pattern Pixel Width (nm):,   7.03,,,,
Exposure (ms):,  0.635,,,,
Digital Resolution:,228,,
Num Repeats:,6,,
PGA Gain:,64,,
Total Measurement Time in sec:,  2.678,,
Wavelength (nm),Absorbance (AU),Reference Signal (unitless),Sample Signal (unitless)
901.51,0.035648,108485,99936
905.376,0.041090,121306,110355
909.237,0.042351,131909,119653
913.095,0.045068,143299,129174
916.948,0.045778,156982,141277
922.079,0.046231,179937,161767
925.923,0.048001,200504,179524
929.762,0.048623,222660,199076
933.597,0.048356,244426,218671
937.427,0.048396,263972,236136
941.254,0.048341,281845,252156
945.076,0.047133,297271,266698
950.165,0.046916,315605,283288
953.978,0.046382,328029,294802
957.786,0.046384,340470,305981
961.59,0.047082,352317,316120
965.389,0.046828,363056,325946
969.185,0.047386,373162,334589
972.976,0.047664,382632,342860
976.763,0.048519,391202,349850
981.806,0.048971,400190,357516
985.583,0.049234,406088,362565
989.355,0.049826,410162,365704
993.124,0.050124,412868,367864
996.888,0.051013,414263,368352
1000.65,0.051337,415476,369155
1004.4,0.052586,415479,368098
1009.41,0.054288,414358,365669
1013.15,0.054719,412923,364041
1016.89,0.055670,411526,362016
1020.63,0.055040,409066,360374
1024.36,0.055319,406777,358127
1028.09,0.054390,404427,356821
1031.82,0.054072,401911,354861
1036.78,0.054131,398410,351722
1040.49,0.053618,396204,350188
1044.2,0.054122,394236,348044
1047.91,0.053197,392042,346845
1051.61,0.052091,389823,345761
1055.31,0.052167,388234,344292
1059,0.051736,387599,344070
1063.92,0.050697,386688,344083
1067.61,0.049801,386598,344714
1071.29,0.049198,387377,345888
1074.96,0.048807,388536,347236
1078.63,0.048462,389855,348691
1082.3,0.047030,391215,351063
1085.96,0.046969,393215,352908
1090.84,0.046335,396270,356169
1094.49,0.046006,398760,358679
1098.14,0.045764,400987,360883
1101.79,0.045316,403477,363499
1105.43,0.045301,406116,365889
1109.06,0.044531,407701,367969
1112.7,0.044320,409859,370096
1117.53,0.044994,412494,371898
1121.15,0.044979,414909,374088
1124.77,0.046132,416559,374580
1128.38,0.046942,418532,375653
1131.99,0.048262,419956,375787
1135.6,0.050328,421946,375776
1139.2,0.051851,423881,376178
1143.99,0.054764,426786,376224
1147.58,0.055546,428617,377158
1151.17,0.056498,431169,378573
1154.75,0.057864,433579,379493
1158.33,0.059872,436264,380082
1161.91,0.061534,439132,381119
1165.48,0.063782,442389,381964
1169.04,0.066617,446101,382663
1173.79,0.070523,451929,384191
1177.34,0.072805,456026,385642
1180.9,0.074733,461306,388379
1184.44,0.077432,467657,391287
1187.99,0.077846,473969,396190
1191.52,0.077866,479856,401093
1195.06,0.077506,487372,407713
1199.76,0.076179,497347,417331
1203.29,0.075494,504311,423842
1206.81,0.074818,511507,430560
1210.33,0.073562,519078,438198
1213.84,0.073230,527163,445364
1217.35,0.072271,534208,452313
1220.85,0.071141,540472,458809
1225.51,0.070312,549929,467729
1229.01,0.070108,556888,473871
1232.5,0.069317,562180,479246
1235.98,0.068894,567975,484658
1239.46,0.067578,574815,491983
1242.94,0.066825,582782,499667
1246.41,0.065979,591476,508110
1251.03,0.066171,604016,518654
1254.5,0.066515,612289,525341
1257.96,0.066299,619125,531471
1261.41,0.066976,624551,535294
1264.86,0.067506,629900,539219
1268.31,0.068232,634345,542117
1271.75,0.069421,638574,544240
1276.33,0.069480,642499,547511
1279.76,0.069311,645905,550627
1283.19,0.068976,648307,553101
1286.61,0.068544,650446,555478
1290.03,0.068199,652132,557361
1293.44,0.067413,653907,559890
1296.85,0.067200,655963,561926
1301.39,0.066918,657349,563479
1304.8,0.066865,657558,563727
1308.19,0.067260,658515,564034
1311.58,0.067466,658804,564014
1314.97,0.068158,659011,563294
1318.36,0.068359,658272,562401
1321.73,0.069009,658022,561347
1326.23,0.070151,657870,559743
1329.6,0.070603,656482,557982
1332.97,0.071620,654926,555357
1336.33,0.072929,653727,552672
1339.69,0.074622,652497,549486
1343.04,0.076256,649913,545255
1346.39,0.078485,647671,540592
1349.73,0.080564,645338,536072
1354.18,0.083914,641175,528522
1357.52,0.086239,638376,523405
1360.85,0.088114,635805,519051
1364.17,0.090464,633413,514308
1367.49,0.092763,631026,509664
1370.81,0.095324,628050,504278
1374.12,0.097996,625034,498778
1378.54,0.100998,620272,491569
1381.84,0.104323,616892,485161
1385.14,0.108487,613613,477978
1388.43,0.112961,611526,471470
1391.72,0.117364,610663,466056
1395.01,0.122315,610634,460751
1398.29,0.127695,611700,455873
1402.66,0.134916,614051,450079
1405.93,0.140947,616268,445474
1409.2,0.145918,617795,441496
1412.46,0.151036,618872,437084
1415.72,0.155406,619795,433353
1418.98,0.159426,620495,429845
1422.23,0.162976,621087,426753
1426.56,0.167599,621375,422430
1429.8,0.170209,621616,420062
1433.04,0.173376,622129,417354
1436.27,0.175598,621526,414822
1439.5,0.177484,621113,412750
1442.72,0.180105,620921,410139
1445.94,0.183061,620270,406930
1450.23,0.186557,618860,402750
1453.44,0.189298,617697,399464
1456.64,0.192139,616264,395939
1459.85,0.195450,614413,391751
1463.04,0.198290,612307,387864
1466.24,0.201236,610032,383810
1469.43,0.204997,607345,378825
1473.67,0.211273,603789,371204
1476.85,0.217234,601175,364558
1480.02,0.223278,597737,357464
1483.19,0.229641,594479,350345
1486.36,0.236050,591232,343327
1489.52,0.241196,587853,337344
1492.68,0.244699,583875,332369
1496.89,0.247374,578062,327040
1500.03,0.247981,574159,324378
1503.18,0.248061,570285,322130
1506.32,0.247931,565444,319491
1509.45,0.245986,560571,318159
1512.58,0.243980,555821,316924
1515.71,0.241892,550344,315313
1519.87,0.238811,543983,313888
1522.99,0.235978,538764,312911
1526.1,0.233569,533692,311689
1529.21,0.230275,527902,310655
1532.32,0.227277,521886,309242
1535.42,0.224476,515888,307666
1538.51,0.220707,509987,306798
1541.6,0.217059,503936,305715
1545.72,0.214154,494694,302122
1548.8,0.210296,488378,300926
1551.88,0.207873,481832,298554
1554.95,0.204996,474989,296270
1558.02,0.205255,467818,291623
1561.08,0.202170,460730,289252
1564.15,0.201594,454170,285512
1568.22,0.200559,444181,279899
1571.27,0.199191,436947,276209
1574.32,0.198631,429598,271914
1577.36,0.196756,422039,268285
1580.4,0.195844,414375,263967
1583.43,0.194898,406354,259422
1586.46,0.191983,398475,256105
1590.49,0.190050,388982,251119
1593.51,0.188532,380708,246638
1596.53,0.185345,372727,243246
1599.54,0.183316,365060,239358
1602.55,0.181092,357543,235633
1605.55,0.179064,349495,231407
1608.55,0.177606,341154,226644
1612.54,0.174885,330877,221198
1615.53,0.173048,322904,216783
1618.51,0.171731,315116,212197
1621.49,0.170794,307217,207325
1624.47,0.168535,299481,203158
1627.44,0.167995,292112,198406
1630.41,0.167191,284245,193420
1634.36,0.166680,274079,186722
1637.32,0.164541,266916,182740
1640.27,0.163844,259612,178025
1643.22,0.162389,251804,173250
1646.16,0.161118,244348,168613
1649.1,0.160646,236703,163515
1652.04,0.160195,228171,157785
1655.95,0.158783,215408,149444
1658.88,0.154082,204937,143727
1661.8,0.149069,193395,137207
1664.72,0.143222,179728,129239
1667.63,0.132594,163642,120587
1670.54,0.120121,146312,110958
1673.44,0.107818,128451,100212
1677.31,0.088321,105080,85743
1680.21,0.084046,88906,73263
1683.1,0.078685,75033,62599
1685.99,0.080342,63520,52792
1688.87,0.087307,53714,43932
1691.75,0.095502,45653,36641
1694.62,0.104644,39137,30757
1697.49,0.096120,33776,27070
1701.31,0.107007,28175,22022

File: Column 1_050567_20150331_120801.csv
Method:,Column 1,,
Host Date-Time:,31/3/15 @ 12:8:1,,
Header Version:,1,,
System Temp (C):,33.99,,
Detector Temp (C):,33.89,,
Humidity (%):,1.86,,
Lamp PD:,3819,,
Shift Vector Coefficients:,-10.5391,0.0761263,-0.000134223,,
Pixel to Wavelength Coefficients:,1775.68,-0.916766,-0.000235065,,
Serial Number:,5510004,,
Scan Config Name:,Column 1,,
Scan Config Type:,Slew,,
Section 1,,
Start wavelength (nm):,900,,
End wavelength (nm):,1700,,
Pattern Pixel Width (nm):,   7.03,,,,
Exposure (ms):,  0.635,,,,
Digital Resolution:,228,,
Num Repeats:,6,,
PGA Gain:,64,,
Total Measurement Time in sec:,  2.727,,
Wavelength (nm),Absorbance (AU),Reference Signal (unitless),Sample Signal (unitless)
901.51,0.035144,108485,100052
905.376,0.039966,121306,110641
909.237,0.043812,131909,119251
913.095,0.043424,143299,129664
916.948,0.045692,156982,141305
922.079,0.047696,179937,161222
925.923,0.049100,200504,179070
929.762,0.049383,222660,198728
933.597,0.049366,244426,218163
937.427,0.049060,263972,235775
941.254,0.048727,281845,251932
945.076,0.047082,297271,266729
950.165,0.047602,315605,282841
953.978,0.046851,328029,294484
957.786,0.046891,340470,305624
961.59,0.047403,352317,315886
965.389,0.047169,363056,325690
969.185,0.047605,373162,334420
972.976,0.048322,382632,342341
976.763,0.048288,391202,350036
981.806,0.049334,400190,357217
985.583,0.050125,406088,361822
989.355,0.050016,410162,365544
993.124,0.050501,412868,367545
996.888,0.051111,414263,368269
1000.65,0.051616,415476,368918
1004.4,0.052629,415479,368061
1009.41,0.053998,414358,365913
1013.15,0.054997,412923,363808
1016.89,0.055165,411526,362437
1020.63,0.055482,409066,360007
1024.36,0.055277,406777,358162
1028.09,0.055229,404427,356132
1031.82,0.055149,401911,353982
1036.78,0.054301,398410,351584
1040.49,0.054176,396204,349738
1044.2,0.054097,394236,348064
1047.91,0.053433,392042,346657
1051.61,0.052494,389823,345441
1055.31,0.051952,388234,344462
1059,0.052208,387599,343696
1063.92,0.050745,386688,344045
1067.61,0.049811,386598,344706
1071.29,0.049476,387377,345667
1074.96,0.048273,388536,347663
1078.63,0.048085,389855,348994
1082.3,0.047237,391215,350896
1085.96,0.046777,393215,353064
1090.84,0.046340,396270,356165
1094.49,0.045812,398760,358839
1098.14,0.045425,400987,361165
1101.79,0.044843,403477,363895
1105.43,0.045149,406116,366017
1109.06,0.044893,407701,367662
1112.7,0.044322,409859,370094
1117.53,0.044386,412494,372419
1121.15,0.045568,414909,373581
1124.77,0.045763,416559,374898
1128.38,0.047157,418532,375467
1131.99,0.048412,419956,375657
1135.6,0.050632,421946,375513
1139.2,0.051869,423881,376162
1143.99,0.054554,426786,376406
1147.58,0.055379,428617,377303
1151.17,0.056192,431169,378840
1154.75,0.058076,433579,379308
1158.33,0.059318,436264,380567
1161.91,0.062040,439132,380676
1165.48,0.064216,442389,381582
1169.04,0.066702,446101,382588
1173.79,0.071091,451929,383689
1177.34,0.072887,456026,385569
1180.9,0.075229,461306,387936
1184.44,0.077391,467657,391324
1187.99,0.078276,473969,395798
1191.52,0.077846,479856,401111
1195.06,0.077267,487372,407937
1199.76,0.076673,497347,416856
1203.29,0.075707,504311,423635
1206.81,0.074753,511507,430624
1210.33,0.073989,519078,437768
1213.84,0.073270,527163,445323
1217.35,0.072783,534208,451780
1220.85,0.071744,540472,458173
1225.51,0.070149,549929,467905
1229.01,0.070041,556888,473944
1232.5,0.069103,562180,479482
1235.98,0.069020,567975,484517
1239.46,0.068042,574815,491458
1242.94,0.066440,582782,500111
1246.41,0.066398,591476,507621
1251.03,0.066033,604016,518819
1254.5,0.066091,612289,525854
1257.96,0.066900,619125,530736
1261.41,0.067070,624551,535178
1264.86,0.067897,629900,538734
1268.31,0.068376,634345,541938
1271.75,0.069647,638574,543956
1276.33,0.069363,642499,547658
1279.76,0.069648,645905,550200
1283.19,0.069176,648307,552847
1286.61,0.068608,650446,555396
1290.03,0.068113,652132,557471
1293.44,0.067531,653907,559738
1296.85,0.067284,655963,561818
1301.39,0.066978,657349,563401
1304.8,0.067080,657558,563448
1308.19,0.067247,658515,564051
1311.58,0.067462,658804,564020
1314.97,0.068331,659011,563069
1318.36,0.068890,658272,561714
1321.73,0.068656,658022,561804
1326.23,0.070025,657870,559906
1329.6,0.070610,656482,557972
1332.97,0.071982,654926,554894
1336.33,0.072882,653727,552732
1339.69,0.074624,652497,549483
1343.04,0.076305,649913,545193
1346.39,0.078642,647671,540396
1349.73,0.080700,645338,535904
1354.18,0.083876,641175,528568
1357.52,0.085980,638376,523717
1360.85,0.088357,635805,518761
1364.17,0.090781,633413,513932
1367.49,0.093176,631026,509180
1370.81,0.095923,628050,503583
1374.12,0.097946,625034,498836
1378.54,0.101189,620272,491352
1381.84,0.104603,616892,484849
1385.14,0.108198,613613,478296
1388.43,0.113010,611526,471417
1391.72,0.117231,610663,466198
1395.01,0.122397,610634,460664
1398.29,0.127556,611700,456019
1402.66,0.134866,614051,450131
1405.93,0.140526,616268,445906
1409.2,0.145925,617795,441489
1412.46,0.150816,618872,437305
1415.72,0.155561,619795,433199
1418.98,0.159636,620495,429638
1422.23,0.163649,621087,426092
1426.56,0.167446,621375,422579
1429.8,0.170297,621616,419977
1433.04,0.173285,622129,417441
1436.27,0.175663,621526,414759
1439.5,0.177409,621113,412821
1442.72,0.180103,620921,410141
1445.94,0.182615,620270,407348
1450.23,0.186431,618860,402867
1453.44,0.189482,617697,399295
1456.64,0.192495,616264,395614
1459.85,0.194972,614413,392183
1463.04,0.198300,612307,387855
1466.24,0.201712,610032,383390
1469.43,0.204879,607345,378928
1473.67,0.211525,603789,370988
1476.85,0.216753,601175,364962
1480.02,0.223356,597737,357400
1483.19,0.229550,594479,350418
1486.36,0.236250,591232,343169
1489.52,0.241241,587853,337309
1492.68,0.245052,583875,332099
1496.89,0.247448,578062,326984
1500.03,0.248136,574159,324262
1503.18,0.248243,570285,321995
1506.32,0.247726,565444,319642
1509.45,0.246314,560571,317919
1512.58,0.244645,555821,316439
1515.71,0.242307,550344,315012
1519.87,0.238703,543983,313966
1522.99,0.235789,538764,313047
1526.1,0.233710,533692,311588
1529.21,0.229835,527902,310970
1532.32,0.227501,521886,309083
1535.42,0.224003,515888,308001
1538.51,0.221682,509987,306110
1541.6,0.218191,503936,304919
1545.72,0.212726,494694,303117
1548.8,0.210477,488378,300801
1551.88,0.207177,481832,299033
1554.95,0.204889,474989,296343
1558.02,0.203438,467818,292846
1561.08,0.202639,460730,288940
1564.15,0.201474,454170,285591
1568.22,0.200265,444181,280088
1571.27,0.199989,436947,275702
1574.32,0.198880,429598,271758
1577.36,0.197339,422039,267925
1580.4,0.196239,414375,263727
1583.43,0.194677,406354,259554
1586.46,0.192580,398475,255753
1590.49,0.190706,388982,250740
1593.51,0.188409,380708,246708
1596.53,0.186094,372727,242827
1599.54,0.183712,365060,239140
1602.55,0.181793,357543,235253
1605.55,0.178590,349495,231660
1608.55,0.177417,341154,226743
1612.54,0.174056,330877,221621
1615.53,0.172028,322904,217293
1618.51,0.171582,315116,212270
1621.49,0.170641,307217,207398
1624.47,0.169743,299481,202594
1627.44,0.168507,292112,198172
1630.41,0.166012,284245,193946
1634.36,0.164201,274079,187791
1637.32,0.165243,266916,182445
1640.27,0.164664,259612,177689
1643.22,0.163873,251804,172659
1646.16,0.162361,244348,168131
1649.1,0.161806,236703,163079
1652.04,0.158796,228171,158294
1655.95,0.156731,215408,150152
1658.88,0.154342,204937,143641
1661.8,0.150226,193395,136842
1664.72,0.143158,179728,129258
1667.63,0.132638,163642,120575
1670.54,0.120411,146312,110884
1673.44,0.108833,128451,99978
1677.31,0.093426,105080,84741
1680.21,0.082526,88906,73520
1683.1,0.080959,75033,62272
1685.99,0.084567,63520,52281
1688.87,0.087593,53714,43903
1691.75,0.095953,45653,36603
1694.62,0.099757,39137,31105
1697.49,0.105412,33776,26497
1701.31,0.106436,28175,22051

File: Column 1_050567_20150331_120804.csv
Method:,Column 1,,
Host Date-Time:,31/3/15 @ 12:8:4,,
Header Version:,1,,
System Temp (C):,34,,
Detector Temp (C):,33.94,,
Humidity (%):,1.86,,
Lamp PD:,3819,,
Shift Vector Coefficients:,-10.5391,0.0761263,-0.000134223,,
Pixel to Wavelength Coefficients:,1775.68,-0.916766,-0.000235065,,
Serial Number:,5510004,,
Scan Config Name:,Column 1,,
Scan Config Type:,Slew,,
Section 1,,
Start wavelength (nm):,900,,
End wavelength (nm):,1700,,
Pattern Pixel Width (nm):,   7.03,,,,
Exposure (ms):,  0.635,,,,
Digital Resolution:,228,,
Num Repeats:,6,,
PGA Gain:,64,,
Total Measurement Time in sec:,  2.672,,
Wavelength (nm),Absorbance (AU),Reference Signal (unitless),Sample Signal (unitless)
901.51,0.034879,108485,100113
905.376,0.041216,121306,110323
909.237,0.042307,131909,119665
913.095,0.044255,143299,129416
916.948,0.044027,156982,141848
922.079,0.046427,179937,161694
925.923,0.048262,200504,179416
929.762,0.049392,222660,198724
933.597,0.047971,244426,218865
937.427,0.048558,263972,236048
941.254,0.047849,281845,252442
945.076,0.047322,297271,266582
950.165,0.047071,315605,283187
953.978,0.046283,328029,294869
957.786,0.046203,340470,306109
961.59,0.046530,352317,316522
965.389,0.047127,363056,325722
969.185,0.047336,373162,334627
972.976,0.047728,382632,342810
976.763,0.048210,391202,350099
981.806,0.047766,400190,358509
985.583,0.049637,406088,362229
989.355,0.049477,410162,365998
993.124,0.050405,412868,367626
996.888,0.051153,414263,368233
1000.65,0.051160,415476,369306
1004.4,0.052616,415479,368072
1009.41,0.054359,414358,365609
1013.15,0.054561,412923,364173
1016.89,0.055010,411526,362566
1020.63,0.054957,409066,360443
1024.36,0.055470,406777,358003
1028.09,0.054856,404427,356438
1031.82,0.054434,401911,354565
1036.78,0.053986,398410,351839
1040.49,0.054027,396204,349858
1044.2,0.053871,394236,348245
1047.91,0.053200,392042,346843
1051.61,0.052432,389823,345490
1055.31,0.051237,388234,345030
1059,0.051356,387599,344371
1063.92,0.050422,386688,344301
1067.61,0.049973,386598,344577
1071.29,0.049362,387377,345758
1074.96,0.049033,388536,347055
1078.63,0.047481,389855,349480
1082.3,0.047560,391215,350635
1085.96,0.046865,393215,352992
1090.84,0.045926,396270,356505
1094.49,0.045845,398760,358812
1098.14,0.045226,400987,361330
1101.79,0.045653,403477,363217
1105.43,0.045014,406116,366131
1109.06,0.044321,407701,368147
1112.7,0.044260,409859,370147
1117.53,0.044837,412494,372032
1121.15,0.045298,414909,373813
1124.77,0.045579,416559,375057
1128.38,0.046973,418532,375626
1131.99,0.048747,419956,375368
1135.6,0.050131,421946,375946
1139.2,0.051851,423881,376178
1143.99,0.054429,426786,376514
1147.58,0.055735,428617,376994
1151.17,0.056349,431169,378703
1154.75,0.058032,433579,379347
1158.33,0.059298,436264,380585
1161.91,0.060994,439132,381594
1165.48,0.063968,442389,381800
1169.04,0.066403,446101,382851
1173.79,0.070516,451929,384197
1177.34,0.072645,456026,385784
1180.9,0.075101,461306,388050
1184.44,0.076566,467657,392068
1187.99,0.077846,473969,396190
1191.52,0.077522,479856,401411
1195.06,0.077077,487372,408116
1199.76,0.076122,497347,417386
1203.29,0.075682,504311,423659
1206.81,0.075071,511507,430309
1210.33,0.073834,519078,437924
1213.84,0.072995,527163,445605
1217.35,0.072332,534208,452250
1220.85,0.071673,540472,458248
1225.51,0.070743,549929,467265
1229.01,0.070083,556888,473898
1232.5,0.069414,562180,479139
1235.98,0.068351,567975,485264
1239.46,0.067699,574815,491846
1242.94,0.066554,582782,499979
1246.41,0.066241,591476,507804
1251.03,0.065850,604016,519037
1254.5,0.066000,612289,525964
1257.96,0.065962,619125,531883
1261.41,0.066853,624551,535445
1264.86,0.067361,629900,539400
1268.31,0.068699,634345,541535
1271.75,0.069303,638574,544388
1276.33,0.069665,642499,547277
1279.76,0.069320,645905,550616
1283.19,0.068836,648307,553280
1286.61,0.068599,650446,555408
1290.03,0.068060,652132,557539
1293.44,0.067514,653907,559760
1296.85,0.067431,655963,561627
1301.39,0.066995,657349,563380
1304.8,0.067001,657558,563551
1308.19,0.067586,658515,563611
1311.58,0.067586,658804,563859
1314.97,0.067900,659011,563628
1318.36,0.068238,658272,562558
1321.73,0.069248,658022,561038
1326.23,0.069855,657870,560125
1329.6,0.070606,656482,557978
1332.97,0.071491,654926,555522
1336.33,0.072837,653727,552789
1339.69,0.074663,652497,549434
1343.04,0.076849,649913,544510
1346.39,0.078668,647671,540364
1349.73,0.080516,645338,536131
1354.18,0.083661,641175,528829
1357.52,0.086242,638376,523401
1360.85,0.088465,635805,518631
1364.17,0.090524,633413,514237
1367.49,0.092885,631026,509521
1370.81,0.095527,628050,504043
1374.12,0.097698,625034,499121
1378.54,0.101047,620272,491513
1381.84,0.104448,616892,485022
1385.14,0.108115,613613,478387
1388.43,0.112699,611526,471754
1391.72,0.117433,610663,465981
1395.01,0.122257,610634,460812
1398.29,0.127242,611700,456348
1402.66,0.134686,614051,450317
1405.93,0.140956,616268,445465
1409.2,0.145388,617795,442035
1412.46,0.150860,618872,437261
1415.72,0.155288,619795,433471
1418.98,0.159325,620495,429945
1422.23,0.162914,621087,426814
1426.56,0.167487,621375,422539
1429.8,0.170313,621616,419961
1433.04,0.172276,622129,418412
1436.27,0.175253,621526,415151
1439.5,0.177714,621113,412531
1442.72,0.180380,620921,409880
1445.94,0.182425,620270,407526
1450.23,0.186445,618860,402854
1453.44,0.189373,617697,399395
1456.64,0.192119,616264,395957
1459.85,0.195286,614413,391899
1463.04,0.198052,612307,388076
1466.24,0.201080,610032,383948
1469.43,0.204954,607345,378862
1473.67,0.211186,603789,371278
1476.85,0.216907,601175,364833
1480.02,0.223070,597737,357635
1483.19,0.229715,594479,350285
1486.36,0.235748,591232,343566
1489.52,0.241192,587853,337347
1492.68,0.244776,583875,332310
1496.89,0.247403,578062,327018
1500.03,0.248426,574159,324046
1503.18,0.247888,570285,322258
1506.32,0.247389,565444,319890
1509.45,0.246305,560571,317926
1512.58,0.244630,555821,316450
1515.71,0.241715,550344,315442
1519.87,0.238321,543983,314242
1522.99,0.235459,538764,313285
1526.1,0.232804,533692,312239
1529.21,0.230507,527902,310489
1532.32,0.226856,521886,309542
1535.42,0.223896,515888,308077
1538.51,0.220916,509987,306650
1541.6,0.217346,503936,305513
1545.72,0.213346,494694,302685
1548.8,0.210145,488378,301031
1551.88,0.207810,481832,298597
1554.95,0.204980,474989,296281
1558.02,0.203556,467818,292766
1561.08,0.202676,460730,288915
1564.15,0.201746,454170,285412
1568.22,0.199784,444181,280399
1571.27,0.199768,436947,275842
1574.32,0.198436,429598,272036
1577.36,0.196777,422039,268272
1580.4,0.195888,414375,263940
1583.43,0.194678,406354,259553
1586.46,0.191819,398475,256202
1590.49,0.190403,388982,250915
1593.51,0.187920,380708,246986
1596.53,0.185470,372727,243176
1599.54,0.183570,365060,239218
1602.55,0.181430,357543,235450
1605.55,0.179339,349495,231261
1608.55,0.176990,341154,226966
1612.54,0.175347,330877,220963
1615.53,0.173359,322904,216628
1618.51,0.171367,315116,212375
1621.49,0.170069,307217,207671
1624.47,0.169419,299481,202745
1627.44,0.167859,292112,198468
1630.41,0.167079,284245,193470
1634.36,0.165758,274079,187119
1637.32,0.164168,266916,182897
1640.27,0.164188,259612,177884
1643.22,0.162868,251804,173059
1646.16,0.162643,244348,168022
1649.1,0.161170,236703,163318
1652.04,0.158642,228171,158350
1655.95,0.157501,215408,149886
1658.88,0.154529,204937,143579
1661.8,0.149674,193395,137016
1664.72,0.142088,179728,129577
1667.63,0.132609,163642,120583
1670.54,0.119871,146312,111022
1673.44,0.107870,128451,100200
1677.31,0.091585,105080,85101
1680.21,0.085032,88906,73097
1683.1,0.078581,75033,62614
1685.99,0.080985,63520,52714
1688.87,0.085570,53714,44108
1691.75,0.088845,45653,37207
1694.62,0.098725,39137,31179
1697.49,0.104037,33776,26581
1701.31,0.102046,28175,22275