Folder: textile_sorting_NIRSCAN_/samples/wool/wool-000811 (part 33)

File: Column 1_050549_20150331_115914.csv
Method:,Column 1,,
Host Date-Time:,31/3/15 @ 11:59:14,,
Header Version:,1,,
System Temp (C):,33.22,,
Detector Temp (C):,31.99,,
Humidity (%):,2.25,,
Lamp PD:,3823,,
Shift Vector Coefficients:,-10.5391,0.0761263,-0.000134223,,
Pixel to Wavelength Coefficients:,1775.68,-0.916766,-0.000235065,,
Serial Number:,5510004,,
Scan Config Name:,Column 1,,
Scan Config Type:,Slew,,
Section 1,,
Start wavelength (nm):,900,,
End wavelength (nm):,1700,,
Pattern Pixel Width (nm):,   7.03,,,,
Exposure (ms):,  0.635,,,,
Digital Resolution:,228,,
Num Repeats:,6,,
PGA Gain:,64,,
Total Measurement Time in sec:,  2.673,,
Wavelength (nm),Absorbance (AU),Reference Signal (unitless),Sample Signal (unitless)
901.51,0.046757,108485,97412
905.376,0.052635,121306,107460
909.237,0.054351,131909,116392
913.095,0.054823,143299,126305
916.948,0.054883,156982,138346
922.079,0.055601,179937,158314
925.923,0.056867,200504,175896
929.762,0.057167,222660,195198
933.597,0.057933,244426,213902
937.427,0.057134,263972,231432
941.254,0.057744,281845,246755
945.076,0.057598,297271,260348
950.165,0.056401,315605,277168
953.978,0.055756,328029,288507
957.786,0.056658,340470,298828
961.59,0.056839,352317,309097
965.389,0.057200,363056,318254
969.185,0.057319,373162,327023
972.976,0.057482,382632,335196
976.763,0.058054,391202,342253
981.806,0.058892,400190,349441
985.583,0.059698,406088,353934
989.355,0.060084,410162,357167
993.124,0.060390,412868,359270
996.888,0.061069,414263,359921
1000.65,0.062421,415476,359853
1004.4,0.063174,415479,359232
1009.41,0.064218,414358,357403
1013.15,0.064904,412923,355603
1016.89,0.065894,411526,353593
1020.63,0.065200,409066,352041
1024.36,0.065195,406777,350075
1028.09,0.065330,404427,347945
1031.82,0.064400,401911,346521
1036.78,0.063699,398410,344058
1040.49,0.063402,396204,342387
1044.2,0.063295,394236,340770
1047.91,0.061949,392042,339925
1051.61,0.061657,389823,338229
1055.31,0.061108,388234,337276
1059,0.060154,387599,337465
1063.92,0.059075,386688,337509
1067.61,0.058132,386598,338164
1071.29,0.057797,387377,339107
1074.96,0.056770,388536,340927
1078.63,0.055551,389855,343046
1082.3,0.055020,391215,344664
1085.96,0.054013,393215,347230
1090.84,0.053638,396270,350230
1094.49,0.053135,398760,352839
1098.14,0.053519,400987,354496
1101.79,0.052380,403477,357634
1105.43,0.052573,406116,359813
1109.06,0.051974,407701,361716
1112.7,0.051915,409859,363680
1117.53,0.052045,412494,365909
1121.15,0.052445,414909,367712
1124.77,0.053305,416559,368444
1128.38,0.054224,418532,369407
1131.99,0.055842,419956,369285
1135.6,0.058095,421946,369115
1139.2,0.060607,423881,368669
1143.99,0.063519,426786,368715
1147.58,0.064202,428617,369715
1151.17,0.064686,431169,371502
1154.75,0.067206,433579,371417
1158.33,0.069051,436264,372133
1161.91,0.071577,439132,372407
1165.48,0.073687,442389,373351
1169.04,0.077241,446101,373415
1173.79,0.081341,451929,374739
1177.34,0.083798,456026,376003
1180.9,0.087066,461306,377505
1184.44,0.088423,467657,381509
1187.99,0.089257,473969,385916
1191.52,0.088163,479856,391695
1195.06,0.088505,487372,397517
1199.76,0.086543,497347,407490
1203.29,0.085341,504311,414341
1206.81,0.084348,511507,421215
1210.33,0.083665,519078,428122
1213.84,0.082319,527163,436140
1217.35,0.081388,534208,442917
1220.85,0.079987,540472,449558
1225.51,0.078286,549929,459220
1229.01,0.077576,556888,465792
1232.5,0.077107,562180,470726
1235.98,0.076163,567975,476613
1239.46,0.075036,574815,483606
1242.94,0.073866,582782,491632
1246.41,0.073092,591476,499856
1251.03,0.072609,604016,511022
1254.5,0.072703,612289,517909
1257.96,0.073103,619125,523209
1261.41,0.073860,624551,526875
1264.86,0.074463,629900,530651
1268.31,0.074678,634345,534131
1271.75,0.075860,638574,536230
1276.33,0.076145,642499,539172
1279.76,0.075906,645905,542329
1283.19,0.075191,648307,545243
1286.61,0.074786,650446,547552
1290.03,0.074839,652132,548904
1293.44,0.073897,653907,551593
1296.85,0.073828,655963,553416
1301.39,0.073247,657349,555327
1304.8,0.072998,657558,555822
1308.19,0.073572,658515,555896
1311.58,0.073960,658804,555644
1314.97,0.074225,659011,555479
1318.36,0.074706,658272,554242
1321.73,0.075421,658022,553120
1326.23,0.076427,657870,551713
1329.6,0.077628,656482,549028
1332.97,0.078372,654926,546789
1336.33,0.079628,653727,544212
1339.69,0.081344,652497,541047
1343.04,0.083564,649913,536156
1346.39,0.085845,647671,531507
1349.73,0.088292,645338,526617
1354.18,0.091895,641175,518898
1357.52,0.094311,638376,513766
1360.85,0.096767,635805,508812
1364.17,0.099356,633413,503884
1367.49,0.102039,631026,498894
1370.81,0.104411,628050,493837
1374.12,0.107297,625034,488210
1378.54,0.111171,620272,480188
1381.84,0.114894,616892,473495
1385.14,0.119145,613613,466390
1388.43,0.124182,611526,459444
1391.72,0.129841,610663,452856
1395.01,0.135686,610634,446781
1398.29,0.141657,611700,441450
1402.66,0.149477,614051,435239
1405.93,0.155736,616268,430560
1409.2,0.161630,617795,425809
1412.46,0.167534,618872,420791
1415.72,0.172306,619795,416814
1418.98,0.177128,620495,412677
1422.23,0.181079,621087,409330
1426.56,0.185885,621375,405013
1429.8,0.188591,621616,402653
1433.04,0.191515,622129,400281
1436.27,0.194275,621526,397360
1439.5,0.196232,621113,395311
1442.72,0.198751,620921,392903
1445.94,0.200998,620270,390466
1450.23,0.204903,618860,386091
1453.44,0.208205,617697,382446
1456.64,0.211293,616264,378856
1459.85,0.213657,614413,375667
1463.04,0.216568,612307,371879
1466.24,0.220082,610032,367511
1469.43,0.223325,607345,363170
1473.67,0.228985,603789,356369
1476.85,0.234359,601175,350463
1480.02,0.239832,597737,344095
1483.19,0.246775,594479,336792
1486.36,0.253559,591232,329761
1489.52,0.258834,587853,323918
1492.68,0.262712,583875,318866
1496.89,0.264727,578062,314230
1500.03,0.265762,574159,311365
1503.18,0.266780,570285,308540
1506.32,0.265749,565444,306648
1509.45,0.263962,560571,305259
1512.58,0.263227,555821,303185
1515.71,0.260558,550344,302048
1519.87,0.257476,543983,300683
1522.99,0.255203,538764,299361
1526.1,0.253076,533692,297999
1529.21,0.249304,527902,297337
1532.32,0.245903,521886,296260
1535.42,0.243052,515888,294784
1538.51,0.239473,509987,293823
1541.6,0.235604,503936,292935
1545.72,0.231371,494694,290379
1548.8,0.227812,488378,289031
1551.88,0.225030,481832,286989
1554.95,0.222192,474989,284768
1558.02,0.221279,467818,281059
1561.08,0.219547,460730,277907
1564.15,0.217927,454170,274974
1568.22,0.217264,444181,269337
1571.27,0.217562,436947,264769
1574.32,0.215966,429598,261274
1577.36,0.214119,422039,257771
1580.4,0.213506,414375,253447
1583.43,0.210930,406354,250020
1586.46,0.208473,398475,246563
1590.49,0.205408,388982,242394
1593.51,0.204066,380708,237972
1596.53,0.201154,372727,234551
1599.54,0.200297,365060,230180
1602.55,0.197056,357543,227129
1605.55,0.195787,349495,222666
1608.55,0.192049,341154,219231
1612.54,0.189886,330877,213688
1615.53,0.186203,322904,210315
1618.51,0.186208,315116,205240
1621.49,0.184554,307217,200859
1624.47,0.183263,299481,196384
1627.44,0.180959,292112,192571
1630.41,0.180641,284245,187522
1634.36,0.178829,274079,181571
1637.32,0.178095,266916,177125
1640.27,0.178168,259612,172249
1643.22,0.176126,251804,167856
1646.16,0.173700,244348,163798
1649.1,0.173427,236703,158773
1652.04,0.172647,228171,153325
1655.95,0.169606,215408,145766
1658.88,0.167906,204937,139224
1661.8,0.164397,193395,132449
1664.72,0.159548,179728,124471
1667.63,0.152967,163642,115061
1670.54,0.145213,146312,104729
1673.44,0.137684,128451,93552
1677.31,0.128274,105080,78207
1680.21,0.122021,88906,67129
1683.1,0.119690,75033,56959
1685.99,0.130933,63520,46987
1688.87,0.137178,53714,39166
1691.75,0.140600,45653,33027
1694.62,0.149998,39137,27707
1697.49,0.142520,33776,24327
1701.31,0.151579,28175,19874

File: Column 1_050549_20150331_115917.csv
Method:,Column 1,,
Host Date-Time:,31/3/15 @ 11:59:17,,
Header Version:,1,,
System Temp (C):,33.21,,
Detector Temp (C):,31.99,,
Humidity (%):,2.25,,
Lamp PD:,3822,,
Shift Vector Coefficients:,-10.5391,0.0761263,-0.000134223,,
Pixel to Wavelength Coefficients:,1775.68,-0.916766,-0.000235065,,
Serial Number:,5510004,,
Scan Config Name:,Column 1,,
Scan Config Type:,Slew,,
Section 1,,
Start wavelength (nm):,900,,
End wavelength (nm):,1700,,
Pattern Pixel Width (nm):,   7.03,,,,
Exposure (ms):,  0.635,,,,
Digital Resolution:,228,,
Num Repeats:,6,,
PGA Gain:,64,,
Total Measurement Time in sec:,  2.723,,
Wavelength (nm),Absorbance (AU),Reference Signal (unitless),Sample Signal (unitless)
901.51,0.044742,108485,97865
905.376,0.051634,121306,107708
909.237,0.053051,131909,116741
913.095,0.054390,143299,126431
916.948,0.054350,156982,138516
922.079,0.054960,179937,158548
925.923,0.055447,200504,176472
929.762,0.056731,222660,195394
933.597,0.056368,244426,214674
937.427,0.056551,263972,231743
941.254,0.056254,281845,247603
945.076,0.055578,297271,261562
950.165,0.056069,315605,277380
953.978,0.055120,328029,288930
957.786,0.055409,340470,299688
961.59,0.055683,352317,309921
965.389,0.056435,363056,318815
969.185,0.056161,373162,327896
972.976,0.056870,382632,335669
976.763,0.057808,391202,342447
981.806,0.058000,400190,350160
985.583,0.058161,406088,355189
989.355,0.059303,410162,357810
993.124,0.059803,412868,359756
996.888,0.059810,414263,360966
1000.65,0.061330,415476,360758
1004.4,0.062236,415479,360009
1009.41,0.063530,414358,357969
1013.15,0.064015,412923,356331
1016.89,0.064929,411526,354379
1020.63,0.063653,409066,353297
1024.36,0.064526,406777,350615
1028.09,0.064022,404427,348994
1031.82,0.063720,401911,347064
1036.78,0.062805,398410,344767
1040.49,0.062312,396204,343247
1044.2,0.061992,394236,341794
1047.91,0.060857,392042,340781
1051.61,0.060827,389823,338876
1055.31,0.060507,388234,337743
1059,0.059228,387599,338185
1063.92,0.058167,386688,338216
1067.61,0.057137,386598,338940
1071.29,0.056458,387377,340154
1074.96,0.055777,388536,341707
1078.63,0.054909,389855,343553
1082.3,0.054415,391215,345144
1085.96,0.053448,393215,347682
1090.84,0.052428,396270,351207
1094.49,0.052069,398760,353706
1098.14,0.052044,400987,355702
1101.79,0.051834,403477,358084
1105.43,0.051999,406116,360289
1109.06,0.051228,407701,362338
1112.7,0.051037,409859,364416
1117.53,0.051033,412494,366762
1121.15,0.052000,414909,368089
1124.77,0.052053,416559,369508
1128.38,0.053506,418532,370018
1131.99,0.055618,419956,369476
1135.6,0.057364,421946,369737
1139.2,0.058886,423881,370133
1143.99,0.061604,426786,370345
1147.58,0.062736,428617,370965
1151.17,0.064260,431169,371867
1154.75,0.066203,433579,372276
1158.33,0.067774,436264,373229
1161.91,0.070395,439132,373422
1165.48,0.073475,442389,373533
1169.04,0.076093,446101,374404
1173.79,0.080066,451929,375841
1177.34,0.083168,456026,376549
1180.9,0.085836,461306,378576
1184.44,0.087363,467657,382441
1187.99,0.088649,473969,386457
1191.52,0.088171,479856,391688
1195.06,0.087614,487372,398333
1199.76,0.086274,497347,407742
1203.29,0.085122,504311,414550
1206.81,0.083400,511507,422135
1210.33,0.082344,519078,429426
1213.84,0.081829,527163,436632
1217.35,0.079866,534208,444472
1220.85,0.079252,540472,450320
1225.51,0.077260,549929,460306
1229.01,0.077096,556888,466307
1232.5,0.075860,562180,472080
1235.98,0.075641,567975,477187
1239.46,0.073941,574815,484827
1242.94,0.073260,582782,492318
1246.41,0.072418,591476,500633
1251.03,0.071732,604016,512055
1254.5,0.071972,612289,518781
1257.96,0.072411,619125,524044
1261.41,0.073055,624551,527853
1264.86,0.073701,629900,531583
1268.31,0.073964,634345,535010
1271.75,0.075071,638574,537205
1276.33,0.074971,642499,540632
1279.76,0.075005,645905,543455
1283.19,0.074280,648307,546387
1286.61,0.074180,650446,548316
1290.03,0.073446,652132,550667
1293.44,0.073070,653907,552645
1296.85,0.073033,655963,554429
1301.39,0.072689,657349,556041
1304.8,0.072583,657558,556354
1308.19,0.072985,658515,556648
1311.58,0.072938,658804,556952
1314.97,0.073644,659011,556223
1318.36,0.074469,658272,554544
1321.73,0.074614,658022,554149
1326.23,0.075587,657870,552781
1329.6,0.076469,656482,550495
1332.97,0.077320,654926,548116
1336.33,0.078940,653727,545075
1339.69,0.080656,652497,541904
1343.04,0.082420,649913,537570
1346.39,0.085019,647671,532520
1349.73,0.087720,645338,527312
1354.18,0.091063,641175,519892
1357.52,0.093369,638376,514882
1360.85,0.095803,635805,509942
1364.17,0.098701,633413,504645
1367.49,0.100790,631026,500331
1370.81,0.103631,628050,494724
1374.12,0.106692,625034,488891
1378.54,0.110152,620272,481316
1381.84,0.114104,616892,474357
1385.14,0.118294,613613,467305
1388.43,0.123426,611526,460245
1391.72,0.128813,610663,453930
1395.01,0.134201,610634,448312
1398.29,0.140313,611700,442818
1402.66,0.148623,614051,436095
1405.93,0.154621,616268,431667
1409.2,0.161114,617795,426315
1412.46,0.166349,618872,421941
1415.72,0.171341,619795,417741
1418.98,0.176139,620495,413618
1422.23,0.179682,621087,410649
1426.56,0.184223,621375,406566
1429.8,0.187380,621616,403778
1433.04,0.190438,622129,401275
1436.27,0.193042,621526,398490
1439.5,0.194913,621113,396513
1442.72,0.197815,620921,393751
1445.94,0.200167,620270,391213
1450.23,0.203973,618860,386918
1453.44,0.206906,617697,383592
1456.64,0.210116,616264,379884
1459.85,0.212813,614413,376398
1463.04,0.215460,612307,372829
1466.24,0.218632,610032,368740
1469.43,0.222493,607345,363867
1473.67,0.227771,603789,357367
1476.85,0.232863,601175,351672
1480.02,0.239105,597737,344671
1483.19,0.245371,594479,337882
1486.36,0.252020,591232,330931
1489.52,0.257196,587853,325142
1492.68,0.261326,583875,319885
1496.89,0.263489,578062,315127
1500.03,0.264855,574159,312016
1503.18,0.265336,570285,309568
1506.32,0.264434,565444,307578
1509.45,0.263689,560571,305451
1512.58,0.262104,555821,303970
1515.71,0.259448,550344,302821
1519.87,0.256589,543983,301298
1522.99,0.253920,538764,300247
1526.1,0.250969,533692,299448
1529.21,0.248011,527902,298224
1532.32,0.244581,521886,297163
1535.42,0.241312,515888,295967
1538.51,0.238007,509987,294817
1541.6,0.234467,503936,293703
1545.72,0.229384,494694,291711
1548.8,0.226175,488378,290122
1551.88,0.223517,481832,287991
1554.95,0.221103,474989,285483
1558.02,0.219388,467818,282286
1561.08,0.218096,460730,278837
1564.15,0.217608,454170,275176
1568.22,0.216129,444181,270042
1571.27,0.215902,436947,265783
1574.32,0.214348,429598,262249
1577.36,0.212974,422039,258451
1580.4,0.212189,414375,254217
1583.43,0.210038,406354,250534
1586.46,0.207736,398475,246982
1590.49,0.205053,388982,242592
1593.51,0.202603,380708,238775
1596.53,0.199966,372727,235193
1599.54,0.197956,365060,231424
1602.55,0.195403,357543,227995
1605.55,0.193494,349495,223845
1608.55,0.191022,341154,219750
1612.54,0.188142,330877,214548
1615.53,0.185578,322904,210618
1618.51,0.184867,315116,205875
1621.49,0.182662,307217,201736
1624.47,0.181833,299481,197032
1627.44,0.180267,292112,192878
1630.41,0.178464,284245,188464
1634.36,0.176473,274079,182559
1637.32,0.176008,266916,177978
1640.27,0.175175,259612,173440
1643.22,0.174079,251804,168649
1646.16,0.173033,244348,164050
1649.1,0.172476,236703,159121
1652.04,0.171838,228171,153611
1655.95,0.168015,215408,146301
1658.88,0.166104,204937,139803
1661.8,0.163640,193395,132680
1664.72,0.158589,179728,124746
1667.63,0.150783,163642,115641
1670.54,0.141925,146312,105525
1673.44,0.135199,128451,94089
1677.31,0.123377,105080,79094
1680.21,0.121782,88906,67166
1683.1,0.117811,75033,57206
1685.99,0.123764,63520,47769
1688.87,0.129191,53714,39893
1691.75,0.134801,45653,33471
1694.62,0.139973,39137,28354
1697.49,0.139017,33776,24524
1701.31,0.139319,28175,20443

File: Column 1_050549_20150331_115928.csv
Method:,Column 1,,
Host Date-Time:,31/3/15 @ 11:59:28,,
Header Version:,1,,
System Temp (C):,33.24,,
Detector Temp (C):,31.99,,
Humidity (%):,2.25,,
Lamp PD:,3823,,
Shift Vector Coefficients:,-10.5391,0.0761263,-0.000134223,,
Pixel to Wavelength Coefficients:,1775.68,-0.916766,-0.000235065,,
Serial Number:,5510004,,
Scan Config Name:,Column 1,,
Scan Config Type:,Slew,,
Section 1,,
Start wavelength (nm):,900,,
End wavelength (nm):,1700,,
Pattern Pixel Width (nm):,   7.03,,,,
Exposure (ms):,  0.635,,,,
Digital Resolution:,228,,
Num Repeats:,6,,
PGA Gain:,64,,
Total Measurement Time in sec:,  2.675,,
Wavelength (nm),Absorbance (AU),Reference Signal (unitless),Sample Signal (unitless)
901.51,0.043652,108485,98111
905.376,0.051243,121306,107805
909.237,0.052486,131909,116893
913.095,0.054293,143299,126459
916.948,0.053579,156982,138762
922.079,0.055491,179937,158354
925.923,0.055115,200504,176607
929.762,0.056393,222660,195546
933.597,0.056617,244426,214551
937.427,0.056186,263972,231938
941.254,0.055672,281845,247935
945.076,0.054959,297271,261935
950.165,0.055251,315605,277903
953.978,0.055046,328029,288979
957.786,0.054800,340470,300109
961.59,0.055833,352317,309814
965.389,0.056216,363056,318976
969.185,0.055787,373162,328179
972.976,0.056158,382632,336220
976.763,0.056663,391202,343351
981.806,0.057565,400190,350511
985.583,0.058419,406088,354978
989.355,0.058126,410162,358781
993.124,0.059155,412868,360293
996.888,0.059799,414263,360975
1000.65,0.060579,415476,361382
1004.4,0.062127,415479,360099
1009.41,0.063096,414358,358327
1013.15,0.063676,412923,356610
1016.89,0.064317,411526,354879
1020.63,0.064032,409066,352989
1024.36,0.063184,406777,351700
1028.09,0.063272,404427,349597
1031.82,0.063224,401911,347461
1036.78,0.062442,398410,345055
1040.49,0.061386,396204,343980
1044.2,0.061611,394236,342094
1047.91,0.060952,392042,340707
1051.61,0.059892,389823,339606
1055.31,0.059269,388234,338707
1059,0.058469,387599,338777
1063.92,0.057226,386688,338949
1067.61,0.056138,386598,339720
1071.29,0.056364,387377,340228
1074.96,0.055514,388536,341914
1078.63,0.055260,389855,343276
1082.3,0.053863,391215,345583
1085.96,0.053208,393215,347874
1090.84,0.052390,396270,351238
1094.49,0.051737,398760,353977
1098.14,0.050944,400987,356604
1101.79,0.051067,403477,358717
1105.43,0.050943,406116,361166
1109.06,0.050748,407701,362739
1112.7,0.049626,409859,365602
1117.53,0.050422,412494,367279
1121.15,0.051439,414909,368565
1124.77,0.052010,416559,369544
1128.38,0.053189,418532,370288
1131.99,0.055395,419956,369665
1135.6,0.056795,421946,370222
1139.2,0.058389,423881,370557
1143.99,0.061797,426786,370180
1147.58,0.062321,428617,371320
1151.17,0.064488,431169,371672
1154.75,0.066045,433579,372412
1158.33,0.067911,436264,373111
1161.91,0.070278,439132,373523
1165.48,0.073235,442389,373740
1169.04,0.075678,446101,374762
1173.79,0.080093,451929,375818
1177.34,0.083313,456026,376423
1180.9,0.085251,461306,379086
1184.44,0.087113,467657,382661
1187.99,0.088638,473969,386467
1191.52,0.087953,479856,391884
1195.06,0.087201,487372,398712
1199.76,0.085580,497347,408394
1203.29,0.084468,504311,415174
1206.81,0.083444,511507,422092
1210.33,0.082121,519078,429647
1213.84,0.081426,527163,437038
1217.35,0.080204,534208,444126
1220.85,0.078758,540472,450832
1225.51,0.077477,549929,460076
1229.01,0.076484,556888,466965
1232.5,0.075663,562180,472294
1235.98,0.075097,567975,477785
1239.46,0.074013,574815,484747
1242.94,0.072465,582782,493221
1246.41,0.071849,591476,501289
1251.03,0.071192,604016,512692
1254.5,0.071796,612289,518992
1257.96,0.072063,619125,524464
1261.41,0.072626,624551,528375
1264.86,0.073202,629900,532194
1268.31,0.073770,634345,535248
1271.75,0.074548,638574,537853
1276.33,0.074833,642499,540804
1279.76,0.075007,645905,543452
1283.19,0.073874,648307,546898
1286.61,0.073754,650446,548854
1290.03,0.073156,652132,551035
1293.44,0.072929,653907,552824
1296.85,0.072546,655963,555052
1301.39,0.072288,657349,556555
1304.8,0.072376,657558,556619
1308.19,0.072737,658515,556966
1311.58,0.072448,658804,557581
1314.97,0.073193,659011,556800
1318.36,0.073701,658272,555526
1321.73,0.074073,658022,554839
1326.23,0.075138,657870,553353
1329.6,0.076125,656482,550932
1332.97,0.077537,654926,547842
1336.33,0.078567,653727,545543
1339.69,0.080395,652497,542230
1343.04,0.082030,649913,538053
1346.39,0.084535,647671,533113
1349.73,0.087164,645338,527987
1354.18,0.090692,641175,520337
1357.52,0.092789,638376,515570
1360.85,0.095755,635805,509999
1364.17,0.097982,633413,505481
1367.49,0.100588,631026,500564
1370.81,0.103545,628050,494822
1374.12,0.105913,625034,489768
1378.54,0.109689,620272,481829
1381.84,0.113708,616892,474789
1385.14,0.118433,613613,467156
1388.43,0.122997,611526,460700
1391.72,0.129067,610663,453664
1395.01,0.134109,610634,448407
1398.29,0.139622,611700,443523
1402.66,0.147996,614051,436725
1405.93,0.154725,616268,431563
1409.2,0.160540,617795,426879
1412.46,0.165863,618872,422414
1415.72,0.171173,619795,417903
1418.98,0.175640,620495,414093
1422.23,0.179495,621087,410826
1426.56,0.184324,621375,406471
1429.8,0.186909,621616,404216
1433.04,0.189672,622129,401984
1436.27,0.192484,621526,399002
1439.5,0.193958,621113,397386
1442.72,0.197095,620921,394404
1445.94,0.199985,620270,391377
1450.23,0.203677,618860,387182
1453.44,0.206387,617697,384051
1456.64,0.209640,616264,380300
1459.85,0.212083,614413,377031
1463.04,0.214676,612307,373502
1466.24,0.218581,610032,368784
1469.43,0.221519,607345,364684
1473.67,0.226781,603789,358182
1476.85,0.232055,601175,352327
1480.02,0.238758,597737,344947
1483.19,0.245044,594479,338137
1486.36,0.251206,591232,331552
1489.52,0.256626,587853,325569
1492.68,0.260385,583875,320579
1496.89,0.264119,578062,314670
1500.03,0.264584,574159,312211
1503.18,0.265462,570285,309478
1506.32,0.264105,565444,307811
1509.45,0.263503,560571,305582
1512.58,0.262140,555821,303945
1515.71,0.259232,550344,302972
1519.87,0.255914,543983,301767
1522.99,0.252952,538764,300917
1526.1,0.250974,533692,299445
1529.21,0.247737,527902,298412
1532.32,0.244099,521886,297493
1535.42,0.241283,515888,295987
1538.51,0.237583,509987,295105
1541.6,0.234825,503936,293461
1545.72,0.229000,494694,291969
1548.8,0.225821,488378,290359
1551.88,0.223357,481832,288097
1554.95,0.220880,474989,285630
1558.02,0.219506,467818,282209
1561.08,0.217357,460730,279312
1564.15,0.217108,454170,275493
1568.22,0.215764,444181,270269
1571.27,0.215790,436947,265851
1574.32,0.214900,429598,261916
1577.36,0.213092,422039,258381
1580.4,0.211636,414375,254541
1583.43,0.209362,406354,250924
1586.46,0.206884,398475,247467
1590.49,0.205187,388982,242517
1593.51,0.202592,380708,238781
1596.53,0.200645,372727,234826
1599.54,0.198020,365060,231390
1602.55,0.194872,357543,228274
1605.55,0.192525,349495,224345
1608.55,0.189979,341154,220278
1612.54,0.188292,330877,214474
1615.53,0.184882,322904,210956
1618.51,0.184083,315116,206247
1621.49,0.182780,307217,201681
1624.47,0.181412,299481,197223
1627.44,0.179994,292112,192999
1630.41,0.177783,284245,188760
1634.36,0.176699,274079,182464
1637.32,0.176514,266916,177771
1640.27,0.174135,259612,173856
1643.22,0.173461,251804,168889
1646.16,0.173117,244348,164018
1649.1,0.171835,236703,159356
1652.04,0.171033,228171,153896
1655.95,0.168751,215408,146053
1658.88,0.164671,204937,140265
1661.8,0.163493,193395,132725
1664.72,0.159405,179728,124512
1667.63,0.151448,163642,115464
1670.54,0.142625,146312,105355
1673.44,0.132938,128451,94580
1677.31,0.125452,105080,78717
1680.21,0.123408,88906,66915
1683.1,0.118457,75033,57121
1685.99,0.124192,63520,47722
1688.87,0.129518,53714,39863
1691.75,0.137678,45653,33250
1694.62,0.137468,39137,28518
1697.49,0.139761,33776,24482
1701.31,0.154913,28175,19722