Folder: textile_sorting_NIRSCAN_/samples/wool/wool-000811 (part 64)

File: Column 1_050565_20150331_120704.csv
Method:,Column 1,,
Host Date-Time:,31/3/15 @ 12:7:4,,
Header Version:,1,,
System Temp (C):,33.9,,
Detector Temp (C):,33.73,,
Humidity (%):,1.86,,
Lamp PD:,3819,,
Shift Vector Coefficients:,-10.5391,0.0761263,-0.000134223,,
Pixel to Wavelength Coefficients:,1775.68,-0.916766,-0.000235065,,
Serial Number:,5510004,,
Scan Config Name:,Column 1,,
Scan Config Type:,Slew,,
Section 1,,
Start wavelength (nm):,900,,
End wavelength (nm):,1700,,
Pattern Pixel Width (nm):,   7.03,,,,
Exposure (ms):,  0.635,,,,
Digital Resolution:,228,,
Num Repeats:,6,,
PGA Gain:,64,,
Total Measurement Time in sec:,  2.692,,
Wavelength (nm),Absorbance (AU),Reference Signal (unitless),Sample Signal (unitless)
901.51,0.033096,108485,100525
905.376,0.039723,121306,110703
909.237,0.041303,131909,119942
913.095,0.043913,143299,129518
916.948,0.044036,156982,141845
922.079,0.045418,179937,162070
925.923,0.047263,200504,179829
929.762,0.047586,222660,199552
933.597,0.047771,244426,218966
937.427,0.047026,263972,236882
941.254,0.046948,281845,252966
945.076,0.046513,297271,267079
950.165,0.046366,315605,283647
953.978,0.045464,328029,295426
957.786,0.045450,340470,306640
961.59,0.046048,352317,316873
965.389,0.046460,363056,326222
969.185,0.046466,373162,335298
972.976,0.046306,382632,343934
976.763,0.047708,391202,350504
981.806,0.048035,400190,358287
985.583,0.048663,406088,363042
989.355,0.049030,410162,366375
993.124,0.049605,412868,368304
996.888,0.049922,414263,369279
1000.65,0.050815,415476,369599
1004.4,0.052260,415479,368374
1009.41,0.053764,414358,366110
1013.15,0.054249,412923,364435
1016.89,0.054910,411526,362650
1020.63,0.054746,409066,360618
1024.36,0.054146,406777,359096
1028.09,0.053660,404427,357421
1031.82,0.053810,401911,355075
1036.78,0.053346,398410,352358
1040.49,0.052946,396204,350730
1044.2,0.052968,394236,348970
1047.91,0.052542,392042,347369
1051.61,0.051405,389823,346308
1055.31,0.051393,388234,344906
1059,0.051047,387599,344616
1063.92,0.049563,386688,344983
1067.61,0.049211,386598,345182
1071.29,0.048390,387377,346532
1074.96,0.047791,388536,348049
1078.63,0.047579,389855,349401
1082.3,0.046632,391215,351385
1085.96,0.046012,393215,353686
1090.84,0.045453,396270,356893
1094.49,0.045048,398760,359471
1098.14,0.044802,400987,361683
1101.79,0.044984,403477,363777
1105.43,0.044350,406116,366691
1109.06,0.043523,407701,368824
1112.7,0.043663,409859,370656
1117.53,0.043860,412494,372870
1121.15,0.044643,414909,374378
1124.77,0.045046,416559,375518
1128.38,0.045991,418532,376476
1131.99,0.047556,419956,376398
1135.6,0.049735,421946,376289
1139.2,0.051283,423881,376670
1143.99,0.054201,426786,376712
1147.58,0.054607,428617,377974
1151.17,0.055899,431169,379095
1154.75,0.056716,433579,380498
1158.33,0.058642,436264,381160
1161.91,0.061224,439132,381392
1165.48,0.063232,442389,382448
1169.04,0.065794,446101,383389
1173.79,0.069382,451929,385202
1177.34,0.072346,456026,386050
1180.9,0.074274,461306,388790
1184.44,0.076790,467657,391866
1187.99,0.077531,473969,396478
1191.52,0.077173,479856,401733
1195.06,0.076897,487372,408285
1199.76,0.075928,497347,417572
1203.29,0.075149,504311,424179
1206.81,0.074269,511507,431105
1210.33,0.073048,519078,438717
1213.84,0.072234,527163,446386
1217.35,0.071591,534208,453022
1220.85,0.071050,540472,458905
1225.51,0.069858,549929,468219
1229.01,0.069539,556888,474492
1232.5,0.069089,562180,479498
1235.98,0.068529,567975,485065
1239.46,0.067151,574815,492467
1242.94,0.065917,582782,500713
1246.41,0.065333,591476,508867
1251.03,0.065482,604016,519477
1254.5,0.066094,612289,525851
1257.96,0.065744,619125,532150
1261.41,0.066795,624551,535517
1264.86,0.067310,629900,539463
1268.31,0.067814,634345,542640
1271.75,0.068518,638574,545372
1276.33,0.068877,642499,548271
1279.76,0.069157,645905,550822
1283.19,0.068367,648307,553878
1286.61,0.068140,650446,555996
1290.03,0.067254,652132,558575
1293.44,0.066975,653907,560455
1296.85,0.066683,655963,562596
1301.39,0.066521,657349,563995
1304.8,0.066691,657558,563953
1308.19,0.066822,658515,564604
1311.58,0.066977,658804,564650
1314.97,0.067595,659011,564024
1318.36,0.067990,658272,562879
1321.73,0.068352,658022,562197
1326.23,0.069451,657870,560646
1329.6,0.070239,656482,558450
1332.97,0.071421,654926,555612
1336.33,0.072257,653727,553528
1339.69,0.074482,652497,549663
1343.04,0.076091,649913,545462
1346.39,0.078288,647671,540837
1349.73,0.080267,645338,536439
1354.18,0.083245,641175,529336
1357.52,0.085696,638376,524059
1360.85,0.087871,635805,519341
1364.17,0.089975,633413,514887
1367.49,0.092745,631026,509686
1370.81,0.095101,628050,504537
1374.12,0.097317,625034,499559
1378.54,0.100790,620272,491804
1381.84,0.104470,616892,484997
1385.14,0.108191,613613,478303
1388.43,0.112754,611526,471695
1391.72,0.117439,610663,465975
1395.01,0.122483,610634,460573
1398.29,0.127216,611700,456376
1402.66,0.134912,614051,450083
1405.93,0.140624,616268,445806
1409.2,0.145785,617795,441631
1412.46,0.151310,618872,436808
1415.72,0.155661,619795,433099
1418.98,0.159873,620495,429403
1422.23,0.163863,621087,425882
1426.56,0.167830,621375,422205
1429.8,0.170932,621616,419363
1433.04,0.173538,622129,417198
1436.27,0.176075,621526,414366
1439.5,0.177880,621113,412373
1442.72,0.180578,620921,409693
1445.94,0.182895,620270,407086
1450.23,0.186696,618860,402621
1453.44,0.189501,617697,399277
1456.64,0.192350,616264,395746
1459.85,0.195449,614413,391752
1463.04,0.198242,612307,387907
1466.24,0.201511,610032,383567
1469.43,0.204858,607345,378946
1473.67,0.211446,603789,371056
1476.85,0.216893,601175,364845
1480.02,0.223413,597737,357353
1483.19,0.229770,594479,350241
1486.36,0.235906,591232,343441
1489.52,0.241638,587853,337001
1492.68,0.244126,583875,332808
1496.89,0.247275,578062,327114
1500.03,0.247892,574159,324444
1503.18,0.247565,570285,322498
1506.32,0.247477,565444,319825
1509.45,0.245513,560571,318506
1512.58,0.244190,555821,316771
1515.71,0.241362,550344,315698
1519.87,0.238042,543983,314444
1522.99,0.235926,538764,312948
1526.1,0.233170,533692,311976
1529.21,0.230107,527902,310775
1532.32,0.226354,521886,309900
1535.42,0.224139,515888,307905
1538.51,0.220923,509987,306645
1541.6,0.217452,503936,305438
1545.72,0.213045,494694,302895
1548.8,0.209796,488378,301273
1551.88,0.206706,481832,299357
1554.95,0.205034,474989,296244
1558.02,0.202919,467818,293196
1561.08,0.202080,460730,289312
1564.15,0.200843,454170,286006
1568.22,0.199670,444181,280472
1571.27,0.199871,436947,275777
1574.32,0.198985,429598,271692
1577.36,0.196538,422039,268420
1580.4,0.195175,414375,264374
1583.43,0.193599,406354,260199
1586.46,0.192005,398475,256092
1590.49,0.190292,388982,250979
1593.51,0.187770,380708,247071
1596.53,0.185459,372727,243182
1599.54,0.183667,365060,239165
1602.55,0.181142,357543,235606
1605.55,0.179367,349495,231246
1608.55,0.177036,341154,226942
1612.54,0.173879,330877,221711
1615.53,0.172136,322904,217239
1618.51,0.170281,315116,212907
1621.49,0.170124,307217,207645
1624.47,0.168298,299481,203269
1627.44,0.167494,292112,198635
1630.41,0.165891,284245,194000
1634.36,0.165869,274079,187071
1637.32,0.163558,266916,183154
1640.27,0.162521,259612,178568
1643.22,0.161393,251804,173648
1646.16,0.161038,244348,168644
1649.1,0.159559,236703,163925
1652.04,0.159694,228171,157967
1655.95,0.155339,215408,150634
1658.88,0.152276,204937,144326
1661.8,0.149420,193395,137096
1664.72,0.143273,179728,129224
1667.63,0.132119,163642,120719
1670.54,0.120662,146312,110820
1673.44,0.108169,128451,100131
1677.31,0.090215,105080,85370
1680.21,0.084206,88906,73236
1683.1,0.081106,75033,62251
1685.99,0.083795,63520,52374
1688.87,0.087316,53714,43931
1691.75,0.088810,45653,37210
1694.62,0.099171,39137,31147
1697.49,0.101366,33776,26745
1701.31,0.111607,28175,21790

File: Column 1_050565_20150331_120713.csv
Method:,Column 1,,
Host Date-Time:,31/3/15 @ 12:7:13,,
Header Version:,1,,
System Temp (C):,33.91,,
Detector Temp (C):,33.76,,
Humidity (%):,1.86,,
Lamp PD:,3818,,
Shift Vector Coefficients:,-10.5391,0.0761263,-0.000134223,,
Pixel to Wavelength Coefficients:,1775.68,-0.916766,-0.000235065,,
Serial Number:,5510004,,
Scan Config Name:,Column 1,,
Scan Config Type:,Slew,,
Section 1,,
Start wavelength (nm):,900,,
End wavelength (nm):,1700,,
Pattern Pixel Width (nm):,   7.03,,,,
Exposure (ms):,  0.635,,,,
Digital Resolution:,228,,
Num Repeats:,6,,
PGA Gain:,64,,
Total Measurement Time in sec:,  2.666,,
Wavelength (nm),Absorbance (AU),Reference Signal (unitless),Sample Signal (unitless)
901.51,0.033943,108485,100329
905.376,0.040308,121306,110554
909.237,0.043467,131909,119346
913.095,0.042798,143299,129851
916.948,0.045241,156982,141452
922.079,0.044955,179937,162243
925.923,0.047389,200504,179777
929.762,0.048503,222660,199131
933.597,0.049074,244426,218310
937.427,0.047429,263972,236662
941.254,0.047276,281845,252775
945.076,0.046420,297271,267136
950.165,0.046142,315605,283793
953.978,0.045633,328029,295311
957.786,0.046389,340470,305978
961.59,0.046283,352317,316702
965.389,0.046345,363056,326309
969.185,0.046955,373162,334921
972.976,0.047439,382632,343038
976.763,0.047563,391202,350621
981.806,0.048284,400190,358082
985.583,0.048702,406088,363010
989.355,0.049060,410162,366349
993.124,0.050228,412868,367776
996.888,0.050375,414263,368894
1000.65,0.050845,415476,369574
1004.4,0.052700,415479,368001
1009.41,0.053561,414358,366281
1013.15,0.054194,412923,364481
1016.89,0.054695,411526,362829
1020.63,0.054204,409066,361068
1024.36,0.054937,406777,358442
1028.09,0.054818,404427,356469
1031.82,0.054013,401911,354909
1036.78,0.054423,398410,351485
1040.49,0.053047,396204,350648
1044.2,0.053578,394236,348480
1047.91,0.052530,392042,347378
1051.61,0.052866,389823,345145
1055.31,0.051868,388234,344529
1059,0.051374,387599,344357
1063.92,0.050362,386688,344349
1067.61,0.049274,386598,345132
1071.29,0.048749,387377,346246
1074.96,0.048277,388536,347660
1078.63,0.047816,389855,349210
1082.3,0.046854,391215,351206
1085.96,0.045747,393215,353902
1090.84,0.045848,396270,356569
1094.49,0.045574,398760,359036
1098.14,0.045122,400987,361417
1101.79,0.044157,403477,364470
1105.43,0.044301,406116,366732
1109.06,0.043971,407701,368443
1112.7,0.044173,409859,370221
1117.53,0.043698,412494,373009
1121.15,0.044575,414909,374436
1124.77,0.045145,416559,375432
1128.38,0.046266,418532,376238
1131.99,0.047703,419956,376271
1135.6,0.050010,421946,376051
1139.2,0.051515,423881,376469
1143.99,0.054602,426786,376364
1147.58,0.054965,428617,377663
1151.17,0.056305,431169,378741
1154.75,0.057283,433579,380001
1158.33,0.059145,436264,380719
1161.91,0.060577,439132,381960
1165.48,0.063785,442389,381961
1169.04,0.065962,446101,383240
1173.79,0.069607,451929,385002
1177.34,0.072295,456026,386095
1180.9,0.074875,461306,388252
1184.44,0.076761,467657,391892
1187.99,0.077701,473969,396323
1191.52,0.077065,479856,401833
1195.06,0.077094,487372,408100
1199.76,0.076208,497347,417303
1203.29,0.074745,504311,424574
1206.81,0.074111,511507,431261
1210.33,0.072998,519078,438768
1213.84,0.072580,527163,446031
1217.35,0.071945,534208,452653
1220.85,0.071290,540472,458652
1225.51,0.070219,549929,467830
1229.01,0.069539,556888,474492
1232.5,0.069166,562180,479413
1235.98,0.068454,567975,485149
1239.46,0.067207,574815,492403
1242.94,0.066086,582782,500519
1246.41,0.065658,591476,508486
1251.03,0.065770,604016,519133
1254.5,0.065909,612289,526075
1257.96,0.066142,619125,531663
1261.41,0.066824,624551,535481
1264.86,0.067055,629900,539780
1268.31,0.068188,634345,542172
1271.75,0.068628,638574,545234
1276.33,0.069071,642499,548027
1279.76,0.069331,645905,550602
1283.19,0.068283,648307,553985
1286.61,0.068304,650446,555785
1290.03,0.067363,652132,558435
1293.44,0.067400,653907,559907
1296.85,0.066933,655963,562272
1301.39,0.066538,657349,563973
1304.8,0.066834,657558,563767
1308.19,0.067349,658515,563919
1311.58,0.066849,658804,564816
1314.97,0.067570,659011,564057
1318.36,0.068054,658272,562797
1321.73,0.068594,658022,561884
1326.23,0.069173,657870,561006
1329.6,0.070344,656482,558315
1332.97,0.071261,654926,555816
1336.33,0.072806,653727,552829
1339.69,0.074259,652497,549945
1343.04,0.076368,649913,545114
1346.39,0.078323,647671,540793
1349.73,0.080415,645338,536256
1354.18,0.083517,641175,529005
1357.52,0.085938,638376,523767
1360.85,0.087734,635805,519505
1364.17,0.090378,633413,514409
1367.49,0.092872,631026,509537
1370.81,0.094984,628050,504673
1374.12,0.097872,625034,498921
1378.54,0.101298,620272,491229
1381.84,0.104200,616892,485299
1385.14,0.108498,613613,477966
1388.43,0.113125,611526,471292
1391.72,0.117548,610663,465858
1395.01,0.122102,610634,460977
1398.29,0.127663,611700,455906
1402.66,0.134816,614051,450182
1405.93,0.140675,616268,445753
1409.2,0.146031,617795,441381
1412.46,0.151277,618872,436841
1415.72,0.155993,619795,432768
1418.98,0.159805,620495,429470
1422.23,0.163734,621087,426009
1426.56,0.167747,621375,422286
1429.8,0.170669,621616,419617
1433.04,0.173102,622129,417617
1436.27,0.175836,621526,414594
1439.5,0.177826,621113,412425
1442.72,0.180410,620921,409851
1445.94,0.183200,620270,406800
1450.23,0.186736,618860,402584
1453.44,0.189776,617697,399024
1456.64,0.192631,616264,395490
1459.85,0.195486,614413,391719
1463.04,0.198752,612307,387451
1466.24,0.201836,610032,383280
1469.43,0.205714,607345,378200
1473.67,0.212018,603789,370567
1476.85,0.217597,601175,364254
1480.02,0.224017,597737,356856
1483.19,0.230438,594479,349702
1486.36,0.235613,591232,343673
1489.52,0.241084,587853,337431
1492.68,0.244745,583875,332334
1496.89,0.247431,578062,326997
1500.03,0.248044,574159,324331
1503.18,0.249085,570285,321371
1506.32,0.247443,565444,319850
1509.45,0.245686,560571,318379
1512.58,0.243796,555821,317058
1515.71,0.241669,550344,315475
1519.87,0.238434,543983,314160
1522.99,0.235204,538764,313469
1526.1,0.232979,533692,312113
1529.21,0.229829,527902,310974
1532.32,0.226741,521886,309624
1535.42,0.224139,515888,307905
1538.51,0.221146,509987,306488
1541.6,0.218013,503936,305044
1545.72,0.213032,494694,302904
1548.8,0.210376,488378,300871
1551.88,0.207743,481832,298643
1554.95,0.204883,474989,296347
1558.02,0.203844,467818,292572
1561.08,0.202821,460730,288819
1564.15,0.201707,454170,285438
1568.22,0.201063,444181,279574
1571.27,0.199332,436947,276119
1574.32,0.198477,429598,272010
1577.36,0.197151,422039,268041
1580.4,0.195439,414375,264213
1583.43,0.194321,406354,259767
1586.46,0.192810,398475,255618
1590.49,0.189955,388982,251174
1593.51,0.187510,380708,247219
1596.53,0.186119,372727,242813
1599.54,0.183594,365060,239205
1602.55,0.181125,357543,235615
1605.55,0.178832,349495,231531
1608.55,0.177007,341154,226957
1612.54,0.174222,330877,221536
1615.53,0.172484,322904,217065
1618.51,0.171615,315116,212254
1621.49,0.170398,307217,207514
1624.47,0.168918,299481,202979
1627.44,0.168284,292112,198274
1630.41,0.166985,284245,193512
1634.36,0.164717,274079,187568
1637.32,0.163867,266916,183024
1640.27,0.164102,259612,177919
1643.22,0.161958,251804,173422
1646.16,0.161319,244348,168535
1649.1,0.160915,236703,163414
1652.04,0.160131,228171,157808
1655.95,0.156841,215408,150114
1658.88,0.154191,204937,143691
1661.8,0.149104,193395,137196
1664.72,0.142322,179728,129507
1667.63,0.132044,163642,120740
1670.54,0.122740,146312,110291
1673.44,0.109533,128451,99817
1677.31,0.091356,105080,85146
1680.21,0.085032,88906,73097
1683.1,0.081329,75033,62219
1685.99,0.083546,63520,52404
1688.87,0.086961,53714,43967
1691.75,0.091056,45653,37018
1694.62,0.105973,39137,30663
1697.49,0.106823,33776,26411
1701.31,0.116175,28175,21562

File: Column 1_050566_20150331_120715.csv
Method:,Column 1,,
Host Date-Time:,31/3/15 @ 12:7:15,,
Header Version:,1,,
System Temp (C):,33.91,,
Detector Temp (C):,33.76,,
Humidity (%):,1.86,,
Lamp PD:,3819,,
Shift Vector Coefficients:,-10.5391,0.0761263,-0.000134223,,
Pixel to Wavelength Coefficients:,1775.68,-0.916766,-0.000235065,,
Serial Number:,5510004,,
Scan Config Name:,Column 1,,
Scan Config Type:,Slew,,
Section 1,,
Start wavelength (nm):,900,,
End wavelength (nm):,1700,,
Pattern Pixel Width (nm):,   7.03,,,,
Exposure (ms):,  0.635,,,,
Digital Resolution:,228,,
Num Repeats:,6,,
PGA Gain:,64,,
Total Measurement Time in sec:,  2.674,,
Wavelength (nm),Absorbance (AU),Reference Signal (unitless),Sample Signal (unitless)
901.51,0.034675,108485,100160
905.376,0.041827,121306,110168
909.237,0.042249,131909,119681
913.095,0.043219,143299,129725
916.948,0.044857,156982,141577
922.079,0.045817,179937,161921
925.923,0.047466,200504,179745
929.762,0.047319,222660,199675
933.597,0.048762,244426,218467
937.427,0.048611,263972,236019
941.254,0.047149,281845,252849
945.076,0.046531,297271,267068
950.165,0.046412,315605,283617
953.978,0.045733,328029,295243
957.786,0.046369,340470,305992
961.59,0.046441,352317,316587
965.389,0.046971,363056,325839
969.185,0.046555,373162,335230
972.976,0.046807,382632,343538
976.763,0.047851,391202,350389
981.806,0.048515,400190,357891
985.583,0.048804,406088,362924
989.355,0.049649,410162,365853
993.124,0.049883,412868,368068
996.888,0.050954,414263,368402
1000.65,0.051449,415476,369060
1004.4,0.052219,415479,368409
1009.41,0.053814,414358,366068
1013.15,0.054509,412923,364217
1016.89,0.054644,411526,362872
1020.63,0.054709,409066,360649
1024.36,0.054851,406777,358513
1028.09,0.054594,404427,356653
1031.82,0.054150,401911,354797
1036.78,0.053879,398410,351926
1040.49,0.053626,396204,350181
1044.2,0.052937,394236,348995
1047.91,0.052227,392042,347621
1051.61,0.052017,389823,345820
1055.31,0.051390,388234,344908
1059,0.051511,387599,344248
1063.92,0.050766,386688,344029
1067.61,0.048862,386598,345460
1071.29,0.048513,387377,346434
1074.96,0.048177,388536,347740
1078.63,0.047869,389855,349168
1082.3,0.047164,391215,350955
1085.96,0.046361,393215,353402
1090.84,0.045731,396270,356665
1094.49,0.045106,398760,359423
1098.14,0.044984,400987,361532
1101.79,0.044665,403477,364044
1105.43,0.044478,406116,366583
1109.06,0.043950,407701,368461
1112.7,0.044164,409859,370229
1117.53,0.043986,412494,372762
1121.15,0.045194,414909,373903
1124.77,0.045712,416559,374942
1128.38,0.046847,418532,375735
1131.99,0.048465,419956,375611
1135.6,0.049798,421946,376235
1139.2,0.051574,423881,376418
1143.99,0.053776,426786,377081
1147.58,0.054882,428617,377735
1151.17,0.056517,431169,378556
1154.75,0.057503,433579,379809
1158.33,0.059541,436264,380372
1161.91,0.061473,439132,381173
1165.48,0.063623,442389,382104
1169.04,0.066158,446101,383067
1173.79,0.069837,451929,384798
1177.34,0.072308,456026,386084
1180.9,0.074780,461306,388337
1184.44,0.076555,467657,392078
1187.99,0.077145,473969,396830
1191.52,0.077116,479856,401786
1195.06,0.077332,487372,407876
1199.76,0.075683,497347,417808
1203.29,0.075252,504311,424079
1206.81,0.074413,511507,430962
1210.33,0.073730,519078,438029
1213.84,0.072755,527163,445851
1217.35,0.071834,534208,452769
1220.85,0.071626,540472,458297
1225.51,0.070665,549929,467349
1229.01,0.069913,556888,474083
1232.5,0.069176,562180,479401
1235.98,0.068534,567975,485060
1239.46,0.067338,574815,492255
1242.94,0.066178,582782,500413
1246.41,0.065699,591476,508438
1251.03,0.065734,604016,519176
1254.5,0.065836,612289,526163
1257.96,0.066231,619125,531554
1261.41,0.066401,624551,536003
1264.86,0.067562,629900,539150
1268.31,0.067989,634345,542421
1271.75,0.068984,638574,544788
1276.33,0.069183,642499,547885
1279.76,0.069041,645905,550969
1283.19,0.068499,648307,553709
1286.61,0.068024,650446,556144
1290.03,0.067774,652132,557906
1293.44,0.067581,653907,559674
1296.85,0.067427,655963,561632
1301.39,0.066969,657349,563413
1304.8,0.066988,657558,563568
1308.19,0.066858,658515,564557
1311.58,0.067112,658804,564474
1314.97,0.067879,659011,563655
1318.36,0.068426,658272,562315
1321.73,0.068503,658022,562002
1326.23,0.069857,657870,560123
1329.6,0.070156,656482,558556
1332.97,0.071495,654926,555517
1336.33,0.073009,653727,552570
1339.69,0.074281,652497,549917
1343.04,0.076022,649913,545548
1346.39,0.077857,647671,541374
1349.73,0.080750,645338,535843
1354.18,0.083483,641175,529046
1357.52,0.085692,638376,524064
1360.85,0.087994,635805,519194
1364.17,0.090227,633413,514588
1367.49,0.092776,631026,509649
1370.81,0.095398,628050,504192
1374.12,0.097642,625034,499185
1378.54,0.101097,620272,491457
1381.84,0.104484,616892,484981
1385.14,0.108275,613613,478211
1388.43,0.112552,611526,471914
1391.72,0.117420,610663,465995
1395.01,0.122464,610634,460593
1398.29,0.127117,611700,456480
1402.66,0.134454,614051,450558
1405.93,0.141096,616268,445321
1409.2,0.145805,617795,441611
1412.46,0.151343,618872,436775
1415.72,0.155867,619795,432894
1418.98,0.159870,620495,429406
1422.23,0.163929,621087,425817
1426.56,0.167793,621375,422241
1429.8,0.171460,621616,418854
1433.04,0.173805,622129,416942
1436.27,0.176039,621526,414401
1439.5,0.177769,621113,412479
1442.72,0.180526,620921,409742
1445.94,0.183124,620270,406871
1450.23,0.186643,618860,402670
1453.44,0.189817,617697,398987
1456.64,0.192862,616264,395280
1459.85,0.195685,614413,391539
1463.04,0.198382,612307,387782
1466.24,0.202146,610032,383007
1469.43,0.204864,607345,378941
1473.67,0.211402,603789,371093
1476.85,0.217443,601175,364383
1480.02,0.222994,597737,357698
1483.19,0.230611,594479,349563
1486.36,0.236444,591232,343016
1489.52,0.241063,587853,337447
1492.68,0.245557,583875,331713
1496.89,0.247270,578062,327118
1500.03,0.248589,574159,323924
1503.18,0.248084,570285,322113
1506.32,0.247161,565444,320058
1509.45,0.246333,560571,317905
1512.58,0.244295,555821,316694
1515.71,0.241901,550344,315307
1519.87,0.238776,543983,313913
1522.99,0.235838,538764,313012
1526.1,0.233459,533692,311768
1529.21,0.230648,527902,310388
1532.32,0.227284,521886,309237
1535.42,0.223931,515888,308052
1538.51,0.220608,509987,306868
1541.6,0.217488,503936,305413
1545.72,0.213499,494694,302578
1548.8,0.209434,488378,301524
1551.88,0.207283,481832,298960
1554.95,0.205895,474989,295657
1558.02,0.203774,467818,292619
1561.08,0.202263,460730,289190
1564.15,0.202052,454170,285211
1568.22,0.201020,444181,279602
1571.27,0.199584,436947,275959
1574.32,0.198969,429598,271702
1577.36,0.197454,422039,267854
1580.4,0.196539,414375,263545
1583.43,0.194195,406354,259842
1586.46,0.191488,398475,256397
1590.49,0.189899,388982,251206
1593.51,0.188029,380708,246924
1596.53,0.185790,372727,242997
1599.54,0.183530,365060,239240
1602.55,0.181701,357543,235303
1605.55,0.178956,349495,231465
1608.55,0.176559,341154,227191
1612.54,0.174640,330877,221323
1615.53,0.173134,322904,216740
1618.51,0.171664,315116,212230
1621.49,0.171072,307217,207192
1624.47,0.168010,299481,203404
1627.44,0.168001,292112,198403
1630.41,0.167328,284245,193359
1634.36,0.164722,274079,187566
1637.32,0.165314,266916,182415
1640.27,0.163558,259612,178142
1643.22,0.162429,251804,173234
1646.16,0.161943,244348,168293
1649.1,0.160954,236703,163399
1652.04,0.159241,228171,158132
1655.95,0.157669,215408,149828
1658.88,0.153783,204937,143826
1661.8,0.150102,193395,136881
1664.72,0.142920,179728,129329
1667.63,0.133113,163642,120443
1670.54,0.121965,146312,110488
1673.44,0.108720,128451,100004
1677.31,0.091024,105080,85211
1680.21,0.086686,88906,72819
1683.1,0.080966,75033,62271
1685.99,0.085831,63520,52129
1688.87,0.090950,53714,43565
1691.75,0.094165,45653,36754
1694.62,0.097599,39137,31260
1697.49,0.104527,33776,26551
1701.31,0.115792,28175,21581