Folder: textile_sorting_NIRSCAN_/samples/wool/wool-000811 (part 55)

File: Column 1_050561_20150331_120453.csv
Method:,Column 1,,
Host Date-Time:,31/3/15 @ 12:4:53,,
Header Version:,1,,
System Temp (C):,33.68,,
Detector Temp (C):,33.22,,
Humidity (%):,2.15,,
Lamp PD:,3819,,
Shift Vector Coefficients:,-10.5391,0.0761263,-0.000134223,,
Pixel to Wavelength Coefficients:,1775.68,-0.916766,-0.000235065,,
Serial Number:,5510004,,
Scan Config Name:,Column 1,,
Scan Config Type:,Slew,,
Section 1,,
Start wavelength (nm):,900,,
End wavelength (nm):,1700,,
Pattern Pixel Width (nm):,   7.03,,,,
Exposure (ms):,  0.635,,,,
Digital Resolution:,228,,
Num Repeats:,6,,
PGA Gain:,64,,
Total Measurement Time in sec:,  2.724,,
Wavelength (nm),Absorbance (AU),Reference Signal (unitless),Sample Signal (unitless)
901.51,0.032211,108485,100730
905.376,0.038505,121306,111014
909.237,0.041372,131909,119923
913.095,0.042995,143299,129792
916.948,0.044247,156982,141776
922.079,0.044671,179937,162349
925.923,0.046720,200504,180054
929.762,0.046708,222660,199956
933.597,0.047224,244426,219242
937.427,0.046165,263972,237352
941.254,0.046240,281845,253379
945.076,0.046319,297271,267198
950.165,0.046332,315605,283669
953.978,0.044930,328029,295789
957.786,0.045840,340470,306365
961.59,0.046258,352317,316720
965.389,0.046490,363056,326200
969.185,0.046255,373162,335461
972.976,0.047334,382632,343121
976.763,0.047522,391202,350654
981.806,0.048433,400190,357959
985.583,0.048718,406088,362996
989.355,0.049852,410162,365682
993.124,0.049579,412868,368326
996.888,0.050465,414263,368817
1000.65,0.051173,415476,369295
1004.4,0.052548,415479,368130
1009.41,0.053661,414358,366197
1013.15,0.054305,412923,364388
1016.89,0.055301,411526,362323
1020.63,0.054541,409066,360788
1024.36,0.054573,406777,358743
1028.09,0.054060,404427,357092
1031.82,0.054216,401911,354743
1036.78,0.053298,398410,352397
1040.49,0.052905,396204,350763
1044.2,0.053890,394236,348230
1047.91,0.052550,392042,347362
1051.61,0.052059,389823,345787
1055.31,0.051793,388234,344588
1059,0.050916,387599,344720
1063.92,0.049611,386688,344945
1067.61,0.049563,386598,344903
1071.29,0.048969,387377,346071
1074.96,0.048155,388536,347757
1078.63,0.047808,389855,349217
1082.3,0.046339,391215,351622
1085.96,0.046360,393215,353403
1090.84,0.045523,396270,356836
1094.49,0.045129,398760,359404
1098.14,0.045538,400987,361071
1101.79,0.044501,403477,364181
1105.43,0.044556,406116,366517
1109.06,0.044398,407701,368081
1112.7,0.044046,409859,370330
1117.53,0.044034,412494,372721
1121.15,0.044675,414909,374350
1124.77,0.045873,416559,374803
1128.38,0.046775,418532,375797
1131.99,0.048327,419956,375731
1135.6,0.050495,421946,375631
1139.2,0.051307,423881,376649
1143.99,0.054027,426786,376863
1147.58,0.055358,428617,377321
1151.17,0.056186,431169,378845
1154.75,0.057826,433579,379527
1158.33,0.059465,436264,380438
1161.91,0.061079,439132,381519
1165.48,0.063706,442389,382031
1169.04,0.066266,446101,382972
1173.79,0.070212,451929,384466
1177.34,0.072898,456026,385560
1180.9,0.074660,461306,388445
1184.44,0.076608,467657,392030
1187.99,0.077853,473969,396184
1191.52,0.077817,479856,401138
1195.06,0.077121,487372,408075
1199.76,0.075974,497347,417528
1203.29,0.074863,504311,424459
1206.81,0.074401,511507,430974
1210.33,0.073881,519078,437876
1213.84,0.072653,527163,445956
1217.35,0.072052,534208,452541
1220.85,0.071105,540472,458847
1225.51,0.070518,549929,467508
1229.01,0.069516,556888,474517
1232.5,0.069494,562180,479051
1235.98,0.068945,567975,484601
1239.46,0.067828,574815,491700
1242.94,0.066441,582782,500109
1246.41,0.065730,591476,508402
1251.03,0.065870,604016,519013
1254.5,0.065791,612289,526218
1257.96,0.066496,619125,531230
1261.41,0.066812,624551,535496
1264.86,0.067732,629900,538939
1268.31,0.068173,634345,542191
1271.75,0.069034,638574,544725
1276.33,0.069386,642499,547629
1279.76,0.069217,645905,550746
1283.19,0.068716,648307,553433
1286.61,0.068415,650446,555643
1290.03,0.067859,652132,557798
1293.44,0.067582,653907,559672
1296.85,0.067242,655963,561872
1301.39,0.067063,657349,563291
1304.8,0.066868,657558,563723
1308.19,0.067330,658515,563943
1311.58,0.067302,658804,564227
1314.97,0.068114,659011,563351
1318.36,0.068441,658272,562295
1321.73,0.068485,658022,562025
1326.23,0.069999,657870,559939
1329.6,0.070360,656482,558294
1332.97,0.071655,654926,555312
1336.33,0.073471,653727,551983
1339.69,0.074971,652497,549044
1343.04,0.076681,649913,544721
1346.39,0.079031,647671,539912
1349.73,0.080963,645338,535580
1354.18,0.084436,641175,527887
1357.52,0.086539,638376,523043
1360.85,0.088797,635805,518235
1364.17,0.090786,633413,513927
1367.49,0.093343,631026,508984
1370.81,0.095827,628050,503695
1374.12,0.098334,625034,498390
1378.54,0.102027,620272,490405
1381.84,0.105174,616892,484212
1385.14,0.109086,613613,477319
1388.43,0.113744,611526,470621
1391.72,0.119211,610663,464078
1395.01,0.123420,610634,459580
1398.29,0.129429,611700,454056
1402.66,0.136752,614051,448180
1405.93,0.142949,616268,443425
1409.2,0.148303,617795,439078
1412.46,0.153662,618872,434449
1415.72,0.158072,619795,430701
1418.98,0.162966,620495,426356
1422.23,0.166307,621087,423492
1426.56,0.170707,621375,419418
1429.8,0.173750,621616,416651
1433.04,0.175821,622129,415011
1436.27,0.178684,621526,411884
1439.5,0.180632,621113,409769
1442.72,0.183517,620921,406930
1445.94,0.186440,620270,403776
1450.23,0.189818,618860,399737
1453.44,0.192216,617697,396789
1456.64,0.195467,616264,392916
1459.85,0.198463,614413,389043
1463.04,0.201643,612307,384881
1466.24,0.204356,610032,381063
1469.43,0.207944,607345,376263
1473.67,0.213921,603789,368947
1476.85,0.219546,601175,362623
1480.02,0.225071,597737,355991
1483.19,0.232017,594479,348433
1486.36,0.237557,591232,342138
1489.52,0.242768,587853,336125
1492.68,0.246026,583875,331355
1496.89,0.248818,578062,325954
1500.03,0.248800,574159,323767
1503.18,0.249522,570285,321048
1506.32,0.247897,565444,319516
1509.45,0.247374,560571,317144
1512.58,0.244987,555821,316190
1515.71,0.243255,550344,314325
1519.87,0.239590,543983,313325
1522.99,0.237124,538764,312086
1526.1,0.234821,533692,310792
1529.21,0.231365,527902,309876
1532.32,0.228418,521886,308431
1535.42,0.225888,515888,306667
1538.51,0.222561,509987,305491
1541.6,0.219240,503936,304183
1545.72,0.214541,494694,301853
1548.8,0.211277,488378,300247
1551.88,0.209193,481832,297648
1554.95,0.206984,474989,294917
1558.02,0.205012,467818,291786
1561.08,0.204039,460730,288010
1564.15,0.203478,454170,284276
1568.22,0.202263,444181,278803
1571.27,0.200894,436947,275128
1574.32,0.200295,429598,270874
1577.36,0.198594,422039,267152
1580.4,0.198117,414375,262589
1583.43,0.196253,406354,258614
1586.46,0.193794,398475,255039
1590.49,0.191257,388982,250422
1593.51,0.189814,380708,245911
1596.53,0.186749,372727,242461
1599.54,0.184748,365060,238570
1602.55,0.182636,357543,234797
1605.55,0.180390,349495,230702
1608.55,0.177825,341154,226530
1612.54,0.176215,330877,220522
1615.53,0.174292,322904,216163
1618.51,0.172030,315116,212051
1621.49,0.172405,307217,206557
1624.47,0.170309,299481,202330
1627.44,0.168687,292112,198090
1630.41,0.168174,284245,192983
1634.36,0.166541,274079,186782
1637.32,0.165843,266916,182193
1640.27,0.164889,259612,177597
1643.22,0.163489,251804,172812
1646.16,0.162276,244348,168164
1649.1,0.161915,236703,163038
1652.04,0.160236,228171,157770
1655.95,0.157324,215408,149947
1658.88,0.155808,204937,143157
1661.8,0.151373,193395,136481
1664.72,0.146020,179728,128409
1667.63,0.135772,163642,119708
1670.54,0.125172,146312,109675
1673.44,0.112589,128451,99117
1677.31,0.098183,105080,83818
1680.21,0.090262,88906,72222
1683.1,0.088416,75033,61212
1685.99,0.093759,63520,51186
1688.87,0.100678,53714,42600
1691.75,0.102805,45653,36030
1694.62,0.102109,39137,30937
1697.49,0.118624,33776,25703
1701.31,0.116638,28175,21539

File: Column 1_050561_20150331_120456.csv
Method:,Column 1,,
Host Date-Time:,31/3/15 @ 12:4:56,,
Header Version:,1,,
System Temp (C):,33.7,,
Detector Temp (C):,33.29,,
Humidity (%):,2.1,,
Lamp PD:,3819,,
Shift Vector Coefficients:,-10.5391,0.0761263,-0.000134223,,
Pixel to Wavelength Coefficients:,1775.68,-0.916766,-0.000235065,,
Serial Number:,5510004,,
Scan Config Name:,Column 1,,
Scan Config Type:,Slew,,
Section 1,,
Start wavelength (nm):,900,,
End wavelength (nm):,1700,,
Pattern Pixel Width (nm):,   7.03,,,,
Exposure (ms):,  0.635,,,,
Digital Resolution:,228,,
Num Repeats:,6,,
PGA Gain:,64,,
Total Measurement Time in sec:,  2.728,,
Wavelength (nm),Absorbance (AU),Reference Signal (unitless),Sample Signal (unitless)
901.51,0.034736,108485,100146
905.376,0.040964,121306,110387
909.237,0.042641,131909,119573
913.095,0.042758,143299,129863
916.948,0.043412,156982,142049
922.079,0.045319,179937,162107
925.923,0.045848,200504,180416
929.762,0.046428,222660,200085
933.597,0.047103,244426,219303
937.427,0.046412,263972,237217
941.254,0.046881,281845,253005
945.076,0.046622,297271,267012
950.165,0.046309,315605,283684
953.978,0.045387,328029,295478
957.786,0.046400,340470,305970
961.59,0.045585,352317,317211
965.389,0.046035,363056,326542
969.185,0.046587,373162,335205
972.976,0.046896,382632,343467
976.763,0.047436,391202,350724
981.806,0.048256,400190,358105
985.583,0.048691,406088,363019
989.355,0.049313,410162,366136
993.124,0.049975,412868,367990
996.888,0.050397,414263,368875
1000.65,0.050809,415476,369604
1004.4,0.052324,415479,368320
1009.41,0.053155,414358,366624
1013.15,0.054195,412923,364480
1016.89,0.054984,411526,362588
1020.63,0.055071,409066,360348
1024.36,0.054528,406777,358780
1028.09,0.054399,404427,356813
1031.82,0.054652,401911,354387
1036.78,0.053964,398410,351857
1040.49,0.053584,396204,350215
1044.2,0.053323,394236,348685
1047.91,0.052572,392042,347345
1051.61,0.052049,389823,345795
1055.31,0.051196,388234,345062
1059,0.050891,387599,344740
1063.92,0.049868,386688,344741
1067.61,0.048785,386598,345521
1071.29,0.048506,387377,346440
1074.96,0.048242,388536,347688
1078.63,0.047855,389855,349179
1082.3,0.046834,391215,351222
1085.96,0.046052,393215,353654
1090.84,0.045826,396270,356587
1094.49,0.045182,398760,359360
1098.14,0.044370,400987,362043
1101.79,0.044929,403477,363823
1105.43,0.044428,406116,366625
1109.06,0.044111,407701,368325
1112.7,0.044917,409859,369588
1117.53,0.043520,412494,373162
1121.15,0.045202,414909,373896
1124.77,0.045858,416559,374816
1128.38,0.046521,418532,376017
1131.99,0.048225,419956,375819
1135.6,0.050068,421946,376001
1139.2,0.051968,423881,376076
1143.99,0.054264,426786,376657
1147.58,0.054832,428617,377779
1151.17,0.056022,431169,378988
1154.75,0.057543,433579,379774
1158.33,0.059097,436264,380761
1161.91,0.061651,439132,381017
1165.48,0.064163,442389,381629
1169.04,0.066506,446101,382761
1173.79,0.069830,451929,384805
1177.34,0.072631,456026,385797
1180.9,0.074616,461306,388484
1184.44,0.076611,467657,392027
1187.99,0.077491,473969,396514
1191.52,0.077399,479856,401524
1195.06,0.077032,487372,408158
1199.76,0.076020,497347,417484
1203.29,0.075224,504311,424106
1206.81,0.074103,511507,431269
1210.33,0.073879,519078,437878
1213.84,0.073086,527163,445511
1217.35,0.072467,534208,452109
1220.85,0.071438,540472,458496
1225.51,0.070583,549929,467438
1229.01,0.070238,556888,473729
1232.5,0.069203,562180,479372
1235.98,0.068747,567975,484822
1239.46,0.067081,574815,492546
1242.94,0.066346,582782,500219
1246.41,0.065835,591476,508279
1251.03,0.065858,604016,519027
1254.5,0.065963,612289,526009
1257.96,0.066304,619125,531464
1261.41,0.066821,624551,535484
1264.86,0.067592,629900,539113
1268.31,0.068221,634345,542131
1271.75,0.069248,638574,544456
1276.33,0.069105,642499,547983
1279.76,0.069272,645905,550677
1283.19,0.068694,648307,553460
1286.61,0.068741,650446,555226
1290.03,0.067929,652132,557708
1293.44,0.067700,653907,559520
1296.85,0.067398,655963,561670
1301.39,0.066997,657349,563377
1304.8,0.067161,657558,563343
1308.19,0.067285,658515,564002
1311.58,0.067633,658804,563797
1314.97,0.067989,659011,563512
1318.36,0.068476,658272,562250
1321.73,0.069024,658022,561328
1326.23,0.069899,657870,560069
1329.6,0.070820,656482,557703
1332.97,0.071770,654926,555165
1336.33,0.073423,653727,552044
1339.69,0.075137,652497,548835
1343.04,0.076651,649913,544759
1346.39,0.078670,647671,540362
1349.73,0.081307,645338,535156
1354.18,0.084247,641175,528116
1357.52,0.086641,638376,522920
1360.85,0.088401,635805,518708
1364.17,0.090903,633413,513788
1367.49,0.093475,631026,508830
1370.81,0.096191,628050,503272
1374.12,0.098447,625034,498261
1378.54,0.101729,620272,490742
1381.84,0.105333,616892,484034
1385.14,0.109443,613613,476927
1388.43,0.113973,611526,470372
1391.72,0.118401,610663,464944
1395.01,0.123609,610634,459380
1398.29,0.128857,611700,454655
1402.66,0.136433,614051,448509
1405.93,0.142491,616268,443893
1409.2,0.148648,617795,438729
1412.46,0.153129,618872,434983
1415.72,0.158498,619795,430279
1418.98,0.162489,620495,426824
1422.23,0.165929,621087,423861
1426.56,0.170726,621375,419399
1429.8,0.173847,621616,416558
1433.04,0.175857,622129,414976
1436.27,0.178844,621526,411733
1439.5,0.180725,621113,409681
1442.72,0.184228,620921,406264
1445.94,0.185729,620270,404438
1450.23,0.189050,618860,400445
1453.44,0.192290,617697,396721
1456.64,0.195224,616264,393136
1459.85,0.198536,614413,388977
1463.04,0.200382,612307,386000
1466.24,0.204628,610032,380824
1469.43,0.208268,607345,375982
1473.67,0.213789,603789,369059
1476.85,0.218970,601175,363104
1480.02,0.225124,597737,355948
1483.19,0.231414,594479,348917
1486.36,0.237658,591232,342058
1489.52,0.242290,587853,336495
1492.68,0.245808,583875,331522
1496.89,0.248026,578062,326549
1500.03,0.248471,574159,324012
1503.18,0.249427,570285,321118
1506.32,0.248561,565444,319028
1509.45,0.246712,560571,317628
1512.58,0.245394,555821,315894
1515.71,0.243534,550344,314123
1519.87,0.240096,543983,312960
1522.99,0.237333,538764,311936
1526.1,0.234198,533692,311238
1529.21,0.231175,527902,310012
1532.32,0.228606,521886,308297
1535.42,0.225418,515888,306999
1538.51,0.222230,509987,305724
1541.6,0.219148,503936,304248
1545.72,0.214911,494694,301596
1548.8,0.211826,488378,299868
1551.88,0.209286,481832,297584
1554.95,0.206655,474989,295140
1558.02,0.204453,467818,292162
1561.08,0.203323,460730,288485
1564.15,0.203005,454170,284586
1568.22,0.201789,444181,279107
1571.27,0.201295,436947,274874
1574.32,0.200266,429598,270892
1577.36,0.197834,422039,267620
1580.4,0.197477,414375,262976
1583.43,0.195162,406354,259264
1586.46,0.192915,398475,255556
1590.49,0.191314,388982,250389
1593.51,0.189634,380708,246013
1596.53,0.186964,372727,242341
1599.54,0.184801,365060,238541
1602.55,0.182203,357543,235031
1605.55,0.180842,349495,230462
1608.55,0.177777,341154,226555
1612.54,0.176203,330877,220528
1615.53,0.173808,322904,216404
1618.51,0.172579,315116,211783
1621.49,0.171374,307217,207048
1624.47,0.169661,299481,202632
1627.44,0.169466,292112,197735
1630.41,0.168534,284245,192823
1634.36,0.166362,274079,186859
1637.32,0.165409,266916,182375
1640.27,0.164234,259612,177865
1643.22,0.162603,251804,173165
1646.16,0.163212,244348,167802
1649.1,0.161838,236703,163067
1652.04,0.160611,228171,157634
1655.95,0.158664,215408,149485
1658.88,0.154865,204937,143468
1661.8,0.152188,193395,136225
1664.72,0.144238,179728,128937
1667.63,0.135239,163642,119855
1670.54,0.125818,146312,109512
1673.44,0.113726,128451,98858
1677.31,0.098375,105080,83781
1680.21,0.091297,88906,72050
1683.1,0.088785,75033,61160
1685.99,0.092260,63520,51363
1688.87,0.098461,53714,42818
1691.75,0.102552,45653,36051
1694.62,0.114136,39137,30092
1697.49,0.109677,33776,26238
1701.31,0.116880,28175,21527

File: Column 1_050561_20150331_120459.csv
Method:,Column 1,,
Host Date-Time:,31/3/15 @ 12:4:59,,
Header Version:,1,,
System Temp (C):,33.7,,
Detector Temp (C):,33.27,,
Humidity (%):,2.05,,
Lamp PD:,3819,,
Shift Vector Coefficients:,-10.5391,0.0761263,-0.000134223,,
Pixel to Wavelength Coefficients:,1775.68,-0.916766,-0.000235065,,
Serial Number:,5510004,,
Scan Config Name:,Column 1,,
Scan Config Type:,Slew,,
Section 1,,
Start wavelength (nm):,900,,
End wavelength (nm):,1700,,
Pattern Pixel Width (nm):,   7.03,,,,
Exposure (ms):,  0.635,,,,
Digital Resolution:,228,,
Num Repeats:,6,,
PGA Gain:,64,,
Total Measurement Time in sec:,  2.662,,
Wavelength (nm),Absorbance (AU),Reference Signal (unitless),Sample Signal (unitless)
901.51,0.033809,108485,100360
905.376,0.039386,121306,110789
909.237,0.042907,131909,119500
913.095,0.042196,143299,130031
916.948,0.042987,156982,142188
922.079,0.044588,179937,162380
925.923,0.046564,200504,180119
929.762,0.047262,222660,199701
933.597,0.047598,244426,219053
937.427,0.047180,263972,236798
941.254,0.046720,281845,253099
945.076,0.045994,297271,267398
950.165,0.046159,315605,283782
953.978,0.045427,328029,295451
957.786,0.045732,340470,306441
961.59,0.046865,352317,316278
965.389,0.046149,363056,326456
969.185,0.046648,373162,335158
972.976,0.047020,382632,343369
976.763,0.047419,391202,350737
981.806,0.048409,400190,357979
985.583,0.048611,406088,363086
989.355,0.049277,410162,366166
993.124,0.050242,412868,367764
996.888,0.050525,414263,368766
1000.65,0.051143,415476,369320
1004.4,0.052449,415479,368214
1009.41,0.053911,414358,365986
1013.15,0.054517,412923,364210
1016.89,0.054552,411526,362949
1020.63,0.054585,409066,360752
1024.36,0.054908,406777,358466
1028.09,0.054470,404427,356755
1031.82,0.054477,401911,354530
1036.78,0.054076,398410,351766
1040.49,0.053140,396204,350573
1044.2,0.053261,394236,348735
1047.91,0.052653,392042,347280
1051.61,0.052549,389823,345397
1055.31,0.051361,388234,344931
1059,0.050933,387599,344707
1063.92,0.049941,386688,344683
1067.61,0.049020,386598,345334
1071.29,0.049375,387377,345747
1074.96,0.048803,388536,347239
1078.63,0.048024,389855,349043
1082.3,0.047154,391215,350963
1085.96,0.046614,393215,353196
1090.84,0.045697,396270,356693
1094.49,0.045154,398760,359383
1098.14,0.045411,400987,361176
1101.79,0.045085,403477,363692
1105.43,0.044411,406116,366639
1109.06,0.044129,407701,368309
1112.7,0.044656,409859,369810
1117.53,0.044114,412494,372652
1121.15,0.045164,414909,373929
1124.77,0.045622,416559,375020
1128.38,0.047146,418532,375476
1131.99,0.048108,419956,375920
1135.6,0.050136,421946,375942
1139.2,0.051680,423881,376326
1143.99,0.053739,426786,377113
1147.58,0.055026,428617,377610
1151.17,0.056267,431169,378774
1154.75,0.058061,433579,379321
1158.33,0.059669,436264,380260
1161.91,0.062077,439132,380643
1165.48,0.064042,442389,381735
1169.04,0.066659,446101,382626
1173.79,0.070533,451929,384182
1177.34,0.072487,456026,385925
1180.9,0.074789,461306,388329
1184.44,0.076886,467657,391779
1187.99,0.077746,473969,396282
1191.52,0.077505,479856,401426
1195.06,0.077055,487372,408137
1199.76,0.075877,497347,417621
1203.29,0.075361,504311,423972
1206.81,0.074652,511507,430725
1210.33,0.073516,519078,438245
1213.84,0.072957,527163,445644
1217.35,0.072355,534208,452226
1220.85,0.071482,540472,458449
1225.51,0.070440,549929,467592
1229.01,0.070272,556888,473692
1232.5,0.069413,562180,479140
1235.98,0.068888,567975,484664
1239.46,0.067345,574815,492247
1242.94,0.066587,582782,499941
1246.41,0.066043,591476,508036
1251.03,0.065876,604016,519006
1254.5,0.066214,612289,525705
1257.96,0.066430,619125,531311
1261.41,0.066907,624551,535379
1264.86,0.067511,629900,539213
1268.31,0.068307,634345,542024
1271.75,0.068949,638574,544831
1276.33,0.069549,642499,547424
1279.76,0.069120,645905,550869
1283.19,0.069120,648307,552918
1286.61,0.068548,650446,555474
1290.03,0.068089,652132,557502
1293.44,0.067722,653907,559492
1296.85,0.067334,655963,561753
1301.39,0.067195,657349,563120
1304.8,0.066969,657558,563592
1308.19,0.067272,658515,564019
1311.58,0.067619,658804,563816
1314.97,0.068322,659011,563081
1318.36,0.068648,658272,562027
1321.73,0.068906,658022,561480
1326.23,0.069931,657870,560027
1329.6,0.070636,656482,557939
1332.97,0.071770,654926,555165
1336.33,0.073320,653727,552175
1339.69,0.074771,652497,549298
1343.04,0.076998,649913,544324
1346.39,0.079010,647671,539939
1349.73,0.081050,645338,535473
1354.18,0.084254,641175,528108
1357.52,0.086677,638376,522877
1360.85,0.088673,635805,518383
1364.17,0.090682,633413,514050
1367.49,0.093475,631026,508830
1370.81,0.095771,628050,503759
1374.12,0.098682,625034,497991
1378.54,0.102077,620272,490349
1381.84,0.105441,616892,483914
1385.14,0.109201,613613,477192
1388.43,0.113810,611526,470549
1391.72,0.118867,610663,464445
1395.01,0.123966,610634,459002
1398.29,0.129491,611700,453991
1402.66,0.137190,614051,447728
1405.93,0.142672,616268,443708
1409.2,0.148259,617795,439122
1412.46,0.153590,618872,434521
1415.72,0.158215,619795,430559
1418.98,0.162299,620495,427011
1422.23,0.166068,621087,423725
1426.56,0.170877,621375,419254
1429.8,0.173316,621616,417067
1433.04,0.176678,622129,414193
1436.27,0.178490,621526,412068
1439.5,0.180575,621113,409822
1442.72,0.183448,620921,406994
1445.94,0.185547,620270,404607
1450.23,0.189438,618860,400087
1453.44,0.192691,617697,396355
1456.64,0.195935,616264,392493
1459.85,0.198424,614413,389078
1463.04,0.201324,612307,385164
1466.24,0.204134,610032,381258
1469.43,0.207380,607345,376752
1473.67,0.214123,603789,368776
1476.85,0.219091,601175,363003
1480.02,0.225243,597737,355850
1483.19,0.231596,594479,348771
1486.36,0.237600,591232,342104
1489.52,0.242355,587853,336445
1492.68,0.246218,583875,331209
1496.89,0.248685,578062,326054
1500.03,0.249394,574159,323324
1503.18,0.248872,570285,321529
1506.32,0.248914,565444,318769
1509.45,0.247087,560571,317354
1512.58,0.245058,555821,316138
1515.71,0.242797,550344,314657
1519.87,0.240194,543983,312890
1522.99,0.237141,538764,312074
1526.1,0.234673,533692,310898
1529.21,0.231288,527902,309931
1532.32,0.228856,521886,308120
1535.42,0.225335,515888,307058
1538.51,0.222525,509987,305516
1541.6,0.219220,503936,304197
1545.72,0.214868,494694,301626
1548.8,0.212206,488378,299606
1551.88,0.209077,481832,297727
1554.95,0.206722,474989,295095
1558.02,0.205306,467818,291589
1561.08,0.203453,460730,288399
1564.15,0.202848,454170,284689
1568.22,0.201645,444181,279200
1571.27,0.201211,436947,274927
1574.32,0.200107,429598,270991
1577.36,0.198298,422039,267334
1580.4,0.196791,414375,263392
1583.43,0.195539,406354,259039
1586.46,0.193791,398475,255041
1590.49,0.191712,388982,250160
1593.51,0.189240,380708,246236
1596.53,0.185847,372727,242965
1599.54,0.185297,365060,238269
1602.55,0.183258,357543,234461
1605.55,0.180435,349495,230678
1608.55,0.177911,341154,226485
1612.54,0.175685,330877,220791
1615.53,0.174071,322904,216273
1618.51,0.173012,315116,211572
1621.49,0.170955,307217,207248
1624.47,0.170863,299481,202072
1627.44,0.169409,292112,197761
1630.41,0.167969,284245,193074
1634.36,0.166499,274079,186800
1637.32,0.165381,266916,182387
1640.27,0.165325,259612,177419
1643.22,0.164042,251804,172592
1646.16,0.162180,244348,168201
1649.1,0.162083,236703,162975
1652.04,0.159741,228171,157950
1655.95,0.158205,215408,149643
1658.88,0.154578,204937,143563
1661.8,0.152606,193395,136094
1664.72,0.144990,179728,128714
1667.63,0.135717,163642,119723
1670.54,0.125149,146312,109681
1673.44,0.112686,128451,99095
1677.31,0.100177,105080,83434
1680.21,0.092716,88906,71815
1683.1,0.088153,75033,61249
1685.99,0.095110,63520,51027
1688.87,0.101341,53714,42535
1691.75,0.100737,45653,36202
1694.62,0.116902,39137,29901
1697.49,0.117932,33776,25744
1701.31,0.116699,28175,21536