Folder: textile_sorting_NIRSCAN_/samples/wool/wool-000811 (part 16)

File: Column 1_050539_20150331_115435.csv
Method:,Column 1,,
Host Date-Time:,31/3/15 @ 11:54:35,,
Header Version:,1,,
System Temp (C):,32.06,,
Detector Temp (C):,30.35,,
Humidity (%):,3.22,,
Lamp PD:,3825,,
Shift Vector Coefficients:,-10.5391,0.0761263,-0.000134223,,
Pixel to Wavelength Coefficients:,1775.68,-0.916766,-0.000235065,,
Serial Number:,5510004,,
Scan Config Name:,Column 1,,
Scan Config Type:,Slew,,
Section 1,,
Start wavelength (nm):,900,,
End wavelength (nm):,1700,,
Pattern Pixel Width (nm):,   7.03,,,,
Exposure (ms):,  0.635,,,,
Digital Resolution:,228,,
Num Repeats:,6,,
PGA Gain:,64,,
Total Measurement Time in sec:,  2.670,,
Wavelength (nm),Absorbance (AU),Reference Signal (unitless),Sample Signal (unitless)
901.51,0.044232,108485,97980
905.376,0.047221,121306,108808
909.237,0.051432,131909,117177
913.095,0.052662,143299,126935
916.948,0.050983,156982,139594
922.079,0.049572,179937,160527
925.923,0.052096,200504,177839
929.762,0.050710,222660,198122
933.597,0.052208,244426,216740
937.427,0.052004,263972,234182
941.254,0.052754,281845,249607
945.076,0.052153,297271,263633
950.165,0.052787,315605,279484
953.978,0.052887,328029,290419
957.786,0.052864,340470,301450
961.59,0.053395,352317,311558
965.389,0.053872,363056,320702
969.185,0.053910,373162,329600
972.976,0.054981,382632,337132
976.763,0.055266,391202,344457
981.806,0.056247,400190,351576
985.583,0.056949,406088,356181
989.355,0.057467,410162,359326
993.124,0.057717,412868,361488
996.888,0.058444,414263,362103
1000.65,0.059200,415476,362532
1004.4,0.060285,415479,361630
1009.41,0.061802,414358,359396
1013.15,0.062020,412923,357972
1016.89,0.062956,411526,355993
1020.63,0.062594,409066,354160
1024.36,0.062916,406777,351917
1028.09,0.062179,404427,350478
1031.82,0.061700,401911,348682
1036.78,0.061193,398410,346049
1040.49,0.060847,396204,344407
1044.2,0.060518,394236,342956
1047.91,0.059376,392042,341945
1051.61,0.059202,389823,340146
1055.31,0.058442,388234,339353
1059,0.057250,387599,339729
1063.92,0.056366,386688,339621
1067.61,0.055458,386598,340253
1071.29,0.054833,387377,341429
1074.96,0.054143,388536,342995
1078.63,0.053524,389855,344651
1082.3,0.052601,391215,346589
1085.96,0.052260,393215,348634
1090.84,0.051120,396270,352266
1094.49,0.051380,398760,354268
1098.14,0.050111,400987,357289
1101.79,0.049746,403477,359810
1105.43,0.049781,406116,362134
1109.06,0.049317,407701,363936
1112.7,0.049759,409859,365490
1117.53,0.049480,412494,368076
1121.15,0.050318,414909,369517
1124.77,0.051011,416559,370395
1128.38,0.052658,418532,370741
1131.99,0.054215,419956,370671
1135.6,0.056240,421946,370695
1139.2,0.058266,423881,370662
1143.99,0.061125,426786,370753
1147.58,0.062706,428617,370991
1151.17,0.063486,431169,372530
1154.75,0.065323,433579,373031
1158.33,0.067098,436264,373810
1161.91,0.069747,439132,373980
1165.48,0.073165,442389,373800
1169.04,0.075934,446101,374541
1173.79,0.079473,451929,376355
1177.34,0.082801,456026,376867
1180.9,0.085038,461306,379272
1184.44,0.087000,467657,382761
1187.99,0.087653,473969,387344
1191.52,0.086796,479856,392930
1195.06,0.086865,487372,399021
1199.76,0.085045,497347,408898
1203.29,0.083848,504311,415767
1206.81,0.082777,511507,422741
1210.33,0.081579,519078,430183
1213.84,0.080561,527163,437909
1217.35,0.079274,534208,445078
1220.85,0.078308,540472,451300
1225.51,0.076895,549929,460693
1229.01,0.075897,556888,467596
1232.5,0.075341,562180,472644
1235.98,0.074891,567975,478011
1239.46,0.073552,574815,485262
1242.94,0.072143,582782,493586
1246.41,0.071483,591476,501712
1251.03,0.070701,604016,513272
1254.5,0.071146,612289,519769
1257.96,0.071411,619125,525252
1261.41,0.072065,624551,529058
1264.86,0.072175,629900,533454
1268.31,0.073422,634345,535678
1271.75,0.074334,638574,538118
1276.33,0.074095,642499,541723
1279.76,0.074448,645905,544152
1283.19,0.073814,648307,546974
1286.61,0.073429,650446,549265
1290.03,0.072710,652132,551601
1293.44,0.072298,653907,553628
1296.85,0.072069,655963,555662
1301.39,0.072102,657349,556793
1304.8,0.071650,657558,557550
1308.19,0.072343,658515,557472
1311.58,0.072606,658804,557378
1314.97,0.072991,659011,557059
1318.36,0.073709,658272,555516
1321.73,0.074032,658022,554892
1326.23,0.075257,657870,553201
1329.6,0.076137,656482,550917
1332.97,0.077554,654926,547821
1336.33,0.079397,653727,544502
1339.69,0.080548,652497,542039
1343.04,0.082586,649913,537365
1346.39,0.085249,647671,532238
1349.73,0.087968,645338,527010
1354.18,0.091271,641175,519643
1357.52,0.093585,638376,514626
1360.85,0.096009,635805,509700
1364.17,0.098692,633413,504656
1367.49,0.101102,631026,499971
1370.81,0.104580,628050,493644
1374.12,0.106810,625034,488758
1378.54,0.110876,620272,480514
1381.84,0.114664,616892,473746
1385.14,0.119580,613613,465923
1388.43,0.124705,611526,458891
1391.72,0.130525,610663,452144
1395.01,0.136788,610634,445649
1398.29,0.142617,611700,440475
1402.66,0.151518,614051,433198
1405.93,0.158376,616268,427951
1409.2,0.165244,617795,422280
1412.46,0.170704,618872,417731
1415.72,0.176602,619795,412711
1418.98,0.180997,620495,409017
1422.23,0.185634,621087,405059
1426.56,0.190659,621375,400585
1429.8,0.193420,621616,398201
1433.04,0.196460,622129,395750
1436.27,0.199155,621526,392920
1439.5,0.201445,621113,390594
1442.72,0.204201,620921,388003
1445.94,0.206866,620270,385225
1450.23,0.210364,618860,381266
1453.44,0.213276,617697,378007
1456.64,0.216354,616264,374466
1459.85,0.219009,614413,371066
1463.04,0.221320,612307,367832
1466.24,0.224304,610032,363956
1469.43,0.227261,607345,359894
1473.67,0.232298,603789,353661
1476.85,0.237147,601175,348220
1480.02,0.242999,597737,341595
1483.19,0.249489,594479,334694
1486.36,0.254763,591232,328848
1489.52,0.260015,587853,323038
1492.68,0.264050,583875,317885
1496.89,0.266587,578062,312887
1500.03,0.267211,574159,310328
1503.18,0.268203,570285,307531
1506.32,0.266915,565444,305826
1509.45,0.265383,560571,304262
1512.58,0.264603,555821,302226
1515.71,0.261931,550344,301095
1519.87,0.258959,543983,299658
1522.99,0.256053,538764,298776
1526.1,0.254062,533692,297323
1529.21,0.250013,527902,296852
1532.32,0.247014,521886,295503
1535.42,0.244374,515888,293888
1538.51,0.240484,509987,293140
1541.6,0.237158,503936,291889
1545.72,0.232826,494694,289408
1548.8,0.229353,488378,288007
1551.88,0.226124,481832,286267
1554.95,0.224108,474989,283515
1558.02,0.221663,467818,280811
1561.08,0.220592,460730,277239
1564.15,0.220290,454170,273482
1568.22,0.218939,444181,268300
1571.27,0.217921,436947,264550
1574.32,0.217326,429598,260457
1577.36,0.215306,422039,257067
1580.4,0.213906,414375,253214
1583.43,0.211437,406354,249728
1586.46,0.209355,398475,246063
1590.49,0.206403,388982,241839
1593.51,0.204852,380708,237542
1596.53,0.202442,372727,233856
1599.54,0.200142,365060,230262
1602.55,0.197704,357543,226790
1605.55,0.195662,349495,222730
1608.55,0.192990,341154,218756
1612.54,0.190495,330877,213389
1615.53,0.188244,322904,209329
1618.51,0.186721,315116,204998
1621.49,0.185067,307217,200622
1624.47,0.183863,299481,196113
1627.44,0.181740,292112,192225
1630.41,0.181248,284245,187260
1634.36,0.178781,274079,181591
1637.32,0.177987,266916,177169
1640.27,0.175699,259612,173231
1643.22,0.175077,251804,168262
1646.16,0.175230,244348,163222
1649.1,0.173786,236703,158642
1652.04,0.174222,228171,152770
1655.95,0.171113,215408,145261
1658.88,0.171005,204937,138234
1661.8,0.169565,193395,130882
1664.72,0.166023,179728,122629
1667.63,0.162700,163642,112511
1670.54,0.158489,146312,101576
1673.44,0.154471,128451,90005
1677.31,0.150853,105080,74245
1680.21,0.147335,88906,63328
1683.1,0.151797,75033,52900
1685.99,0.163673,63520,43575
1688.87,0.161417,53714,37040
1691.75,0.167730,45653,31027
1694.62,0.173607,39137,26241
1697.49,0.160824,33776,23323
1701.31,0.181661,28175,18544

File: Column 1_050539_20150331_115441.csv
Method:,Column 1,,
Host Date-Time:,31/3/15 @ 11:54:41,,
Header Version:,1,,
System Temp (C):,32.08,,
Detector Temp (C):,30.35,,
Humidity (%):,3.22,,
Lamp PD:,3825,,
Shift Vector Coefficients:,-10.5391,0.0761263,-0.000134223,,
Pixel to Wavelength Coefficients:,1775.68,-0.916766,-0.000235065,,
Serial Number:,5510004,,
Scan Config Name:,Column 1,,
Scan Config Type:,Slew,,
Section 1,,
Start wavelength (nm):,900,,
End wavelength (nm):,1700,,
Pattern Pixel Width (nm):,   7.03,,,,
Exposure (ms):,  0.635,,,,
Digital Resolution:,228,,
Num Repeats:,6,,
PGA Gain:,64,,
Total Measurement Time in sec:,  2.682,,
Wavelength (nm),Absorbance (AU),Reference Signal (unitless),Sample Signal (unitless)
901.51,0.043617,108485,98119
905.376,0.049101,121306,108338
909.237,0.051225,131909,117233
913.095,0.052788,143299,126898
916.948,0.050358,156982,139795
922.079,0.050735,179937,160098
925.923,0.051440,200504,178108
929.762,0.051831,222660,197611
933.597,0.051418,244426,217135
937.427,0.052387,263972,233976
941.254,0.052707,281845,249634
945.076,0.051955,297271,263753
950.165,0.052701,315605,279539
953.978,0.052765,328029,290501
957.786,0.053022,340470,301340
961.59,0.053572,352317,311431
965.389,0.053841,363056,320725
969.185,0.054406,373162,329224
972.976,0.055386,382632,336818
976.763,0.055236,391202,344481
981.806,0.056277,400190,351552
985.583,0.057143,406088,356022
989.355,0.057648,410162,359176
993.124,0.058096,412868,361173
996.888,0.058542,414263,362021
1000.65,0.059560,415476,362231
1004.4,0.060402,415479,361532
1009.41,0.062545,414358,358782
1013.15,0.062186,412923,357835
1016.89,0.062538,411526,356336
1020.63,0.062365,409066,354347
1024.36,0.062407,406777,352330
1028.09,0.062344,404427,350345
1031.82,0.062205,401911,348277
1036.78,0.061829,398410,345542
1040.49,0.060649,396204,344564
1044.2,0.060177,394236,343225
1047.91,0.060346,392042,341182
1051.61,0.058632,389823,340593
1055.31,0.057934,388234,339750
1059,0.057419,387599,339597
1063.92,0.055872,386688,340008
1067.61,0.055194,386598,340460
1071.29,0.054732,387377,341509
1074.96,0.053941,388536,343155
1078.63,0.053942,389855,344319
1082.3,0.052340,391215,346797
1085.96,0.051458,393215,349279
1090.84,0.051103,396270,352280
1094.49,0.050999,398760,354579
1098.14,0.050199,400987,357216
1101.79,0.050005,403477,359595
1105.43,0.050268,406116,361728
1109.06,0.049255,407701,363988
1112.7,0.049145,409859,366007
1117.53,0.049822,412494,367786
1121.15,0.050317,414909,369518
1124.77,0.051234,416559,370205
1128.38,0.051976,418532,371324
1131.99,0.053682,419956,371126
1135.6,0.056351,421946,370600
1139.2,0.058383,423881,370562
1143.99,0.061422,426786,370500
1147.58,0.062440,428617,371218
1151.17,0.063438,431169,372571
1154.75,0.064949,433579,373353
1158.33,0.067154,436264,373762
1161.91,0.069332,439132,374337
1165.48,0.072654,442389,374240
1169.04,0.075755,446101,374695
1173.79,0.079910,451929,375976
1177.34,0.082535,456026,377098
1180.9,0.084886,461306,379405
1184.44,0.086775,467657,382959
1187.99,0.087710,473969,387293
1191.52,0.087417,479856,392368
1195.06,0.087225,487372,398690
1199.76,0.085280,497347,408676
1203.29,0.083744,504311,415867
1206.81,0.082692,511507,422824
1210.33,0.081690,519078,430073
1213.84,0.080694,527163,437775
1217.35,0.079592,534208,444753
1220.85,0.078161,540472,451453
1225.51,0.077206,549929,460363
1229.01,0.076216,556888,467253
1232.5,0.075338,562180,472648
1235.98,0.074840,567975,478067
1239.46,0.073389,574815,485444
1242.94,0.072327,582782,493377
1246.41,0.071417,591476,501788
1251.03,0.071117,604016,512780
1254.5,0.071257,612289,519636
1257.96,0.071516,619125,525124
1261.41,0.072074,624551,529046
1264.86,0.072555,629900,532987
1268.31,0.073170,634345,535988
1271.75,0.073926,638574,538624
1276.33,0.074499,642499,541220
1279.76,0.074437,645905,544166
1283.19,0.073651,648307,547179
1286.61,0.073201,650446,549554
1290.03,0.073122,652132,551078
1293.44,0.072577,653907,553273
1296.85,0.072051,655963,555684
1301.39,0.071871,657349,557089
1304.8,0.072236,657558,556799
1308.19,0.072357,658515,557453
1311.58,0.072357,658804,557698
1314.97,0.073239,659011,556741
1318.36,0.073743,658272,555472
1321.73,0.074199,658022,554678
1326.23,0.075515,657870,552872
1329.6,0.076153,656482,550896
1332.97,0.077538,654926,547841
1336.33,0.078635,653727,545458
1339.69,0.080550,652497,542036
1343.04,0.082972,649913,536888
1346.39,0.085157,647671,532350
1349.73,0.087568,645338,527496
1354.18,0.091116,641175,519829
1357.52,0.093625,638376,514578
1360.85,0.096125,635805,509564
1364.17,0.098518,633413,504858
1367.49,0.101081,631026,499996
1370.81,0.104048,628050,494249
1374.12,0.106605,625034,488989
1378.54,0.110882,620272,480508
1381.84,0.114846,616892,473547
1385.14,0.119510,613613,465999
1388.43,0.124382,611526,459233
1391.72,0.130465,610663,452206
1395.01,0.136094,610634,446362
1398.29,0.142792,611700,440298
1402.66,0.151559,614051,433157
1405.93,0.158372,616268,427955
1409.2,0.165135,617795,422386
1412.46,0.170786,618872,417652
1415.72,0.176072,619795,413215
1418.98,0.180964,620495,409048
1422.23,0.185133,621087,405527
1426.56,0.190357,621375,400864
1429.8,0.193234,621616,398371
1433.04,0.196036,622129,396136
1436.27,0.198486,621526,393526
1439.5,0.200760,621113,391211
1442.72,0.203403,620921,388717
1445.94,0.206260,620270,385763
1450.23,0.209499,618860,382026
1453.44,0.212470,617697,378709
1456.64,0.216076,616264,374706
1459.85,0.218500,614413,371501
1463.04,0.220613,612307,368431
1466.24,0.224508,610032,363785
1469.43,0.227307,607345,359856
1473.67,0.232546,603789,353459
1476.85,0.237344,601175,348062
1480.02,0.242518,597737,341973
1483.19,0.248798,594479,335227
1486.36,0.254516,591232,329035
1489.52,0.259588,587853,323356
1492.68,0.263703,583875,318139
1496.89,0.266011,578062,313302
1500.03,0.267218,574159,310323
1503.18,0.267537,570285,308003
1506.32,0.266390,565444,306196
1509.45,0.265617,560571,304098
1512.58,0.264300,555821,302437
1515.71,0.262097,550344,300980
1519.87,0.259065,543983,299585
1522.99,0.256104,538764,298741
1526.1,0.253369,533692,297798
1529.21,0.250236,527902,296700
1532.32,0.247339,521886,295282
1535.42,0.243690,515888,294351
1538.51,0.240213,509987,293323
1541.6,0.237400,503936,291726
1545.72,0.232654,494694,289523
1548.8,0.228773,488378,288392
1551.88,0.226085,481832,286293
1554.95,0.223478,474989,283926
1558.02,0.222141,467818,280502
1561.08,0.220594,460730,277238
1564.15,0.220743,454170,273197
1568.22,0.219108,444181,268196
1571.27,0.217606,436947,264742
1574.32,0.216240,429598,261109
1577.36,0.215212,422039,257123
1580.4,0.212777,414375,253873
1583.43,0.211495,406354,249695
1586.46,0.209611,398475,245918
1590.49,0.207102,388982,241450
1593.51,0.204824,380708,237557
1596.53,0.202808,372727,233659
1599.54,0.200757,365060,229936
1602.55,0.198203,357543,226530
1605.55,0.195411,349495,222859
1608.55,0.192967,341154,218768
1612.54,0.190590,330877,213342
1615.53,0.188068,322904,209414
1618.51,0.185936,315116,205369
1621.49,0.185112,307217,200601
1624.47,0.184412,299481,195865
1627.44,0.182167,292112,192036
1630.41,0.181512,284245,187146
1634.36,0.179679,274079,181216
1637.32,0.177472,266916,177379
1640.27,0.177659,259612,172451
1643.22,0.175443,251804,168120
1646.16,0.175366,244348,163171
1649.1,0.174923,236703,158227
1652.04,0.173825,228171,152910
1655.95,0.171436,215408,145153
1658.88,0.170343,204937,138445
1661.8,0.168124,193395,131317
1664.72,0.165400,179728,122805
1667.63,0.162013,163642,112689
1670.54,0.158070,146312,101674
1673.44,0.153266,128451,90255
1677.31,0.149825,105080,74421
1680.21,0.148633,88906,63139
1683.1,0.153219,75033,52727
1685.99,0.158974,63520,44049
1688.87,0.160246,53714,37140
1691.75,0.162346,45653,31414
1694.62,0.168033,39137,26580
1697.49,0.169817,33776,22845
1701.31,0.175337,28175,18816

File: Column 1_050539_20150331_115444.csv
Method:,Column 1,,
Host Date-Time:,31/3/15 @ 11:54:44,,
Header Version:,1,,
System Temp (C):,32.11,,
Detector Temp (C):,30.35,,
Humidity (%):,3.22,,
Lamp PD:,3825,,
Shift Vector Coefficients:,-10.5391,0.0761263,-0.000134223,,
Pixel to Wavelength Coefficients:,1775.68,-0.916766,-0.000235065,,
Serial Number:,5510004,,
Scan Config Name:,Column 1,,
Scan Config Type:,Slew,,
Section 1,,
Start wavelength (nm):,900,,
End wavelength (nm):,1700,,
Pattern Pixel Width (nm):,   7.03,,,,
Exposure (ms):,  0.635,,,,
Digital Resolution:,228,,
Num Repeats:,6,,
PGA Gain:,64,,
Total Measurement Time in sec:,  2.730,,
Wavelength (nm),Absorbance (AU),Reference Signal (unitless),Sample Signal (unitless)
901.51,0.042525,108485,98366
905.376,0.050020,121306,108109
909.237,0.052219,131909,116965
913.095,0.051261,143299,127345
916.948,0.051288,156982,139496
922.079,0.052360,179937,159500
925.923,0.052018,200504,177871
929.762,0.052603,222660,197260
933.597,0.053987,244426,215854
937.427,0.052531,263972,233898
941.254,0.053448,281845,249208
945.076,0.052880,297271,263192
950.165,0.053603,315605,278959
953.978,0.053339,328029,290117
957.786,0.052855,340470,301456
961.59,0.054852,352317,310514
965.389,0.053753,363056,320790
969.185,0.054604,373162,329074
972.976,0.055405,382632,336803
976.763,0.055709,391202,344106
981.806,0.056593,400190,351296
985.583,0.057785,406088,355496
989.355,0.058009,410162,358878
993.124,0.058518,412868,360822
996.888,0.058709,414263,361882
1000.65,0.059442,415476,362330
1004.4,0.060888,415479,361128
1009.41,0.062658,414358,358689
1013.15,0.062343,412923,357706
1016.89,0.063301,411526,355710
1020.63,0.062758,409066,354026
1024.36,0.063117,406777,351754
1028.09,0.062750,404427,350018
1031.82,0.062398,401911,348122
1036.78,0.061501,398410,345803
1040.49,0.061441,396204,343936
1044.2,0.060798,394236,342735
1047.91,0.060632,392042,340958
1051.61,0.059755,389823,339713
1055.31,0.058785,388234,339085
1059,0.058412,387599,338821
1063.92,0.057147,386688,339011
1067.61,0.056197,386598,339674
1071.29,0.055252,387377,341100
1074.96,0.054929,388536,342375
1078.63,0.054160,389855,344146
1082.3,0.053083,391215,346204
1085.96,0.052684,393215,348294
1090.84,0.051335,396270,352092
1094.49,0.051492,398760,354176
1098.14,0.051371,400987,356254
1101.79,0.050757,403477,358973
1105.43,0.050305,406116,361697
1109.06,0.050113,407701,363269
1112.7,0.049942,409859,365336
1117.53,0.050019,412494,367620
1121.15,0.051007,414909,368932
1124.77,0.051254,416559,370188
1128.38,0.052645,418532,370752
1131.99,0.054573,419956,370366
1135.6,0.056836,421946,370187
1139.2,0.058565,423881,370407
1143.99,0.061331,426786,370578
1147.58,0.062977,428617,370760
1151.17,0.064173,431169,371941
1154.75,0.065757,433579,372659
1158.33,0.067683,436264,373307
1161.91,0.070131,439132,373649
1165.48,0.072897,442389,374031
1169.04,0.075972,446101,374508
1173.79,0.080564,451929,375410
1177.34,0.082965,456026,376725
1180.9,0.085361,461306,378990
1184.44,0.087594,467657,382238
1187.99,0.088284,473969,386782
1191.52,0.087638,479856,392169
1195.06,0.086617,487372,399249
1199.76,0.085851,497347,408139
1203.29,0.084175,504311,415454
1206.81,0.083624,511507,421918
1210.33,0.081807,519078,429958
1213.84,0.080786,527163,437682
1217.35,0.079757,534208,444584
1220.85,0.078775,540472,450815
1225.51,0.077688,549929,459853
1229.01,0.076427,556888,467026
1232.5,0.076066,562180,471856
1235.98,0.074787,567975,478126
1239.46,0.073794,574815,484991
1242.94,0.072464,582782,493222
1246.41,0.071837,591476,501303
1251.03,0.071461,604016,512375
1254.5,0.071395,612289,519471
1257.96,0.071616,619125,525004
1261.41,0.072276,624551,528800
1264.86,0.073166,629900,532238
1268.31,0.073468,634345,535621
1271.75,0.074292,638574,538170
1276.33,0.074769,642499,540883
1279.76,0.074634,645905,543919
1283.19,0.074043,648307,546686
1286.61,0.073513,650446,549159
1290.03,0.072921,652132,551334
1293.44,0.072456,653907,553426
1296.85,0.072429,655963,555201
1301.39,0.072233,657349,556625
1304.8,0.072702,657558,556202
1308.19,0.072704,658515,557008
1311.58,0.072781,658804,557154
1314.97,0.073552,659011,556341
1318.36,0.074362,658272,554681
1321.73,0.074764,658022,553957
1326.23,0.075879,657870,552410
1329.6,0.076786,656482,550094
1332.97,0.078025,654926,547227
1336.33,0.079133,653727,544833
1339.69,0.081224,652497,541196
1343.04,0.082971,649913,536889
1346.39,0.085613,647671,531791
1349.73,0.088028,645338,526938
1354.18,0.091516,641175,519351
1357.52,0.094155,638376,513951
1360.85,0.096271,635805,509393
1364.17,0.099123,633413,504155
1367.49,0.101294,631026,499751
1370.81,0.104342,628050,493915
1374.12,0.107033,625034,488507
1378.54,0.110873,620272,480517
1381.84,0.114969,616892,473413
1385.14,0.120153,613613,465309
1388.43,0.125012,611526,458567
1391.72,0.130584,610663,452082
1395.01,0.136247,610634,446205
1398.29,0.143133,611700,439952
1402.66,0.151777,614051,432940
1405.93,0.158611,616268,427719
1409.2,0.165213,617795,422310
1412.46,0.171078,618872,417372
1415.72,0.177150,619795,412191
1418.98,0.181446,620495,408594
1422.23,0.185521,621087,405165
1426.56,0.190647,621375,400596
1429.8,0.193571,621616,398062
1433.04,0.196653,622129,395574
1436.27,0.198899,621526,393152
1439.5,0.201219,621113,390797
1442.72,0.203990,620921,388192
1445.94,0.206108,620270,385898
1450.23,0.210217,618860,381395
1453.44,0.213016,617697,378233
1456.64,0.216300,616264,374513
1459.85,0.218393,614413,371593
1463.04,0.221758,612307,367461
1466.24,0.224060,610032,364160
1469.43,0.227397,607345,359781
1473.67,0.232782,603789,353267
1476.85,0.237510,601175,347929
1480.02,0.243264,597737,341386
1483.19,0.249099,594479,334994
1486.36,0.255154,591232,328552
1489.52,0.259846,587853,323164
1492.68,0.263927,583875,317975
1496.89,0.266165,578062,313191
1500.03,0.267326,574159,310246
1503.18,0.267881,570285,307759
1506.32,0.266786,565444,305917
1509.45,0.265748,560571,304006
1512.58,0.264537,555821,302272
1515.71,0.262271,550344,300859
1519.87,0.259113,543983,299552
1522.99,0.255754,538764,298982
1526.1,0.253893,533692,297439
1529.21,0.251138,527902,296084
1532.32,0.247668,521886,295058
1535.42,0.244896,515888,293535
1538.51,0.241031,509987,292771
1541.6,0.237641,503936,291564
1545.72,0.232708,494694,289487
1548.8,0.229371,488378,287995
1551.88,0.226469,481832,286040
1554.95,0.224504,474989,283256
1558.02,0.221238,467818,281086
1561.08,0.221022,460730,276965
1564.15,0.220240,454170,273513
1568.22,0.218921,444181,268311
1571.27,0.218333,436947,264299
1574.32,0.217710,429598,260227
1577.36,0.215517,422039,256942
1580.4,0.213469,414375,253469
1583.43,0.211613,406354,249627
1586.46,0.209839,398475,245789
1590.49,0.207358,388982,241308
1593.51,0.205877,380708,236982
1596.53,0.202747,372727,233692
1599.54,0.199936,365060,230371
1602.55,0.198527,357543,226361
1605.55,0.195713,349495,222704
1608.55,0.193280,341154,218610
1612.54,0.190021,330877,213622
1615.53,0.188364,322904,209271
1618.51,0.187522,315116,204620
1621.49,0.185166,307217,200576
1624.47,0.184204,299481,195959
1627.44,0.182479,292112,191898
1630.41,0.180826,284245,187442
1634.36,0.179356,274079,181351
1637.32,0.178951,266916,176776
1640.27,0.179231,259612,171828
1643.22,0.176693,251804,167637
1646.16,0.175589,244348,163087
1649.1,0.174756,236703,158288
1652.04,0.174171,228171,152788
1655.95,0.171612,215408,145094
1658.88,0.170776,204937,138307
1661.8,0.169094,193395,131024
1664.72,0.166263,179728,122561
1667.63,0.163693,163642,112254
1670.54,0.157596,146312,101785
1673.44,0.153897,128451,90124
1677.31,0.148229,105080,74695
1680.21,0.146965,88906,63382
1683.1,0.154969,75033,52515
1685.99,0.160337,63520,43911
1688.87,0.166298,53714,36626
1691.75,0.167660,45653,31032
1694.62,0.168016,39137,26581
1697.49,0.172143,33776,22723
1701.31,0.171819,28175,18969