Folder: textile_sorting_NIRSCAN_/samples/wool/wool-000811 (part 84)

File: Column 1_050576_20150331_121214.csv
Method:,Column 1,,
Host Date-Time:,31/3/15 @ 12:12:14,,
Header Version:,1,,
System Temp (C):,33.84,,
Detector Temp (C):,34.57,,
Humidity (%):,2.74,,
Lamp PD:,3819,,
Shift Vector Coefficients:,-10.5391,0.0761263,-0.000134223,,
Pixel to Wavelength Coefficients:,1775.68,-0.916766,-0.000235065,,
Serial Number:,5510004,,
Scan Config Name:,Column 1,,
Scan Config Type:,Slew,,
Section 1,,
Start wavelength (nm):,900,,
End wavelength (nm):,1700,,
Pattern Pixel Width (nm):,   7.03,,,,
Exposure (ms):,  0.635,,,,
Digital Resolution:,228,,
Num Repeats:,6,,
PGA Gain:,64,,
Total Measurement Time in sec:,  2.678,,
Wavelength (nm),Absorbance (AU),Reference Signal (unitless),Sample Signal (unitless)
901.51,0.072234,108485,91862
905.376,0.079118,121306,101103
909.237,0.081400,131909,109364
913.095,0.082023,143299,118637
916.948,0.083134,156982,129633
922.079,0.082690,179937,148741
925.923,0.085290,200504,164753
929.762,0.085704,222660,182784
933.597,0.085695,244426,200656
937.427,0.084143,263972,217478
941.254,0.083791,281845,232391
945.076,0.083473,297271,245290
950.165,0.081501,315605,261603
953.978,0.081608,328029,271834
957.786,0.081250,340470,282377
961.59,0.081445,352317,292071
965.389,0.082053,363056,300553
969.185,0.081614,373162,309231
972.976,0.081533,382632,317138
976.763,0.082418,391202,323581
981.806,0.083272,400190,330365
985.583,0.083626,406088,334961
989.355,0.084032,410162,338005
993.124,0.084222,412868,340086
996.888,0.084835,414263,340754
1000.65,0.085811,415476,340985
1004.4,0.086868,415479,340158
1009.41,0.088836,414358,337707
1013.15,0.088493,412923,336803
1016.89,0.088747,411526,335467
1020.63,0.088754,409066,333457
1024.36,0.088712,406777,331623
1028.09,0.088990,404427,329496
1031.82,0.088896,401911,327517
1036.78,0.088148,398410,325224
1040.49,0.088296,396204,323313
1044.2,0.087869,394236,322023
1047.91,0.087926,392042,320189
1051.61,0.087533,389823,318665
1055.31,0.086709,388234,317969
1059,0.086725,387599,317437
1063.92,0.085542,386688,317555
1067.61,0.085620,386598,317424
1071.29,0.084430,387377,318936
1074.96,0.084903,388536,319542
1078.63,0.083599,389855,321591
1082.3,0.082731,391215,323359
1085.96,0.082317,393215,325322
1090.84,0.081377,396270,328560
1094.49,0.081346,398760,330648
1098.14,0.080279,400987,333312
1101.79,0.079688,403477,335839
1105.43,0.079636,406116,338076
1109.06,0.079017,407701,339879
1112.7,0.079264,409859,341484
1117.53,0.078351,412494,344403
1121.15,0.079084,414909,345835
1124.77,0.079178,416559,347135
1128.38,0.080398,418532,347801
1131.99,0.080804,419956,348658
1135.6,0.083099,421946,348464
1139.2,0.084531,423881,348910
1143.99,0.086048,426786,350076
1147.58,0.086866,428617,350916
1151.17,0.087787,431169,352258
1154.75,0.088534,433579,353618
1158.33,0.090626,436264,354098
1161.91,0.092478,439132,354909
1165.48,0.094847,442389,355596
1169.04,0.096806,446101,356966
1173.79,0.100349,451929,358692
1177.34,0.102041,456026,360536
1180.9,0.104363,461306,362766
1184.44,0.106005,467657,366372
1187.99,0.107195,473969,370301
1191.52,0.106894,479856,375160
1195.06,0.107141,487372,380820
1199.76,0.106082,497347,389563
1203.29,0.105839,504311,395239
1206.81,0.104659,511507,401969
1210.33,0.104141,519078,408406
1213.84,0.103623,527163,415262
1217.35,0.103269,534208,421154
1220.85,0.102546,540472,426803
1225.51,0.102338,549929,434479
1229.01,0.101501,556888,440826
1232.5,0.100731,562180,445804
1235.98,0.100333,567975,450813
1239.46,0.099247,574815,457384
1242.94,0.098518,582782,464503
1246.41,0.097465,591476,472576
1251.03,0.097617,604016,482427
1254.5,0.097515,612289,489149
1257.96,0.097963,619125,494100
1261.41,0.098611,624551,497688
1264.86,0.098864,629900,501658
1268.31,0.099561,634345,504388
1271.75,0.100479,638574,506678
1276.33,0.100559,642499,509699
1279.76,0.100689,645905,512247
1283.19,0.100280,648307,514637
1286.61,0.099736,650446,516982
1290.03,0.099259,652132,518892
1293.44,0.098893,653907,520743
1296.85,0.098505,655963,522847
1301.39,0.098261,657349,524246
1304.8,0.098394,657558,524252
1308.19,0.098706,658515,524638
1311.58,0.099066,658804,524433
1314.97,0.099672,659011,523866
1318.36,0.099817,658272,523104
1321.73,0.100253,658022,522381
1326.23,0.101573,657870,520675
1329.6,0.102367,656482,518628
1332.97,0.103494,654926,516058
1336.33,0.104896,653727,513453
1339.69,0.106570,652497,510515
1343.04,0.108032,649913,506784
1346.39,0.110198,647671,502524
1349.73,0.112312,645338,498282
1354.18,0.115335,641175,491634
1357.52,0.117034,638376,487576
1360.85,0.119178,635805,483221
1364.17,0.121246,633413,479116
1367.49,0.123380,631026,474971
1370.81,0.125826,628050,470076
1374.12,0.127948,625034,465539
1378.54,0.130927,620272,458834
1381.84,0.134775,616892,452308
1385.14,0.138357,613613,446208
1388.43,0.143461,611526,439495
1391.72,0.148352,610663,433960
1395.01,0.153202,610634,429120
1398.29,0.158686,611700,424475
1402.66,0.166939,614051,418086
1405.93,0.172949,616268,413829
1409.2,0.179133,617795,408989
1412.46,0.184610,618872,404567
1415.72,0.189376,619795,400749
1418.98,0.193762,620495,397170
1422.23,0.198008,621087,393681
1426.56,0.202450,621375,389856
1429.8,0.205682,621616,387115
1433.04,0.208489,622129,384939
1436.27,0.210041,621526,383194
1439.5,0.212617,621113,380674
1442.72,0.214687,620921,378747
1445.94,0.217186,620270,376179
1450.23,0.220607,618860,372379
1453.44,0.223588,617697,369137
1456.64,0.225388,616264,366757
1459.85,0.228196,614413,363299
1463.04,0.230851,612307,359847
1466.24,0.233525,610032,356310
1469.43,0.235956,607345,352760
1473.67,0.241063,603789,346595
1476.85,0.244972,601175,342002
1480.02,0.249910,597737,336202
1483.19,0.254861,594479,330579
1486.36,0.259710,591232,325123
1489.52,0.263645,587853,320349
1492.68,0.266436,583875,316143
1496.89,0.267992,578062,311876
1500.03,0.268957,574159,309083
1503.18,0.269044,570285,306936
1506.32,0.267808,565444,305198
1509.45,0.266385,560571,303561
1512.58,0.264694,555821,302163
1515.71,0.262975,550344,300372
1519.87,0.260020,543983,298927
1522.99,0.257691,538764,297651
1526.1,0.255212,533692,296537
1529.21,0.252873,527902,294904
1532.32,0.249871,521886,293565
1535.42,0.247244,515888,291952
1538.51,0.244356,509987,290538
1541.6,0.241353,503936,289083
1545.72,0.237392,494694,286381
1548.8,0.234347,488378,284714
1551.88,0.232603,481832,282028
1554.95,0.230264,474989,279524
1558.02,0.229250,467818,275948
1561.08,0.227200,460730,273053
1564.15,0.226222,454170,269772
1568.22,0.225441,444181,264313
1571.27,0.224076,436947,260827
1574.32,0.223373,429598,256856
1577.36,0.222515,422039,252835
1580.4,0.220626,414375,249326
1583.43,0.218740,406354,245564
1586.46,0.217669,398475,241397
1590.49,0.215647,388982,236746
1593.51,0.213628,380708,232790
1596.53,0.211089,372727,229246
1599.54,0.210773,365060,224694
1602.55,0.208321,357543,221313
1605.55,0.205527,349495,217728
1608.55,0.203422,341154,213564
1612.54,0.201758,330877,207926
1615.53,0.199905,322904,203783
1618.51,0.198419,315116,199550
1621.49,0.198017,307217,194728
1624.47,0.196698,299481,190402
1627.44,0.194575,292112,186627
1630.41,0.194140,284245,181783
1634.36,0.192590,274079,175908
1637.32,0.192455,266916,171364
1640.27,0.191242,259612,167141
1643.22,0.189224,251804,162869
1646.16,0.188849,244348,158183
1649.1,0.188361,236703,153406
1652.04,0.186718,228171,148437
1655.95,0.184625,215408,140811
1658.88,0.180727,204937,135174
1661.8,0.174931,193395,129275
1664.72,0.166675,179728,122445
1667.63,0.155776,163642,114319
1670.54,0.141748,146312,105568
1673.44,0.125084,128451,96306
1677.31,0.107489,105080,82041
1680.21,0.095708,88906,71322
1683.1,0.091242,75033,60815
1685.99,0.090000,63520,51631
1688.87,0.094342,53714,43226
1691.75,0.100749,45653,36201
1694.62,0.110071,39137,30375
1697.49,0.116467,33776,25831
1701.31,0.121505,28175,21299

File: Column 1_050576_20150331_121217.csv
Method:,Column 1,,
Host Date-Time:,31/3/15 @ 12:12:17,,
Header Version:,1,,
System Temp (C):,33.79,,
Detector Temp (C):,34.62,,
Humidity (%):,2.69,,
Lamp PD:,3819,,
Shift Vector Coefficients:,-10.5391,0.0761263,-0.000134223,,
Pixel to Wavelength Coefficients:,1775.68,-0.916766,-0.000235065,,
Serial Number:,5510004,,
Scan Config Name:,Column 1,,
Scan Config Type:,Slew,,
Section 1,,
Start wavelength (nm):,900,,
End wavelength (nm):,1700,,
Pattern Pixel Width (nm):,   7.03,,,,
Exposure (ms):,  0.635,,,,
Digital Resolution:,228,,
Num Repeats:,6,,
PGA Gain:,64,,
Total Measurement Time in sec:,  2.678,,
Wavelength (nm),Absorbance (AU),Reference Signal (unitless),Sample Signal (unitless)
901.51,0.072276,108485,91853
905.376,0.079007,121306,101129
909.237,0.080012,131909,109714
913.095,0.080817,143299,118967
916.948,0.082187,156982,129916
922.079,0.083087,179937,148605
925.923,0.084313,200504,165124
929.762,0.084729,222660,183195
933.597,0.084684,244426,201124
937.427,0.084498,263972,217300
941.254,0.083352,281845,232626
945.076,0.082359,297271,245920
950.165,0.081843,315605,261397
953.978,0.081278,328029,272041
957.786,0.081390,340470,282286
961.59,0.081628,352317,291948
965.389,0.081093,363056,301218
969.185,0.082186,373162,308824
972.976,0.081849,382632,316907
976.763,0.082210,391202,323736
981.806,0.083226,400190,330400
985.583,0.083695,406088,334908
989.355,0.084566,410162,337590
993.124,0.083823,412868,340399
996.888,0.084738,414263,340830
1000.65,0.085252,415476,341424
1004.4,0.086511,415479,340438
1009.41,0.087807,414358,338508
1013.15,0.088716,412923,336630
1016.89,0.089349,411526,335003
1020.63,0.088759,409066,333453
1024.36,0.088549,406777,331747
1028.09,0.088670,404427,329739
1031.82,0.088347,401911,327931
1036.78,0.087835,398410,325458
1040.49,0.087951,396204,323570
1044.2,0.087376,394236,322389
1047.91,0.087419,392042,320563
1051.61,0.087938,389823,318368
1055.31,0.086888,388234,317838
1059,0.086061,387599,317923
1063.92,0.086167,386688,317098
1067.61,0.085367,386598,317609
1071.29,0.085365,387377,318250
1074.96,0.083918,388536,320268
1078.63,0.083900,389855,321368
1082.3,0.082573,391215,323476
1085.96,0.082154,393215,325444
1090.84,0.081547,396270,328431
1094.49,0.080790,398760,331071
1098.14,0.080541,400987,333111
1101.79,0.079839,403477,335722
1105.43,0.079428,406116,338238
1109.06,0.079322,407701,339641
1112.7,0.079002,409859,341690
1117.53,0.078014,412494,344670
1121.15,0.079031,414909,345877
1124.77,0.079307,416559,347032
1128.38,0.079808,418532,348274
1131.99,0.081321,419956,348243
1135.6,0.082368,421946,349051
1139.2,0.084248,423881,349137
1143.99,0.086100,426786,350034
1147.58,0.086812,428617,350960
1151.17,0.088141,431169,351971
1154.75,0.089572,433579,352774
1158.33,0.090752,436264,353995
1161.91,0.092264,439132,355084
1165.48,0.094940,442389,355520
1169.04,0.096203,446101,357462
1173.79,0.099687,451929,359239
1177.34,0.102198,456026,360406
1180.9,0.104281,461306,362834
1184.44,0.105955,467657,366414
1187.99,0.106385,473969,370992
1191.52,0.106967,479856,375097
1195.06,0.106418,487372,381454
1199.76,0.106006,497347,389631
1203.29,0.105484,504311,395562
1206.81,0.105014,511507,401641
1210.33,0.103841,519078,408688
1213.84,0.103651,527163,415235
1217.35,0.103180,534208,421241
1220.85,0.102001,540472,427339
1225.51,0.101805,549929,435012
1229.01,0.100950,556888,441385
1232.5,0.100894,562180,445637
1235.98,0.099589,567975,451586
1239.46,0.098823,574815,457831
1242.94,0.098299,582782,464737
1246.41,0.097300,591476,472756
1251.03,0.097471,604016,482589
1254.5,0.097815,612289,488812
1257.96,0.097884,619125,494191
1261.41,0.098508,624551,497806
1264.86,0.099053,629900,501440
1268.31,0.099492,634345,504468
1271.75,0.100236,638574,506962
1276.33,0.100320,642499,509979
1279.76,0.100235,645905,512783
1283.19,0.099689,648307,515337
1286.61,0.099651,650446,517083
1290.03,0.099330,652132,518807
1293.44,0.098958,653907,520665
1296.85,0.098420,655963,522949
1301.39,0.098250,657349,524259
1304.8,0.098118,657558,524585
1308.19,0.098506,658515,524880
1311.58,0.098894,658804,524641
1314.97,0.098878,659011,524825
1318.36,0.099693,658272,523254
1321.73,0.100437,658022,522160
1326.23,0.101493,657870,520771
1329.6,0.102291,656482,518719
1332.97,0.103132,654926,516488
1336.33,0.104372,653727,514073
1339.69,0.106157,652497,511001
1343.04,0.108008,649913,506812
1346.39,0.110312,647671,502392
1349.73,0.112551,645338,498008
1354.18,0.115054,641175,491952
1357.52,0.117031,638376,487580
1360.85,0.119078,635805,483332
1364.17,0.120724,633413,479692
1367.49,0.123261,631026,475101
1370.81,0.125439,628050,470495
1374.12,0.127771,625034,465728
1378.54,0.131117,620272,458633
1381.84,0.134560,616892,452532
1385.14,0.138904,613613,445647
1388.43,0.142967,611526,439995
1391.72,0.148083,610663,434229
1395.01,0.152911,610634,429408
1398.29,0.158935,611700,424232
1402.66,0.166507,614051,418502
1405.93,0.173126,616268,413660
1409.2,0.178983,617795,409130
1412.46,0.184353,618872,404807
1415.72,0.189196,619795,400915
1418.98,0.193584,620495,397333
1422.23,0.197609,621087,394043
1426.56,0.202130,621375,390143
1429.8,0.204506,621616,388165
1433.04,0.207672,622129,385663
1436.27,0.209969,621526,383257
1439.5,0.211910,621113,381295
1442.72,0.214833,620921,378620
1445.94,0.217210,620270,376158
1450.23,0.219799,618860,373073
1453.44,0.222798,617697,369809
1456.64,0.225693,616264,366500
1459.85,0.227661,614413,363747
1463.04,0.230576,612307,360075
1466.24,0.232947,610032,356784
1469.43,0.236026,607345,352703
1473.67,0.240509,603789,347037
1476.85,0.244652,601175,342254
1480.02,0.249636,597737,336414
1483.19,0.254821,594479,330610
1486.36,0.259960,591232,324936
1489.52,0.264016,587853,320076
1492.68,0.265581,583875,316766
1496.89,0.267625,578062,312140
1500.03,0.268796,574159,309198
1503.18,0.267897,570285,307748
1506.32,0.267037,565444,305740
1509.45,0.266286,560571,303630
1512.58,0.265488,555821,301611
1515.71,0.263077,550344,300301
1519.87,0.260333,543983,298712
1522.99,0.258266,538764,297257
1526.1,0.255684,533692,296215
1529.21,0.252496,527902,295160
1532.32,0.249735,521886,293657
1535.42,0.247083,515888,292060
1538.51,0.244189,509987,290650
1541.6,0.241695,503936,288855
1545.72,0.237770,494694,286132
1548.8,0.234097,488378,284878
1551.88,0.231933,481832,282464
1554.95,0.230047,474989,279664
1558.02,0.228467,467818,276446
1561.08,0.226789,460730,273311
1564.15,0.226062,454170,269871
1568.22,0.224878,444181,264656
1571.27,0.224880,436947,260345
1574.32,0.223078,429598,257030
1577.36,0.221915,422039,253185
1580.4,0.220870,414375,249186
1583.43,0.219522,406354,245122
1586.46,0.217711,398475,241374
1590.49,0.215044,388982,237075
1593.51,0.213106,380708,233070
1596.53,0.211442,372727,229060
1599.54,0.209653,365060,225274
1602.55,0.207845,357543,221556
1605.55,0.206100,349495,217441
1608.55,0.204049,341154,213256
1612.54,0.200808,330877,208381
1615.53,0.198920,322904,204246
1618.51,0.198767,315116,199390
1621.49,0.197393,307217,195008
1624.47,0.196000,299481,190708
1627.44,0.195472,292112,186242
1630.41,0.193352,284245,182113
1634.36,0.192415,274079,175979
1637.32,0.191984,266916,171550
1640.27,0.189926,259612,167648
1643.22,0.190490,251804,162395
1646.16,0.188898,244348,158165
1649.1,0.187866,236703,153581
1652.04,0.186870,228171,148385
1655.95,0.183790,215408,141082
1658.88,0.180814,204937,135147
1661.8,0.174494,193395,129405
1664.72,0.167410,179728,122238
1667.63,0.155055,163642,114509
1670.54,0.141262,146312,105686
1673.44,0.124557,128451,96423
1677.31,0.104882,105080,82535
1680.21,0.094959,88906,71445
1683.1,0.086921,75033,61423
1685.99,0.089067,63520,51742
1688.87,0.095540,53714,43107
1691.75,0.098702,45653,36372
1694.62,0.105619,39137,30688
1697.49,0.106675,33776,26420
1701.31,0.114727,28175,21634

File: Column 1_050576_20150331_121220.csv
Method:,Column 1,,
Host Date-Time:,31/3/15 @ 12:12:20,,
Header Version:,1,,
System Temp (C):,33.82,,
Detector Temp (C):,34.62,,
Humidity (%):,2.64,,
Lamp PD:,3819,,
Shift Vector Coefficients:,-10.5391,0.0761263,-0.000134223,,
Pixel to Wavelength Coefficients:,1775.68,-0.916766,-0.000235065,,
Serial Number:,5510004,,
Scan Config Name:,Column 1,,
Scan Config Type:,Slew,,
Section 1,,
Start wavelength (nm):,900,,
End wavelength (nm):,1700,,
Pattern Pixel Width (nm):,   7.03,,,,
Exposure (ms):,  0.635,,,,
Digital Resolution:,228,,
Num Repeats:,6,,
PGA Gain:,64,,
Total Measurement Time in sec:,  2.674,,
Wavelength (nm),Absorbance (AU),Reference Signal (unitless),Sample Signal (unitless)
901.51,0.072224,108485,91864
905.376,0.077228,121306,101544
909.237,0.079704,131909,109792
913.095,0.081149,143299,118876
916.948,0.081756,156982,130045
922.079,0.081771,179937,149056
925.923,0.083194,200504,165550
929.762,0.085151,222660,183017
933.597,0.085051,244426,200954
937.427,0.083985,263972,217557
941.254,0.083453,281845,232572
945.076,0.081940,297271,246157
950.165,0.081033,315605,261885
953.978,0.080280,328029,272667
957.786,0.080950,340470,282572
961.59,0.081182,352317,292248
965.389,0.081595,363056,300870
969.185,0.081022,373162,309653
972.976,0.082432,382632,316482
976.763,0.082617,391202,323433
981.806,0.082566,400190,330903
985.583,0.083196,406088,335293
989.355,0.083499,410162,338420
993.124,0.084318,412868,340011
996.888,0.084434,414263,341069
1000.65,0.085308,415476,341380
1004.4,0.086182,415479,340696
1009.41,0.087771,414358,338536
1013.15,0.088707,412923,336637
1016.89,0.088746,411526,335468
1020.63,0.088755,409066,333456
1024.36,0.088460,406777,331815
1028.09,0.088229,404427,330074
1031.82,0.088461,401911,327845
1036.78,0.087754,398410,325519
1040.49,0.088298,396204,323311
1044.2,0.087726,394236,322129
1047.91,0.087175,392042,320743
1051.61,0.086432,389823,319474
1055.31,0.085931,388234,318539
1059,0.086077,387599,317911
1063.92,0.086115,386688,317136
1067.61,0.084924,386598,317933
1071.29,0.084075,387377,319197
1074.96,0.083790,388536,320362
1078.63,0.083922,389855,321352
1082.3,0.082911,391215,323225
1085.96,0.081915,393215,325623
1090.84,0.080848,396270,328960
1094.49,0.080038,398760,331645
1098.14,0.080331,400987,333272
1101.79,0.079509,403477,335977
1105.43,0.079538,406116,338152
1109.06,0.078850,407701,340010
1112.7,0.078046,409859,342443
1117.53,0.077290,412494,345245
1121.15,0.078850,414909,346021
1124.77,0.078158,416559,347951
1128.38,0.079890,418532,348208
1131.99,0.080407,419956,348977
1135.6,0.082142,421946,349233
1139.2,0.083567,423881,349685
1143.99,0.085448,426786,350560
1147.58,0.086620,428617,351115
1151.17,0.087996,431169,352088
1154.75,0.088804,433579,353398
1158.33,0.090071,436264,354551
1161.91,0.092054,439132,355256
1165.48,0.094717,442389,355703
1169.04,0.096609,446101,357128
1173.79,0.099733,451929,359201
1177.34,0.102222,456026,360386
1180.9,0.103895,461306,363157
1184.44,0.105569,467657,366740
1187.99,0.106217,473969,371136
1191.52,0.106328,479856,375650
1195.06,0.106416,487372,381456
1199.76,0.105372,497347,390200
1203.29,0.105292,504311,395737
1206.81,0.104798,511507,401840
1210.33,0.104029,519078,408511
1213.84,0.103478,527163,415400
1217.35,0.102878,534208,421534
1220.85,0.102643,540472,426707
1225.51,0.101720,549929,435098
1229.01,0.100958,556888,441377
1232.5,0.100019,562180,446536
1235.98,0.100044,567975,451113
1239.46,0.098961,574815,457685
1242.94,0.097753,582782,465321
1246.41,0.096819,591476,473280
1251.03,0.096777,604016,483361
1254.5,0.097540,612289,489121
1257.96,0.097847,619125,494233
1261.41,0.098164,624551,498200
1264.86,0.098782,629900,501753
1268.31,0.098820,634345,505249
1271.75,0.099914,638574,507338
1276.33,0.100474,642499,509798
1279.76,0.099919,645905,513156
1283.19,0.099517,648307,515542
1286.61,0.099542,650446,517213
1290.03,0.098926,652132,519290
1293.44,0.098601,653907,521093
1296.85,0.098359,655963,523022
1301.39,0.097955,657349,524615
1304.8,0.098355,657558,524299
1308.19,0.098391,658515,525019
1311.58,0.098486,658804,525134
1314.97,0.099116,659011,524538
1318.36,0.099665,658272,523288
1321.73,0.100037,658022,522641
1326.23,0.101027,657870,521331
1329.6,0.101689,656482,519438
1332.97,0.103569,654926,515969
1336.33,0.104288,653727,514172
1339.69,0.106067,652497,511107
1343.04,0.107942,649913,506890
1346.39,0.109674,647671,503130
1349.73,0.111688,645338,498999
1354.18,0.114673,641175,492384
1357.52,0.117077,638376,487528
1360.85,0.118747,635805,483701
1364.17,0.120787,633413,479623
1367.49,0.122783,631026,475625
1370.81,0.125211,628050,470742
1374.12,0.127809,625034,465688
1378.54,0.130857,620272,458908
1381.84,0.133969,616892,453148
1385.14,0.138360,613613,446205
1388.43,0.142600,611526,440367
1391.72,0.148069,610663,434243
1395.01,0.152949,610634,429370
1398.29,0.158979,611700,424189
1402.66,0.166334,614051,418669
1405.93,0.172692,616268,414074
1409.2,0.178649,617795,409445
1412.46,0.184062,618872,405078
1415.72,0.188797,619795,401283
1418.98,0.193314,620495,397580
1422.23,0.197181,621087,394431
1426.56,0.201745,621375,390489
1429.8,0.204945,621616,387773
1433.04,0.207883,622129,385476
1436.27,0.209580,621526,383601
1439.5,0.212095,621113,381132
1442.72,0.213944,620921,379396
1445.94,0.216430,620270,376835
1450.23,0.219667,618860,373186
1453.44,0.222384,617697,370162
1456.64,0.224592,616264,367430
1459.85,0.227249,614413,364092
1463.04,0.230199,612307,360388
1466.24,0.232956,610032,356777
1469.43,0.235524,607345,353111
1473.67,0.240189,603789,347293
1476.85,0.245272,601175,341766
1480.02,0.249134,597737,336803
1483.19,0.254616,594479,330766
1486.36,0.259074,591232,325600
1489.52,0.263075,587853,320770
1492.68,0.266726,583875,315932
1496.89,0.267685,578062,312097
1500.03,0.268398,574159,309481
1503.18,0.268302,570285,307461
1506.32,0.267296,565444,305558
1509.45,0.265941,560571,303871
1512.58,0.264017,555821,302634
1515.71,0.262475,550344,300718
1519.87,0.259437,543983,299329
1522.99,0.257293,538764,297924
1526.1,0.254983,533692,296693
1529.21,0.252465,527902,295181
1532.32,0.249320,521886,293938
1535.42,0.246633,515888,292363
1538.51,0.243278,509987,291260
1541.6,0.240461,503936,289677
1545.72,0.236923,494694,286691
1548.8,0.234234,488378,284788
1551.88,0.231668,481832,282636
1554.95,0.229746,474989,279858
1558.02,0.227470,467818,277081
1561.08,0.226070,460730,273764
1564.15,0.225903,454170,269970
1568.22,0.224550,444181,264856
1571.27,0.223865,436947,260954
1574.32,0.222514,429598,257364
1577.36,0.221652,422039,253338
1580.4,0.219857,414375,249768
1583.43,0.218400,406354,245756
1586.46,0.216984,398475,241778
1590.49,0.214460,388982,237394
1593.51,0.213583,380708,232814
1596.53,0.210387,372727,229617
1599.54,0.209819,365060,225188
1602.55,0.207167,357543,221902
1605.55,0.205375,349495,217804
1608.55,0.203518,341154,213517
1612.54,0.200821,330877,208375
1615.53,0.198965,322904,204225
1618.51,0.196954,315116,200224
1621.49,0.195726,307217,195758
1624.47,0.195072,299481,191116
1627.44,0.194210,292112,186784
1630.41,0.193054,284245,182238
1634.36,0.192644,274079,175886
1637.32,0.190927,266916,171968
1640.27,0.190007,259612,167617
1643.22,0.188768,251804,163040
1646.16,0.188361,244348,158361
1649.1,0.189212,236703,153106
1652.04,0.186189,228171,148618
1655.95,0.182822,215408,141397
1658.88,0.179172,204937,135659
1661.8,0.173361,193395,129743
1664.72,0.168259,179728,121999
1667.63,0.153737,163642,114857
1670.54,0.141530,146312,105621
1673.44,0.125147,128451,96292
1677.31,0.106659,105080,82198
1680.21,0.094067,88906,71592
1683.1,0.088607,75033,61185
1685.99,0.088137,63520,51853
1688.87,0.094142,53714,43246
1691.75,0.094389,45653,36735
1694.62,0.105166,39137,30720
1697.49,0.106675,33776,26420
1701.31,0.117951,28175,21474