Folder: textile_sorting_NIRSCAN_/samples/wool/wool-000811 (part 125)

File: Column 1_050601_20150331_122401.csv
Method:,Column 1,,
Host Date-Time:,31/3/15 @ 12:24:1,,
Header Version:,1,,
System Temp (C):,33.97,,
Detector Temp (C):,34.77,,
Humidity (%):,1.76,,
Lamp PD:,3818,,
Shift Vector Coefficients:,-10.5391,0.0761263,-0.000134223,,
Pixel to Wavelength Coefficients:,1775.68,-0.916766,-0.000235065,,
Serial Number:,5510004,,
Scan Config Name:,Column 1,,
Scan Config Type:,Slew,,
Section 1,,
Start wavelength (nm):,900,,
End wavelength (nm):,1700,,
Pattern Pixel Width (nm):,   7.03,,,,
Exposure (ms):,  0.635,,,,
Digital Resolution:,228,,
Num Repeats:,6,,
PGA Gain:,64,,
Total Measurement Time in sec:,  2.670,,
Wavelength (nm),Absorbance (AU),Reference Signal (unitless),Sample Signal (unitless)
901.51,0.069200,108485,92506
905.376,0.074746,121306,102126
909.237,0.078815,131909,110017
913.095,0.078327,143299,119651
916.948,0.080539,156982,130410
922.079,0.081555,179937,149130
925.923,0.081479,200504,166205
929.762,0.083167,222660,183855
933.597,0.082476,244426,202149
937.427,0.081794,263972,218657
941.254,0.081118,281845,233826
945.076,0.079395,297271,247604
950.165,0.078813,315605,263227
953.978,0.078453,328029,273816
957.786,0.078430,340470,284216
961.59,0.078351,352317,294159
965.389,0.078865,363056,302767
969.185,0.079270,373162,310905
972.976,0.078124,382632,319637
976.763,0.079561,391202,325717
981.806,0.079268,400190,333425
985.583,0.080425,406088,337439
989.355,0.080576,410162,340706
993.124,0.081067,412868,342566
996.888,0.081597,414263,343304
1000.65,0.081724,415476,344209
1004.4,0.083916,415479,342478
1009.41,0.084739,414358,340908
1013.15,0.084908,412923,339595
1016.89,0.085686,411526,337840
1020.63,0.085598,409066,335889
1024.36,0.085589,406777,334016
1028.09,0.085171,404427,332406
1031.82,0.085725,401911,329917
1036.78,0.085095,398410,327518
1040.49,0.084985,396204,325787
1044.2,0.084370,394236,324628
1047.91,0.084014,392042,323086
1051.61,0.084475,389823,320917
1055.31,0.083491,388234,320334
1059,0.083592,387599,319735
1063.92,0.082488,386688,319796
1067.61,0.081272,386598,320618
1071.29,0.080927,387377,321519
1074.96,0.080391,388536,322879
1078.63,0.080256,389855,324076
1082.3,0.078772,391215,326320
1085.96,0.078578,393215,328135
1090.84,0.077797,396270,331279
1094.49,0.077479,398760,333605
1098.14,0.076971,400987,335861
1101.79,0.075556,403477,339049
1105.43,0.075670,406116,341177
1109.06,0.075762,407701,342436
1112.7,0.074830,409859,344988
1117.53,0.073925,412494,347931
1121.15,0.074922,414909,349165
1124.77,0.075027,416559,350469
1128.38,0.075372,418532,351849
1131.99,0.077055,419956,351681
1135.6,0.079014,421946,351757
1139.2,0.079712,423881,352803
1143.99,0.081687,426786,353609
1147.58,0.082815,428617,354205
1151.17,0.083582,431169,355685
1154.75,0.084959,433579,356541
1158.33,0.085587,436264,358230
1161.91,0.088056,439132,358541
1165.48,0.089452,442389,360041
1169.04,0.091983,446101,360953
1173.79,0.095545,451929,362681
1177.34,0.096937,456026,364798
1180.9,0.099248,461306,367063
1184.44,0.101439,467657,370244
1187.99,0.101935,473969,374813
1191.52,0.102140,479856,379290
1195.06,0.101730,487372,385594
1199.76,0.101640,497347,393568
1203.29,0.100721,504311,399924
1206.81,0.099850,511507,406445
1210.33,0.099319,519078,412965
1213.84,0.098830,527163,419870
1217.35,0.098346,534208,425956
1220.85,0.097699,540472,431593
1225.51,0.096788,549929,440067
1229.01,0.096477,556888,445955
1232.5,0.095864,562180,450829
1235.98,0.095567,567975,455787
1239.46,0.094350,574815,462571
1242.94,0.093238,582782,470184
1246.41,0.092552,591476,477953
1251.03,0.092847,604016,487755
1254.5,0.092976,612289,494289
1257.96,0.093134,619125,499625
1261.41,0.093602,624551,503461
1264.86,0.094345,629900,506905
1268.31,0.094709,634345,510055
1271.75,0.095523,638574,512493
1276.33,0.095434,642499,515749
1279.76,0.095526,645905,518373
1283.19,0.095006,648307,520925
1286.61,0.094336,650446,523450
1290.03,0.094061,652132,525139
1293.44,0.093986,653907,526659
1296.85,0.093677,655963,528692
1301.39,0.093126,657349,530481
1304.8,0.093768,657558,529866
1308.19,0.093361,658515,531135
1311.58,0.093598,658804,531078
1314.97,0.093867,659011,530916
1318.36,0.094498,658272,529551
1321.73,0.094629,658022,529190
1326.23,0.095453,657870,528065
1329.6,0.096036,656482,526243
1332.97,0.097117,654926,523691
1336.33,0.098426,653727,521159
1339.69,0.099723,652497,518628
1343.04,0.101395,649913,514589
1346.39,0.103170,647671,510722
1349.73,0.105258,645338,506442
1354.18,0.108027,641175,499976
1357.52,0.109830,638376,495731
1360.85,0.112093,635805,491169
1364.17,0.113929,633413,487257
1367.49,0.116087,631026,483015
1370.81,0.118628,628050,477932
1374.12,0.120384,625034,473718
1378.54,0.123296,620272,466967
1381.84,0.126589,616892,460914
1385.14,0.129150,613613,455769
1388.43,0.133324,611526,449874
1391.72,0.137495,610663,444945
1395.01,0.142184,610634,440146
1398.29,0.146344,611700,436711
1402.66,0.152874,614051,431848
1405.93,0.158066,616268,428256
1409.2,0.162760,617795,424702
1412.46,0.167052,618872,421259
1415.72,0.170923,619795,418143
1418.98,0.174361,620495,415315
1422.23,0.178207,621087,412046
1426.56,0.182269,621375,408399
1429.8,0.184254,621616,406694
1433.04,0.186888,622129,404569
1436.27,0.189124,621526,402101
1439.5,0.191446,621113,399691
1442.72,0.194014,620921,397212
1445.94,0.196293,620270,394719
1450.23,0.199205,618860,391190
1453.44,0.202211,617697,387761
1456.64,0.204586,616264,384752
1459.85,0.208114,614413,380493
1463.04,0.210598,612307,377026
1466.24,0.213846,610032,372826
1469.43,0.218060,607345,367600
1473.67,0.223845,603789,360612
1476.85,0.229129,601175,354709
1480.02,0.235277,597737,347723
1483.19,0.240953,594479,341337
1486.36,0.247245,591232,334590
1489.52,0.251938,587853,329102
1492.68,0.255251,583875,324391
1496.89,0.257258,578062,319681
1500.03,0.257813,574159,317117
1503.18,0.257532,570285,315181
1506.32,0.257088,565444,312825
1509.45,0.255975,560571,310925
1512.58,0.254027,555821,309676
1515.71,0.251235,550344,308602
1519.87,0.248356,543983,307064
1522.99,0.246349,538764,305527
1526.1,0.243618,533692,304560
1529.21,0.241187,527902,302947
1532.32,0.237805,521886,301836
1535.42,0.234749,515888,300474
1538.51,0.231984,509987,298934
1541.6,0.229271,503936,297238
1545.72,0.224682,494694,294886
1548.8,0.222709,488378,292447
1551.88,0.220337,481832,290107
1554.95,0.217973,474989,287548
1558.02,0.216283,467818,284311
1561.08,0.215528,460730,280491
1564.15,0.214366,454170,277238
1568.22,0.214110,444181,271300
1571.27,0.213713,436947,267126
1574.32,0.212072,429598,263627
1577.36,0.211162,422039,259532
1580.4,0.209581,414375,255748
1583.43,0.207801,406354,251828
1586.46,0.206347,398475,247773
1590.49,0.204894,388982,242681
1593.51,0.203297,380708,238394
1596.53,0.201057,372727,234603
1599.54,0.198820,365060,230964
1602.55,0.197408,357543,226945
1605.55,0.195428,349495,222850
1608.55,0.193841,341154,218328
1612.54,0.191995,330877,212653
1615.53,0.190822,322904,208090
1618.51,0.188206,315116,204298
1621.49,0.186858,307217,199796
1624.47,0.185963,299481,195167
1627.44,0.184598,292112,190964
1630.41,0.184437,284245,185890
1634.36,0.183671,274079,179558
1637.32,0.182731,266916,175244
1640.27,0.182241,259612,170641
1643.22,0.181023,251804,165974
1646.16,0.179240,244348,161722
1649.1,0.180206,236703,156314
1652.04,0.178410,228171,151304
1655.95,0.174077,215408,144273
1658.88,0.171936,204937,137938
1661.8,0.164928,193395,132287
1664.72,0.157608,179728,125028
1667.63,0.146155,163642,116880
1670.54,0.130511,146312,108335
1673.44,0.114306,128451,98726
1677.31,0.095904,105080,84259
1680.21,0.085097,88906,73086
1683.1,0.082196,75033,62095
1685.99,0.080211,63520,52808
1688.87,0.085925,53714,44072
1691.75,0.085832,45653,37466
1694.62,0.092859,39137,31603
1697.49,0.097212,33776,27002
1701.31,0.103354,28175,22208

File: Column 1_050601_20150331_122404.csv
Method:,Column 1,,
Host Date-Time:,31/3/15 @ 12:24:4,,
Header Version:,1,,
System Temp (C):,33.97,,
Detector Temp (C):,34.79,,
Humidity (%):,1.76,,
Lamp PD:,3818,,
Shift Vector Coefficients:,-10.5391,0.0761263,-0.000134223,,
Pixel to Wavelength Coefficients:,1775.68,-0.916766,-0.000235065,,
Serial Number:,5510004,,
Scan Config Name:,Column 1,,
Scan Config Type:,Slew,,
Section 1,,
Start wavelength (nm):,900,,
End wavelength (nm):,1700,,
Pattern Pixel Width (nm):,   7.03,,,,
Exposure (ms):,  0.635,,,,
Digital Resolution:,228,,
Num Repeats:,6,,
PGA Gain:,64,,
Total Measurement Time in sec:,  2.680,,
Wavelength (nm),Absorbance (AU),Reference Signal (unitless),Sample Signal (unitless)
901.51,0.068346,108485,92688
905.376,0.074818,121306,102109
909.237,0.078381,131909,110127
913.095,0.076509,143299,120153
916.948,0.078884,156982,130908
922.079,0.080907,179937,149353
925.923,0.081429,200504,166224
929.762,0.081276,222660,184657
933.597,0.082130,244426,202310
937.427,0.081489,263972,218811
941.254,0.080279,281845,234278
945.076,0.079191,297271,247720
950.165,0.078395,315605,263481
953.978,0.077940,328029,274140
957.786,0.078097,340470,284434
961.59,0.077894,352317,294469
965.389,0.077862,363056,303467
969.185,0.077853,373162,311921
972.976,0.078757,382632,319172
976.763,0.078777,391202,326305
981.806,0.079681,400190,333108
985.583,0.080265,406088,337563
989.355,0.080196,410162,341004
993.124,0.081161,412868,342492
996.888,0.081439,414263,343429
1000.65,0.081726,415476,344207
1004.4,0.083287,415479,342975
1009.41,0.083815,414358,341634
1013.15,0.084837,412923,339650
1016.89,0.085720,411526,337814
1020.63,0.084926,409066,336409
1024.36,0.085441,406777,334130
1028.09,0.084489,404427,332929
1031.82,0.084824,401911,330602
1036.78,0.085019,398410,327575
1040.49,0.084358,396204,326258
1044.2,0.084491,394236,324538
1047.91,0.084084,392042,323034
1051.61,0.083915,389823,321331
1055.31,0.083697,388234,320182
1059,0.083188,387599,320033
1063.92,0.081968,386688,320179
1067.61,0.081245,386598,320638
1071.29,0.081266,387377,321268
1074.96,0.080106,388536,323091
1078.63,0.079870,389855,324364
1082.3,0.079098,391215,326075
1085.96,0.078035,393215,328545
1090.84,0.077514,396270,331495
1094.49,0.076644,398760,334247
1098.14,0.076848,400987,335956
1101.79,0.075705,403477,338933
1105.43,0.075884,406116,341009
1109.06,0.074547,407701,343396
1112.7,0.074173,409859,345511
1117.53,0.074485,412494,347482
1121.15,0.074687,414909,349354
1124.77,0.074675,416559,350753
1128.38,0.075550,418532,351705
1131.99,0.076738,419956,351938
1135.6,0.078276,421946,352355
1139.2,0.079403,423881,353054
1143.99,0.081614,426786,353668
1147.58,0.081958,428617,354904
1151.17,0.083176,431169,356018
1154.75,0.084164,433579,357194
1158.33,0.085160,436264,358583
1161.91,0.087047,439132,359375
1165.48,0.089667,442389,359863
1169.04,0.091532,446101,361328
1173.79,0.095302,451929,362884
1177.34,0.096635,456026,365052
1180.9,0.099105,461306,367184
1184.44,0.100790,467657,370798
1187.99,0.102158,473969,374621
1191.52,0.102581,479856,378905
1195.06,0.101944,487372,385404
1199.76,0.101175,497347,393989
1203.29,0.100873,504311,399784
1206.81,0.099637,511507,406644
1210.33,0.099547,519078,412749
1213.84,0.099215,527163,419498
1217.35,0.098279,534208,426021
1220.85,0.097201,540472,432088
1225.51,0.096619,549929,440238
1229.01,0.096270,556888,446167
1232.5,0.095518,562180,451188
1235.98,0.095234,567975,456137
1239.46,0.094077,574815,462862
1242.94,0.093006,582782,470436
1246.41,0.092717,591476,477771
1251.03,0.092012,604016,488693
1254.5,0.092882,612289,494396
1257.96,0.093039,619125,499734
1261.41,0.093564,624551,503505
1264.86,0.094109,629900,507181
1268.31,0.094543,634345,510249
1271.75,0.095088,638574,513007
1276.33,0.095573,642499,515584
1279.76,0.095420,645905,518500
1283.19,0.094822,648307,521145
1286.61,0.094890,650446,522783
1290.03,0.093948,652132,525276
1293.44,0.093639,653907,527080
1296.85,0.094126,655963,528145
1301.39,0.093230,657349,530354
1304.8,0.093065,657558,530725
1308.19,0.093480,658515,530989
1311.58,0.093559,658804,531125
1314.97,0.093953,659011,530811
1318.36,0.094332,658272,529753
1321.73,0.094659,658022,529153
1326.23,0.095543,657870,527955
1329.6,0.096546,656482,525626
1332.97,0.097220,654926,523567
1336.33,0.098145,653727,521497
1339.69,0.099569,652497,518811
1343.04,0.101132,649913,514900
1346.39,0.102900,647671,511040
1349.73,0.105049,645338,506685
1354.18,0.107861,641175,500168
1357.52,0.109856,638376,495702
1360.85,0.112016,635805,491256
1364.17,0.113660,633413,487559
1367.49,0.116237,631026,482848
1370.81,0.118162,628050,478445
1374.12,0.120435,625034,473662
1378.54,0.122867,620272,467428
1381.84,0.125950,616892,461593
1385.14,0.129335,613613,455575
1388.43,0.133052,611526,450156
1391.72,0.137509,610663,444931
1395.01,0.141272,610634,441071
1398.29,0.146065,611700,436992
1402.66,0.152280,614051,432439
1405.93,0.157071,616268,429238
1409.2,0.162413,617795,425042
1412.46,0.167078,618872,421233
1415.72,0.171004,619795,418065
1418.98,0.174771,620495,414923
1422.23,0.177791,621087,412441
1426.56,0.181375,621375,409241
1429.8,0.183988,621616,406944
1433.04,0.186909,622129,404549
1436.27,0.189108,621526,402116
1439.5,0.190628,621113,400445
1442.72,0.193085,620921,398063
1445.94,0.195854,620270,395118
1450.23,0.199293,618860,391110
1453.44,0.201520,617697,388379
1456.64,0.204645,616264,384700
1459.85,0.207265,614413,381237
1463.04,0.210224,612307,377351
1466.24,0.213799,610032,372867
1469.43,0.217079,607345,368431
1473.67,0.222690,603789,361572
1476.85,0.228748,601175,355020
1480.02,0.234618,597737,348251
1483.19,0.241362,594479,341016
1486.36,0.246806,591232,334928
1489.52,0.251247,587853,329626
1492.68,0.254852,583875,324689
1496.89,0.256527,578062,320219
1500.03,0.257469,574159,317368
1503.18,0.257353,570285,315311
1506.32,0.255912,565444,313673
1509.45,0.254489,560571,311991
1512.58,0.253136,555821,310312
1515.71,0.250559,550344,309083
1519.87,0.248269,543983,307126
1522.99,0.244999,538764,306478
1526.1,0.242585,533692,305285
1529.21,0.240160,527902,303664
1532.32,0.237219,521886,302243
1535.42,0.234029,515888,300972
1538.51,0.231100,509987,299543
1541.6,0.228407,503936,297830
1545.72,0.225185,494694,294545
1548.8,0.221737,488378,293102
1551.88,0.219288,481832,290809
1554.95,0.218091,474989,287470
1558.02,0.216045,467818,284467
1561.08,0.214549,460730,281124
1564.15,0.213807,454170,277595
1568.22,0.213531,444181,271662
1571.27,0.212513,436947,267865
1574.32,0.211368,429598,264055
1577.36,0.210558,422039,259893
1580.4,0.209272,414375,255930
1583.43,0.207545,406354,251976
1586.46,0.205244,398475,248403
1590.49,0.204118,388982,243115
1593.51,0.202661,380708,238743
1596.53,0.200166,372727,235085
1599.54,0.198737,365060,231008
1602.55,0.197193,357543,227057
1605.55,0.194548,349495,223302
1608.55,0.192590,341154,218958
1612.54,0.190900,330877,213190
1615.53,0.188823,322904,209050
1618.51,0.188100,315116,204348
1621.49,0.186750,307217,199846
1624.47,0.186517,299481,194918
1627.44,0.184625,292112,190952
1630.41,0.183977,284245,186087
1634.36,0.182830,274079,179906
1637.32,0.180941,266916,175968
1640.27,0.181189,259612,171055
1643.22,0.180439,251804,166197
1646.16,0.180463,244348,161267
1649.1,0.178036,236703,157097
1652.04,0.175963,228171,152159
1655.95,0.174700,215408,144066
1658.88,0.169729,204937,138641
1661.8,0.164948,193395,132281
1664.72,0.156828,179728,125253
1667.63,0.145312,163642,117107
1670.54,0.130784,146312,108267
1673.44,0.115151,128451,98534
1677.31,0.093857,105080,84657
1680.21,0.082922,88906,73453
1683.1,0.076609,75033,62899
1685.99,0.075467,63520,53388
1688.87,0.079644,53714,44714
1691.75,0.085844,45653,37465
1694.62,0.090488,39137,31776
1697.49,0.095254,33776,27124
1701.31,0.101306,28175,22313

File: Column 1_050601_20150331_122406.csv
Method:,Column 1,,
Host Date-Time:,31/3/15 @ 12:24:6,,
Header Version:,1,,
System Temp (C):,33.95,,
Detector Temp (C):,34.77,,
Humidity (%):,1.76,,
Lamp PD:,3818,,
Shift Vector Coefficients:,-10.5391,0.0761263,-0.000134223,,
Pixel to Wavelength Coefficients:,1775.68,-0.916766,-0.000235065,,
Serial Number:,5510004,,
Scan Config Name:,Column 1,,
Scan Config Type:,Slew,,
Section 1,,
Start wavelength (nm):,900,,
End wavelength (nm):,1700,,
Pattern Pixel Width (nm):,   7.03,,,,
Exposure (ms):,  0.635,,,,
Digital Resolution:,228,,
Num Repeats:,6,,
PGA Gain:,64,,
Total Measurement Time in sec:,  2.684,,
Wavelength (nm),Absorbance (AU),Reference Signal (unitless),Sample Signal (unitless)
901.51,0.071346,108485,92050
905.376,0.075444,121306,101962
909.237,0.077463,131909,110360
913.095,0.078040,143299,119730
916.948,0.079707,156982,130660
922.079,0.080991,179937,149324
925.923,0.082059,200504,165983
929.762,0.081886,222660,184398
933.597,0.082897,244426,201953
937.427,0.081384,263972,218864
941.254,0.081049,281845,233863
945.076,0.079358,297271,247625
950.165,0.079147,315605,263025
953.978,0.077941,328029,274139
957.786,0.078218,340470,284355
961.59,0.078563,352317,294016
965.389,0.078509,363056,303015
969.185,0.078413,373162,311519
972.976,0.078776,382632,319158
976.763,0.079631,391202,325664
981.806,0.079817,400190,333004
985.583,0.080651,406088,337263
989.355,0.080644,410162,340652
993.124,0.081264,412868,342411
996.888,0.081698,414263,343224
1000.65,0.082427,415476,343652
1004.4,0.083507,415479,342801
1009.41,0.084313,414358,341242
1013.15,0.085244,412923,339332
1016.89,0.085851,411526,337712
1020.63,0.085109,409066,336267
1024.36,0.085564,406777,334035
1028.09,0.085387,404427,332241
1031.82,0.085392,401911,330170
1036.78,0.085421,398410,327272
1040.49,0.084889,396204,325859
1044.2,0.085025,394236,324139
1047.91,0.084934,392042,322403
1051.61,0.083411,389823,321704
1055.31,0.083595,388234,320257
1059,0.083451,387599,319839
1063.92,0.082644,386688,319681
1067.61,0.081833,386598,320204
1071.29,0.081300,387377,321243
1074.96,0.080435,388536,322847
1078.63,0.080357,389855,324001
1082.3,0.079284,391215,325935
1085.96,0.078763,393215,327995
1090.84,0.077824,396270,331259
1094.49,0.077116,398760,333884
1098.14,0.076278,400987,336397
1101.79,0.076442,403477,338358
1105.43,0.075469,406116,341335
1109.06,0.074654,407701,343311
1112.7,0.074732,409859,345066
1117.53,0.074299,412494,347631
1121.15,0.075195,414909,348946
1124.77,0.074572,416559,350836
1128.38,0.076105,418532,351256
1131.99,0.077280,419956,351499
1135.6,0.078238,421946,352386
1139.2,0.079526,423881,352954
1143.99,0.081937,426786,353405
1147.58,0.082570,428617,354405
1151.17,0.083193,431169,356004
1154.75,0.084881,433579,356605
1158.33,0.085773,436264,358077
1161.91,0.087272,439132,359189
1165.48,0.090060,442389,359538
1169.04,0.091682,446101,361203
1173.79,0.094923,451929,363201
1177.34,0.097366,456026,364438
1180.9,0.099643,461306,366730
1184.44,0.101443,467657,370241
1187.99,0.101824,473969,374909
1191.52,0.102362,479856,379096
1195.06,0.102737,487372,384701
1199.76,0.101275,497347,393899
1203.29,0.100827,504311,399826
1206.81,0.100061,511507,406247
1210.33,0.099552,519078,412744
1213.84,0.098532,527163,420158
1217.35,0.098484,534208,425820
1220.85,0.098077,540472,431217
1225.51,0.097138,549929,439712
1229.01,0.096408,556888,446026
1232.5,0.095945,562180,450744
1235.98,0.095658,567975,455692
1239.46,0.094481,574815,462431
1242.94,0.093526,582782,469873
1246.41,0.092939,591476,477527
1251.03,0.092912,604016,487682
1254.5,0.092901,612289,494374
1257.96,0.093393,619125,499327
1261.41,0.093475,624551,503608
1264.86,0.094268,629900,506995
1268.31,0.094783,634345,509967
1271.75,0.095812,638574,512153
1276.33,0.096121,642499,514934
1279.76,0.095560,645905,518333
1283.19,0.095156,648307,520744
1286.61,0.095013,650446,522635
1290.03,0.094486,652132,524626
1293.44,0.093709,653907,526995
1296.85,0.093557,655963,528838
1301.39,0.093919,657349,529514
1304.8,0.093200,657558,530559
1308.19,0.093335,658515,531167
1311.58,0.093516,658804,531178
1314.97,0.094525,659011,530112
1318.36,0.094671,658272,529340
1321.73,0.094937,658022,528814
1326.23,0.095729,657870,527729
1329.6,0.096524,656482,525653
1332.97,0.097175,654926,523621
1336.33,0.098664,653727,520874
1339.69,0.099430,652497,518978
1343.04,0.101121,649913,514914
1346.39,0.102910,647671,511028
1349.73,0.105248,645338,506453
1354.18,0.108066,641175,499932
1357.52,0.110640,638376,494808
1360.85,0.111999,635805,491275
1364.17,0.113735,633413,487475
1367.49,0.116154,631026,482940
1370.81,0.118021,628050,478601
1374.12,0.120578,625034,473506
1378.54,0.123597,620272,466643
1381.84,0.126273,616892,461250
1385.14,0.129766,613613,455123
1388.43,0.132983,611526,450227
1391.72,0.137256,610663,445190
1395.01,0.142170,610634,440160
1398.29,0.146388,611700,436667
1402.66,0.152188,614051,432530
1405.93,0.157365,616268,428948
1409.2,0.162555,617795,424903
1412.46,0.166858,618872,421447
1415.72,0.170842,619795,418221
1418.98,0.174649,620495,415039
1422.23,0.178429,621087,411835
1426.56,0.181943,621375,408706
1429.8,0.184222,621616,406724
1433.04,0.186601,622129,404836
1436.27,0.189220,621526,402012
1439.5,0.191359,621113,399771
1442.72,0.193238,620921,397922
1445.94,0.195255,620270,395663
1450.23,0.199198,618860,391196
1453.44,0.202796,617697,387239
1456.64,0.205567,616264,383884
1459.85,0.207624,614413,380922
1463.04,0.210574,612307,377047
1466.24,0.213121,610032,373449
1469.43,0.217483,607345,368089
1473.67,0.224027,603789,360461
1476.85,0.228661,601175,355091
1480.02,0.234599,597737,348266
1483.19,0.241418,594479,340972
1486.36,0.247497,591232,334396
1489.52,0.250884,587853,329902
1492.68,0.254743,583875,324771
1496.89,0.256976,578062,319888
1500.03,0.258043,574159,316949
1503.18,0.257645,570285,315099
1506.32,0.257289,565444,312680
1509.45,0.255488,560571,311274
1512.58,0.254187,555821,309562
1515.71,0.251364,550344,308511
1519.87,0.248671,543983,306842
1522.99,0.246123,538764,305686
1526.1,0.243860,533692,304390
1529.21,0.240657,527902,303317
1532.32,0.237267,521886,302210
1535.42,0.235368,515888,300046
1538.51,0.232404,509987,298645
1541.6,0.229007,503936,297419
1545.72,0.224384,494694,295089
1548.8,0.222797,488378,292388
1551.88,0.220176,481832,290215
1554.95,0.218096,474989,287467
1558.02,0.215967,467818,284518
1561.08,0.215713,460730,280371
1564.15,0.215195,454170,276709
1568.22,0.213386,444181,271753
1571.27,0.213219,436947,267430
1574.32,0.212329,429598,263471
1577.36,0.211326,422039,259434
1580.4,0.209656,414375,255704
1583.43,0.208539,406354,251400
1586.46,0.206956,398475,247426
1590.49,0.205451,388982,242370
1593.51,0.203013,380708,238550
1596.53,0.201129,372727,234564
1599.54,0.199950,365060,230364
1602.55,0.197406,357543,226946
1605.55,0.195343,349495,222894
1608.55,0.193336,341154,218582
1612.54,0.192195,330877,212555
1615.53,0.189125,322904,208905
1618.51,0.188921,315116,203962
1621.49,0.187973,307217,199284
1624.47,0.186640,299481,194863
1627.44,0.185299,292112,190656
1630.41,0.183942,284245,186102
1634.36,0.183998,274079,179423
1637.32,0.183113,266916,175090
1640.27,0.182010,259612,170732
1643.22,0.179915,251804,166398
1646.16,0.180466,244348,161266
1649.1,0.178094,236703,157076
1652.04,0.177750,228171,151534
1655.95,0.174610,215408,144096
1658.88,0.171493,204937,138079
1661.8,0.165385,193395,132148
1664.72,0.158533,179728,124762
1667.63,0.146329,163642,116833
1670.54,0.132911,146312,107738
1673.44,0.115579,128451,98437
1677.31,0.096182,105080,84205
1680.21,0.084735,88906,73147
1683.1,0.077355,75033,62791
1685.99,0.077767,63520,53106
1688.87,0.080928,53714,44582
1691.75,0.089429,45653,37157
1694.62,0.095423,39137,31417
1697.49,0.095078,33776,27135
1701.31,0.101111,28175,22323