Folder: textile_sorting_NIRSCAN_/samples/wool/wool-000811 (part 144)

File: Column 1_050612_20150331_122906.csv
Method:,Column 1,,
Host Date-Time:,31/3/15 @ 12:29:6,,
Header Version:,1,,
System Temp (C):,34.08,,
Detector Temp (C):,34.9,,
Humidity (%):,1.66,,
Lamp PD:,3818,,
Shift Vector Coefficients:,-10.5391,0.0761263,-0.000134223,,
Pixel to Wavelength Coefficients:,1775.68,-0.916766,-0.000235065,,
Serial Number:,5510004,,
Scan Config Name:,Column 1,,
Scan Config Type:,Slew,,
Section 1,,
Start wavelength (nm):,900,,
End wavelength (nm):,1700,,
Pattern Pixel Width (nm):,   7.03,,,,
Exposure (ms):,  0.635,,,,
Digital Resolution:,228,,
Num Repeats:,6,,
PGA Gain:,64,,
Total Measurement Time in sec:,  2.665,,
Wavelength (nm),Absorbance (AU),Reference Signal (unitless),Sample Signal (unitless)
901.51,0.069167,108485,92513
905.376,0.074100,121306,102278
909.237,0.077951,131909,110236
913.095,0.076834,143299,120063
916.948,0.079299,156982,130783
922.079,0.079603,179937,149802
925.923,0.082093,200504,165970
929.762,0.082218,222660,184257
933.597,0.082040,244426,202352
937.427,0.079963,263972,219581
941.254,0.080173,281845,234335
945.076,0.078939,297271,247864
950.165,0.078095,315605,263663
953.978,0.077726,328029,274275
957.786,0.077016,340470,285143
961.59,0.078016,352317,294386
965.389,0.077642,363056,303621
969.185,0.077581,373162,312116
972.976,0.077798,382632,319877
976.763,0.078898,391202,326214
981.806,0.078845,400190,333750
985.583,0.079438,406088,338207
989.355,0.080316,410162,340910
993.124,0.080035,412868,343381
996.888,0.080853,414263,343893
1000.65,0.081339,415476,344514
1004.4,0.082524,415479,343578
1009.41,0.084259,414358,341285
1013.15,0.084342,412923,340038
1016.89,0.085035,411526,338347
1020.63,0.084580,409066,336677
1024.36,0.084363,406777,334960
1028.09,0.084405,404427,332993
1031.82,0.084005,401911,331226
1036.78,0.083997,398410,328347
1040.49,0.083796,396204,326680
1044.2,0.083372,394236,325375
1047.91,0.083336,392042,323591
1051.61,0.082974,389823,322028
1055.31,0.083293,388234,320480
1059,0.082350,387599,320651
1063.92,0.082186,386688,320018
1067.61,0.080794,386598,320971
1071.29,0.079875,387377,322299
1074.96,0.080109,388536,323089
1078.63,0.079425,389855,324697
1082.3,0.078374,391215,326619
1085.96,0.077529,393215,328928
1090.84,0.076449,396270,332309
1094.49,0.076929,398760,334028
1098.14,0.075631,400987,336899
1101.79,0.074898,403477,339563
1105.43,0.075060,406116,341657
1109.06,0.073507,407701,344219
1112.7,0.073821,409859,345791
1117.53,0.073210,412494,348504
1121.15,0.073676,414909,350168
1124.77,0.073886,416559,351391
1128.38,0.074671,418532,352418
1131.99,0.075986,419956,352548
1135.6,0.077267,421946,353175
1139.2,0.078481,423881,353804
1143.99,0.080639,426786,354463
1147.58,0.081852,428617,354991
1151.17,0.083032,431169,356136
1154.75,0.083643,433579,357623
1158.33,0.084320,436264,359277
1161.91,0.086512,439132,359818
1165.48,0.088241,442389,361047
1169.04,0.090681,446101,362036
1173.79,0.094112,451929,363880
1177.34,0.096768,456026,364940
1180.9,0.098348,461306,367825
1184.44,0.100370,467657,371157
1187.99,0.100969,473969,375648
1191.52,0.101038,479856,380253
1195.06,0.100713,487372,386498
1199.76,0.100399,497347,394694
1203.29,0.099752,504311,400817
1206.81,0.099394,511507,406872
1210.33,0.098588,519078,413661
1213.84,0.098382,527163,420303
1217.35,0.097397,534208,426887
1220.85,0.097112,540472,432177
1225.51,0.096091,549929,440774
1229.01,0.095565,556888,446892
1232.5,0.094643,562180,452098
1235.98,0.094043,567975,457390
1239.46,0.093474,574815,463505
1242.94,0.092281,582782,471221
1246.41,0.091570,591476,479035
1251.03,0.091811,604016,488920
1254.5,0.092113,612289,495272
1257.96,0.092215,619125,500683
1261.41,0.093128,624551,504011
1264.86,0.093077,629900,508387
1268.31,0.093409,634345,511583
1271.75,0.094274,638574,513969
1276.33,0.094238,642499,517171
1279.76,0.094867,645905,519160
1283.19,0.093725,648307,522463
1286.61,0.093429,650446,524544
1290.03,0.093084,652132,526322
1293.44,0.092584,653907,528362
1296.85,0.092658,655963,529934
1301.39,0.091970,657349,531895
1304.8,0.092344,657558,531606
1308.19,0.092116,658515,532660
1311.58,0.092203,658804,532787
1314.97,0.092827,659011,532189
1318.36,0.093095,658272,531264
1321.73,0.093664,658022,530367
1326.23,0.094347,657870,529411
1329.6,0.094934,656482,527580
1332.97,0.095819,654926,525259
1336.33,0.096611,653727,523342
1339.69,0.098153,652497,520506
1343.04,0.100265,649913,515929
1346.39,0.101530,647671,512654
1349.73,0.103735,645338,508220
1354.18,0.106414,641175,501837
1357.52,0.108180,638376,497619
1360.85,0.110547,635805,492921
1364.17,0.112262,633413,489131
1367.49,0.114713,631026,484545
1370.81,0.116859,628050,479883
1374.12,0.119045,625034,475181
1378.54,0.121705,620272,468681
1381.84,0.124453,616892,463187
1385.14,0.127859,613613,457126
1388.43,0.131168,611526,452113
1391.72,0.135176,610663,447328
1395.01,0.139315,610634,443064
1398.29,0.143512,611700,439568
1402.66,0.149905,614051,434810
1405.93,0.154988,616268,431302
1409.2,0.159239,617795,428159
1412.46,0.163688,618872,424534
1415.72,0.167728,619795,421231
1418.98,0.170986,620495,418555
1422.23,0.173897,621087,416155
1426.56,0.177970,621375,412462
1429.8,0.180402,621616,410318
1433.04,0.183241,622129,407981
1436.27,0.185146,621526,405801
1439.5,0.187124,621113,403689
1442.72,0.189940,620921,400956
1445.94,0.192195,620270,398461
1450.23,0.195617,618860,394435
1453.44,0.198447,617697,391137
1456.64,0.201038,616264,387908
1459.85,0.203895,614413,384207
1463.04,0.207030,612307,380136
1466.24,0.210314,610032,375871
1469.43,0.214132,607345,370940
1473.67,0.220665,603789,363262
1476.85,0.226302,601175,357025
1480.02,0.232442,597737,350000
1483.19,0.238594,594479,343196
1486.36,0.244692,591232,336563
1489.52,0.249420,587853,331016
1492.68,0.252119,583875,326739
1496.89,0.255198,578062,321201
1500.03,0.255218,574159,319017
1503.18,0.255473,570285,316679
1506.32,0.254483,565444,314707
1509.45,0.252823,560571,313190
1512.58,0.251671,555821,311361
1515.71,0.249629,550344,309746
1519.87,0.246364,543983,308476
1522.99,0.244327,538764,306953
1526.1,0.241508,533692,306043
1529.21,0.238244,527902,305007
1532.32,0.235783,521886,303244
1535.42,0.232676,515888,301911
1538.51,0.230381,509987,300039
1541.6,0.226835,503936,298910
1545.72,0.223416,494694,295747
1548.8,0.219728,488378,294461
1551.88,0.217583,481832,291953
1554.95,0.215640,474989,289097
1558.02,0.214415,467818,285537
1561.08,0.212937,460730,282169
1564.15,0.212559,454170,278394
1568.22,0.211154,444181,273153
1571.27,0.210781,436947,268935
1574.32,0.210863,429598,264362
1577.36,0.209142,422039,260742
1580.4,0.207655,414375,256885
1583.43,0.206203,406354,252756
1586.46,0.204989,398475,248549
1590.49,0.202878,388982,243810
1593.51,0.201238,380708,239527
1596.53,0.199334,372727,235536
1599.54,0.197075,365060,231894
1602.55,0.195395,357543,227999
1605.55,0.193505,349495,223839
1608.55,0.191389,341154,219564
1612.54,0.189050,330877,214100
1615.53,0.187295,322904,209787
1618.51,0.187733,315116,204521
1621.49,0.186370,307217,200021
1624.47,0.184907,299481,195642
1627.44,0.183306,292112,191533
1630.41,0.182765,284245,186607
1634.36,0.180970,274079,180678
1637.32,0.179960,266916,176366
1640.27,0.179964,259612,171538
1643.22,0.178271,251804,167029
1646.16,0.178475,244348,162007
1649.1,0.177848,236703,157165
1652.04,0.177123,228171,151753
1655.95,0.173003,215408,144630
1658.88,0.169857,204937,138600
1661.8,0.163856,193395,132614
1664.72,0.157102,179728,125174
1667.63,0.144726,163642,117265
1670.54,0.129758,146312,108523
1673.44,0.114420,128451,98700
1677.31,0.094329,105080,84565
1680.21,0.081316,88906,73725
1683.1,0.075739,75033,63025
1685.99,0.073025,63520,53689
1688.87,0.081747,53714,44498
1691.75,0.081208,45653,37867
1694.62,0.089165,39137,31873
1697.49,0.092016,33776,27327
1701.31,0.107639,28175,21990

File: Column 1_050612_20150331_122909.csv
Method:,Column 1,,
Host Date-Time:,31/3/15 @ 12:29:9,,
Header Version:,1,,
System Temp (C):,34.09,,
Detector Temp (C):,34.9,,
Humidity (%):,1.66,,
Lamp PD:,3818,,
Shift Vector Coefficients:,-10.5391,0.0761263,-0.000134223,,
Pixel to Wavelength Coefficients:,1775.68,-0.916766,-0.000235065,,
Serial Number:,5510004,,
Scan Config Name:,Column 1,,
Scan Config Type:,Slew,,
Section 1,,
Start wavelength (nm):,900,,
End wavelength (nm):,1700,,
Pattern Pixel Width (nm):,   7.03,,,,
Exposure (ms):,  0.635,,,,
Digital Resolution:,228,,
Num Repeats:,6,,
PGA Gain:,64,,
Total Measurement Time in sec:,  2.670,,
Wavelength (nm),Absorbance (AU),Reference Signal (unitless),Sample Signal (unitless)
901.51,0.069463,108485,92450
905.376,0.074712,121306,102134
909.237,0.077132,131909,110444
913.095,0.077218,143299,119957
916.948,0.077754,156982,131249
922.079,0.081701,179937,149080
925.923,0.082023,200504,165997
929.762,0.082065,222660,184322
933.597,0.082828,244426,201985
937.427,0.080680,263972,219219
941.254,0.080403,281845,234211
945.076,0.079753,297271,247400
950.165,0.078685,315605,263305
953.978,0.076837,328029,274837
957.786,0.077322,340470,284942
961.59,0.078027,352317,294379
965.389,0.077599,363056,303651
969.185,0.077622,373162,312087
972.976,0.078202,382632,319580
976.763,0.078852,391202,326249
981.806,0.079134,400190,333528
985.583,0.079782,406088,337939
989.355,0.079666,410162,341420
993.124,0.080403,412868,343090
996.888,0.081215,414263,343606
1000.65,0.081484,415476,344399
1004.4,0.082644,415479,343483
1009.41,0.084014,414358,341477
1013.15,0.084439,412923,339962
1016.89,0.084622,411526,338669
1020.63,0.084236,409066,336944
1024.36,0.085077,406777,334410
1028.09,0.084413,404427,332987
1031.82,0.084483,401911,330862
1036.78,0.083831,398410,328473
1040.49,0.083775,396204,326696
1044.2,0.083722,394236,325113
1047.91,0.083629,392042,323373
1051.61,0.083420,389823,321697
1055.31,0.083051,388234,320658
1059,0.082284,387599,320700
1063.92,0.081703,386688,320374
1067.61,0.080913,386598,320883
1071.29,0.080542,387377,321804
1074.96,0.080261,388536,322976
1078.63,0.079406,389855,324711
1082.3,0.077866,391215,327001
1085.96,0.077993,393215,328577
1090.84,0.077099,396270,331812
1094.49,0.076475,398760,334377
1098.14,0.075716,400987,336833
1101.79,0.075106,403477,339401
1105.43,0.075045,406116,341669
1109.06,0.073970,407701,343852
1112.7,0.073324,409859,346187
1117.53,0.073176,412494,348531
1121.15,0.074563,414909,349454
1124.77,0.073906,416559,351375
1128.38,0.074950,418532,352191
1131.99,0.075804,419956,352695
1135.6,0.077613,421946,352894
1139.2,0.078958,423881,353416
1143.99,0.080451,426786,354617
1147.58,0.081210,428617,355516
1151.17,0.082315,431169,356724
1154.75,0.083315,433579,357893
1158.33,0.084402,436264,359209
1161.91,0.086701,439132,359662
1165.48,0.088599,442389,360749
1169.04,0.090709,446101,362013
1173.79,0.093828,451929,364118
1177.34,0.095999,456026,365587
1180.9,0.098516,461306,367683
1184.44,0.100095,467657,371392
1187.99,0.101248,473969,375407
1191.52,0.101213,479856,380100
1195.06,0.101308,487372,385969
1199.76,0.100252,497347,394828
1203.29,0.099601,504311,400957
1206.81,0.099407,511507,406860
1210.33,0.098706,519078,413549
1213.84,0.097971,527163,420701
1217.35,0.097476,534208,426810
1220.85,0.096851,540472,432436
1225.51,0.095742,549929,441128
1229.01,0.095656,556888,446799
1232.5,0.094102,562180,452661
1235.98,0.093952,567975,457485
1239.46,0.093308,574815,463682
1242.94,0.092234,582782,471273
1246.41,0.091583,591476,479021
1251.03,0.091448,604016,489328
1254.5,0.091711,612289,495730
1257.96,0.092242,619125,500653
1261.41,0.092486,624551,504756
1264.86,0.093119,629900,508338
1268.31,0.093725,634345,511211
1271.75,0.094380,638574,513844
1276.33,0.094624,642499,516712
1279.76,0.094319,645905,519816
1283.19,0.093709,648307,522482
1286.61,0.093613,650446,524322
1290.03,0.093072,652132,526337
1293.44,0.092677,653907,528249
1296.85,0.092522,655963,530099
1301.39,0.092218,657349,531592
1304.8,0.092324,657558,531631
1308.19,0.092364,658515,532355
1311.58,0.092358,658804,532596
1314.97,0.092571,659011,532502
1318.36,0.093268,658272,531052
1321.73,0.093945,658022,530024
1326.23,0.093892,657870,529966
1329.6,0.094888,656482,527637
1332.97,0.095999,654926,525041
1336.33,0.096615,653727,523337
1339.69,0.098189,652497,520462
1343.04,0.099544,649913,516787
1346.39,0.101899,647671,512219
1349.73,0.103624,645338,508351
1354.18,0.106668,641175,501544
1357.52,0.108297,638376,497485
1360.85,0.110754,635805,492686
1364.17,0.112341,633413,489042
1367.49,0.114599,631026,484672
1370.81,0.117051,628050,479671
1374.12,0.119380,625034,474814
1378.54,0.121353,620272,469061
1381.84,0.124504,616892,463132
1385.14,0.127699,613613,457294
1388.43,0.130859,611526,452435
1391.72,0.135406,610663,447091
1395.01,0.139048,610634,443336
1398.29,0.143847,611700,439229
1402.66,0.149525,614051,435191
1405.93,0.154439,616268,431848
1409.2,0.159288,617795,428111
1412.46,0.163455,618872,424762
1415.72,0.167253,619795,421692
1418.98,0.171104,620495,418441
1422.23,0.174559,621087,415521
1426.56,0.178085,621375,412353
1429.8,0.180119,621616,410585
1433.04,0.183184,622129,408034
1436.27,0.185271,621526,405684
1439.5,0.186941,621113,403859
1442.72,0.189494,620921,401368
1445.94,0.191896,620270,398735
1450.23,0.195717,618860,394344
1453.44,0.198220,617697,391341
1456.64,0.201211,616264,387754
1459.85,0.204191,614413,383945
1463.04,0.207183,612307,380002
1466.24,0.209963,610032,376175
1469.43,0.214099,607345,370968
1473.67,0.220454,603789,363439
1476.85,0.226046,601175,357236
1480.02,0.232572,597737,349895
1483.19,0.238603,594479,343189
1486.36,0.244511,591232,336703
1489.52,0.249463,587853,330983
1492.68,0.252370,583875,326550
1496.89,0.254792,578062,321501
1500.03,0.255391,574159,318890
1503.18,0.255356,570285,316764
1506.32,0.254005,565444,315054
1509.45,0.253004,560571,313059
1512.58,0.251360,555821,311584
1515.71,0.249336,550344,309955
1519.87,0.246385,543983,308461
1522.99,0.243377,538764,307625
1526.1,0.240971,533692,306422
1529.21,0.238124,527902,305091
1532.32,0.235778,521886,303248
1535.42,0.232543,515888,302004
1538.51,0.229499,509987,300649
1541.6,0.227258,503936,298619
1545.72,0.222885,494694,296109
1548.8,0.219833,488378,294390
1551.88,0.218433,481832,291382
1554.95,0.216646,474989,288428
1558.02,0.214259,467818,285639
1561.08,0.213632,460730,281718
1564.15,0.212794,454170,278243
1568.22,0.211380,444181,273011
1571.27,0.211250,436947,268645
1574.32,0.210189,429598,264773
1577.36,0.208423,422039,261174
1580.4,0.208034,414375,256661
1583.43,0.206208,406354,252753
1586.46,0.205101,398475,248485
1590.49,0.203456,388982,243486
1593.51,0.201178,380708,239560
1596.53,0.198891,372727,235776
1599.54,0.196530,365060,232185
1602.55,0.195761,357543,227807
1605.55,0.193414,349495,223886
1608.55,0.191093,341154,219714
1612.54,0.190008,330877,213628
1615.53,0.186982,322904,209938
1618.51,0.188444,315116,204186
1621.49,0.185760,307217,200302
1624.47,0.184559,299481,195799
1627.44,0.184266,292112,191110
1630.41,0.181902,284245,186978
1634.36,0.181331,274079,180528
1637.32,0.180403,266916,176186
1640.27,0.180058,259612,171501
1643.22,0.179299,251804,166634
1646.16,0.178759,244348,161901
1649.1,0.177177,236703,157408
1652.04,0.175484,228171,152327
1655.95,0.172301,215408,144864
1658.88,0.167906,204937,139224
1661.8,0.164223,193395,132502
1664.72,0.156748,179728,125276
1667.63,0.143126,163642,117698
1670.54,0.128300,146312,108888
1673.44,0.113045,128451,99013
1677.31,0.094098,105080,84610
1680.21,0.081175,88906,73749
1683.1,0.076885,75033,62859
1685.99,0.078643,63520,52999
1688.87,0.075892,53714,45102
1691.75,0.085160,45653,37524
1694.62,0.091391,39137,31710
1697.49,0.089086,33776,27512
1701.31,0.098319,28175,22467

File: Column 1_050612_20150331_122911.csv
Method:,Column 1,,
Host Date-Time:,31/3/15 @ 12:29:11,,
Header Version:,1,,
System Temp (C):,34.07,,
Detector Temp (C):,34.9,,
Humidity (%):,1.66,,
Lamp PD:,3818,,
Shift Vector Coefficients:,-10.5391,0.0761263,-0.000134223,,
Pixel to Wavelength Coefficients:,1775.68,-0.916766,-0.000235065,,
Serial Number:,5510004,,
Scan Config Name:,Column 1,,
Scan Config Type:,Slew,,
Section 1,,
Start wavelength (nm):,900,,
End wavelength (nm):,1700,,
Pattern Pixel Width (nm):,   7.03,,,,
Exposure (ms):,  0.635,,,,
Digital Resolution:,228,,
Num Repeats:,6,,
PGA Gain:,64,,
Total Measurement Time in sec:,  2.725,,
Wavelength (nm),Absorbance (AU),Reference Signal (unitless),Sample Signal (unitless)
901.51,0.069947,108485,92347
905.376,0.075602,121306,101925
909.237,0.074670,131909,111072
913.095,0.077120,143299,119984
916.948,0.078257,156982,131097
922.079,0.080639,179937,149445
925.923,0.081121,200504,166342
929.762,0.081898,222660,184393
933.597,0.082173,244426,202290
937.427,0.080181,263972,219471
941.254,0.079940,281845,234461
945.076,0.079021,297271,247817
950.165,0.077234,315605,264186
953.978,0.077014,328029,274725
957.786,0.077085,340470,285098
961.59,0.077608,352317,294663
965.389,0.077214,363056,303920
969.185,0.077178,373162,312406
972.976,0.077740,382632,319920
976.763,0.078091,391202,326821
981.806,0.078395,400190,334096
985.583,0.079563,406088,338109
989.355,0.079944,410162,341202
993.124,0.080437,412868,343063
996.888,0.080953,414263,343814
1000.65,0.081437,415476,344436
1004.4,0.082424,415479,343657
1009.41,0.083747,414358,341687
1013.15,0.084342,412923,340038
1016.89,0.084724,411526,338589
1020.63,0.083737,409066,337331
1024.36,0.084279,406777,335025
1028.09,0.084609,404427,332837
1031.82,0.084454,401911,330884
1036.78,0.083492,398410,328729
1040.49,0.083463,396204,326931
1044.2,0.083928,394236,324959
1047.91,0.082864,392042,323943
1051.61,0.082827,389823,322137
1055.31,0.082342,388234,321182
1059,0.081844,387599,321025
1063.92,0.080872,386688,320988
1067.61,0.080694,386598,321045
1071.29,0.080068,387377,322156
1074.96,0.079824,388536,323301
1078.63,0.078992,389855,325021
1082.3,0.078526,391215,326505
1085.96,0.077451,393215,328987
1090.84,0.076321,396270,332407
1094.49,0.076571,398760,334303
1098.14,0.076034,400987,336586
1101.79,0.075355,403477,339206
1105.43,0.074397,406116,342179
1109.06,0.073886,407701,343919
1112.7,0.073418,409859,346112
1117.53,0.073404,412494,348348
1121.15,0.073566,414909,350257
1124.77,0.074310,416559,351048
1128.38,0.075291,418532,351915
1131.99,0.076253,419956,352331
1135.6,0.077182,421946,353244
1139.2,0.078632,423881,353681
1143.99,0.080588,426786,354505
1147.58,0.080593,428617,356022
1151.17,0.082144,431169,356865
1154.75,0.083068,433579,358097
1158.33,0.084632,436264,359019
1161.91,0.086177,439132,360096
1165.48,0.087892,442389,361337
1169.04,0.090011,446101,362595
1173.79,0.093650,451929,364267
1177.34,0.096001,456026,365585
1180.9,0.098289,461306,367875
1184.44,0.099777,467657,371664
1187.99,0.100964,473969,375652
1191.52,0.100864,479856,380406
1195.06,0.101128,487372,386129
1199.76,0.100357,497347,394732
1203.29,0.099388,504311,401153
1206.81,0.098865,511507,407368
1210.33,0.098443,519078,413799
1213.84,0.098172,527163,420507
1217.35,0.097460,534208,426826
1220.85,0.096567,540472,432719
1225.51,0.095799,549929,441070
1229.01,0.094989,556888,447485
1232.5,0.094498,562180,452249
1235.98,0.094157,567975,457270
1239.46,0.093511,574815,463465
1242.94,0.092035,582782,471488
1246.41,0.091617,591476,478983
1251.03,0.091089,604016,489733
1254.5,0.091776,612289,495656
1257.96,0.092389,619125,500483
1261.41,0.092291,624551,504983
1264.86,0.093027,629900,508446
1268.31,0.093599,634345,511360
1271.75,0.094130,638574,514140
1276.33,0.094763,642499,516546
1279.76,0.094400,645905,519719
1283.19,0.093822,648307,522347
1286.61,0.093442,650446,524529
1290.03,0.093275,652132,526091
1293.44,0.092581,653907,528366
1296.85,0.092330,655963,530334
1301.39,0.092382,657349,531391
1304.8,0.092002,657558,532025
1308.19,0.091937,658515,532879
1311.58,0.092003,658804,533032
1314.97,0.092693,659011,532353
1318.36,0.093039,658272,531333
1321.73,0.093248,658022,530875
1326.23,0.094132,657870,529673
1329.6,0.094697,656482,527869
1332.97,0.095968,654926,525079
1336.33,0.096642,653727,523305
1339.69,0.098266,652497,520370
1343.04,0.099492,649913,516849
1346.39,0.101617,647671,512552
1349.73,0.103052,645338,509020
1354.18,0.106319,641175,501947
1357.52,0.108277,638376,497507
1360.85,0.110479,635805,492998
1364.17,0.112246,633413,489149
1367.49,0.114506,631026,484776
1370.81,0.116606,628050,480162
1374.12,0.118430,625034,475854
1378.54,0.121219,620272,469206
1381.84,0.124568,616892,463064
1385.14,0.127481,613613,457524
1388.43,0.130967,611526,452322
1391.72,0.135477,610663,447018
1395.01,0.138878,610634,443510
1398.29,0.143313,611700,439770
1402.66,0.149665,614051,435050
1405.93,0.154320,616268,431966
1409.2,0.159158,617795,428239
1412.46,0.163200,618872,425012
1415.72,0.167309,619795,421637
1418.98,0.170944,620495,418595
1422.23,0.173486,621087,416549
1426.56,0.177687,621375,412731
1429.8,0.180299,621616,410415
1433.04,0.182651,622129,408535
1436.27,0.184893,621526,406038
1439.5,0.186886,621113,403910
1442.72,0.189328,620921,401521
1445.94,0.191748,620270,398871
1450.23,0.195672,618860,394385
1453.44,0.198593,617697,391005
1456.64,0.201094,616264,387858
1459.85,0.203624,614413,384447
1463.04,0.206362,612307,380721
1466.24,0.209668,610032,376430
1469.43,0.214069,607345,370994
1473.67,0.220245,603789,363614
1476.85,0.226311,601175,357018
1480.02,0.232017,597737,350343
1483.19,0.238382,594479,343364
1486.36,0.244190,591232,336952
1489.52,0.249190,587853,331191
1492.68,0.252344,583875,326570
1496.89,0.254633,578062,321619
1500.03,0.254961,574159,319206
1503.18,0.255430,570285,316710
1506.32,0.254485,565444,314706
1509.45,0.253789,560571,312494
1512.58,0.251491,555821,311490
1515.71,0.248855,550344,310298
1519.87,0.245843,543983,308846
1522.99,0.243640,538764,307439
1526.1,0.240699,533692,306614
1529.21,0.238026,527902,305160
1532.32,0.235404,521886,303509
1535.42,0.232215,515888,302232
1538.51,0.228941,509987,301036
1541.6,0.226623,503936,299056
1545.72,0.222530,494694,296351
1548.8,0.219489,488378,294623
1551.88,0.217241,481832,292183
1554.95,0.215077,474989,289472
1558.02,0.213715,467818,285997
1561.08,0.212328,460730,282565
1564.15,0.212549,454170,278400
1568.22,0.210819,444181,273364
1571.27,0.210102,436947,269356
1574.32,0.209790,429598,265016
1577.36,0.208421,422039,261175
1580.4,0.207224,414375,257140
1583.43,0.207061,406354,252257
1586.46,0.204411,398475,248880
1590.49,0.202166,388982,244210
1593.51,0.200737,380708,239803
1596.53,0.198043,372727,236237
1599.54,0.197032,365060,231917
1602.55,0.194674,357543,228378
1605.55,0.193567,349495,223807
1608.55,0.191734,341154,219390
1612.54,0.188640,330877,214302
1615.53,0.187802,322904,209542
1618.51,0.186179,315116,205254
1621.49,0.185368,307217,200483
1624.47,0.184548,299481,195804
1627.44,0.182875,292112,191723
1630.41,0.182037,284245,186920
1634.36,0.181579,274079,180425
1637.32,0.180273,266916,176239
1640.27,0.179651,259612,171662
1643.22,0.177193,251804,167444
1646.16,0.178824,244348,161877
1649.1,0.177992,236703,157113
1652.04,0.175384,228171,152362
1655.95,0.172062,215408,144944
1658.88,0.168965,204937,138885
1661.8,0.162953,193395,132890
1664.72,0.157043,179728,125191
1667.63,0.143824,163642,117509
1670.54,0.128136,146312,108929
1673.44,0.112489,128451,99140
1677.31,0.091473,105080,85123
1680.21,0.080528,88906,73859
1683.1,0.072034,75033,63565
1685.99,0.075809,63520,53346
1688.87,0.077213,53714,44965
1691.75,0.081128,45653,37874
1694.62,0.089301,39137,31863
1697.49,0.083160,33776,27890
1701.31,0.101442,28175,22306