Folder: textile_sorting_NIRSCAN_/samples/wool/wool-000811 (part 157)

File: Column 1_050618_20150331_123203.csv
Method:,Column 1,,
Host Date-Time:,31/3/15 @ 12:32:3,,
Header Version:,1,,
System Temp (C):,34.14,,
Detector Temp (C):,34.97,,
Humidity (%):,1.66,,
Lamp PD:,3817,,
Shift Vector Coefficients:,-10.5391,0.0761263,-0.000134223,,
Pixel to Wavelength Coefficients:,1775.68,-0.916766,-0.000235065,,
Serial Number:,5510004,,
Scan Config Name:,Column 1,,
Scan Config Type:,Slew,,
Section 1,,
Start wavelength (nm):,900,,
End wavelength (nm):,1700,,
Pattern Pixel Width (nm):,   7.03,,,,
Exposure (ms):,  0.635,,,,
Digital Resolution:,228,,
Num Repeats:,6,,
PGA Gain:,64,,
Total Measurement Time in sec:,  2.668,,
Wavelength (nm),Absorbance (AU),Reference Signal (unitless),Sample Signal (unitless)
901.51,0.068248,108485,92709
905.376,0.072951,121306,102549
909.237,0.076194,131909,110683
913.095,0.076928,143299,120037
916.948,0.078542,156982,131011
922.079,0.081130,179937,149276
925.923,0.080941,200504,166411
929.762,0.082713,222660,184047
933.597,0.081585,244426,202564
937.427,0.080557,263972,219281
941.254,0.080253,281845,234292
945.076,0.079358,297271,247625
950.165,0.078398,315605,263479
953.978,0.076940,328029,274772
957.786,0.077768,340470,284650
961.59,0.077453,352317,294768
965.389,0.077010,363056,304063
969.185,0.077754,373162,311992
972.976,0.078176,382632,319599
976.763,0.078150,391202,326777
981.806,0.078590,400190,333946
985.583,0.078804,406088,338701
989.355,0.079778,410162,341332
993.124,0.080017,412868,343395
996.888,0.080811,414263,343926
1000.65,0.081117,415476,344690
1004.4,0.082552,415479,343556
1009.41,0.083273,414358,342060
1013.15,0.083691,412923,340548
1016.89,0.084123,411526,339058
1020.63,0.084397,409066,336819
1024.36,0.084830,406777,334600
1028.09,0.084120,404427,333212
1031.82,0.083920,401911,331291
1036.78,0.083702,398410,328570
1040.49,0.083505,396204,326899
1044.2,0.083173,394236,325524
1047.91,0.082965,392042,323868
1051.61,0.083267,389823,321811
1055.31,0.082559,388234,321022
1059,0.082406,387599,320610
1063.92,0.080538,386688,321235
1067.61,0.080019,386598,321544
1071.29,0.080162,387377,322086
1074.96,0.079510,388536,323535
1078.63,0.079033,389855,324990
1082.3,0.078019,391215,326886
1085.96,0.077103,393215,329251
1090.84,0.076671,396270,332139
1094.49,0.075891,398760,334827
1098.14,0.075464,400987,337028
1101.79,0.074402,403477,339951
1105.43,0.074591,406116,342026
1109.06,0.073424,407701,344285
1112.7,0.073338,409859,346176
1117.53,0.073209,412494,348505
1121.15,0.073538,414909,350280
1124.77,0.073552,416559,351661
1128.38,0.074798,418532,352315
1131.99,0.075525,419956,352922
1135.6,0.077140,421946,353278
1139.2,0.078257,423881,353987
1143.99,0.080550,426786,354536
1147.58,0.081012,428617,355678
1151.17,0.081670,431169,357254
1154.75,0.082273,433579,358753
1158.33,0.084139,436264,359427
1161.91,0.085555,439132,360612
1165.48,0.088107,442389,361158
1169.04,0.090155,446101,362475
1173.79,0.093071,451929,364753
1177.34,0.096015,456026,365573
1180.9,0.098000,461306,368120
1184.44,0.100141,467657,371353
1187.99,0.100658,473969,375917
1191.52,0.100773,479856,380485
1195.06,0.101142,487372,386117
1199.76,0.102155,497347,393101
1203.29,0.099513,504311,401038
1206.81,0.098744,511507,407481
1210.33,0.098273,519078,413961
1213.84,0.097582,527163,421078
1217.35,0.096872,534208,427404
1220.85,0.096121,540472,433164
1225.51,0.095607,549929,441265
1229.01,0.095283,556888,447183
1232.5,0.094596,562180,452147
1235.98,0.093199,567975,458279
1239.46,0.092897,574815,464121
1242.94,0.091641,582782,471917
1246.41,0.091101,591476,479552
1251.03,0.091020,604016,489811
1254.5,0.091470,612289,496006
1257.96,0.092046,619125,500879
1261.41,0.092444,624551,504805
1264.86,0.092987,629900,508492
1268.31,0.093555,634345,511412
1271.75,0.094018,638574,514273
1276.33,0.094404,642499,516974
1279.76,0.093976,645905,520227
1283.19,0.093400,648307,522854
1286.61,0.093577,650446,524366
1290.03,0.092953,652132,526481
1293.44,0.092214,653907,528813
1296.85,0.092479,655963,530152
1301.39,0.091744,657349,532172
1304.8,0.091590,657558,532530
1308.19,0.091727,658515,533137
1311.58,0.091833,658804,533241
1314.97,0.092518,659011,532568
1318.36,0.092803,658272,531621
1321.73,0.093178,658022,530961
1326.23,0.093546,657870,530389
1329.6,0.094428,656482,528196
1332.97,0.095476,654926,525674
1336.33,0.096443,653727,523544
1339.69,0.097822,652497,520902
1343.04,0.099121,649913,517290
1346.39,0.100845,647671,513463
1349.73,0.102954,645338,509135
1354.18,0.106263,641175,502011
1357.52,0.107982,638376,497846
1360.85,0.110068,635805,493465
1364.17,0.111830,633413,489617
1367.49,0.113848,631026,485511
1370.81,0.116379,628050,480413
1374.12,0.118352,625034,475939
1378.54,0.120803,620272,469655
1381.84,0.123365,616892,464349
1385.14,0.126798,613613,458244
1388.43,0.130406,611526,452907
1391.72,0.134591,610663,447930
1395.01,0.138421,610634,443976
1398.29,0.142787,611700,440303
1402.66,0.148475,614051,436244
1405.93,0.153273,616268,433009
1409.2,0.158023,617795,429360
1412.46,0.162017,618872,426171
1415.72,0.165490,619795,423407
1418.98,0.169092,620495,420384
1422.23,0.172829,621087,417180
1426.56,0.175833,621375,414496
1429.8,0.178826,621616,411809
1433.04,0.181172,622129,409929
1436.27,0.183512,621526,407331
1439.5,0.185381,621113,405312
1442.72,0.188126,620921,402634
1445.94,0.190130,620270,400360
1450.23,0.193945,618860,395956
1453.44,0.196730,617697,392686
1456.64,0.199597,616264,389197
1459.85,0.202228,614413,385685
1463.04,0.204884,612307,382019
1466.24,0.208948,610032,377055
1469.43,0.213154,607345,371776
1473.67,0.219052,603789,364614
1476.85,0.225369,601175,357793
1480.02,0.231140,597737,351051
1483.19,0.237918,594479,343731
1486.36,0.243367,591232,337591
1489.52,0.248576,587853,331660
1492.68,0.251910,583875,326896
1496.89,0.253856,578062,322195
1500.03,0.254527,574159,319525
1503.18,0.254302,570285,317534
1506.32,0.253110,565444,315704
1509.45,0.252264,560571,313593
1512.58,0.250984,555821,311854
1515.71,0.248777,550344,310354
1519.87,0.244902,543983,309516
1522.99,0.242868,538764,307986
1526.1,0.239796,533692,307252
1529.21,0.237536,527902,305504
1532.32,0.234581,521886,304085
1535.42,0.232182,515888,302255
1538.51,0.228933,509987,301041
1541.6,0.225822,503936,299608
1545.72,0.221939,494694,296755
1548.8,0.219136,488378,294863
1551.88,0.217089,481832,292285
1554.95,0.215014,474989,289514
1558.02,0.213504,467818,286136
1561.08,0.211847,460730,282878
1564.15,0.212010,454170,278746
1568.22,0.210941,444181,273287
1571.27,0.210442,436947,269145
1574.32,0.209166,429598,265397
1577.36,0.208499,422039,261128
1580.4,0.206355,414375,257655
1583.43,0.205220,406354,253329
1586.46,0.204233,398475,248982
1590.49,0.202150,388982,244219
1593.51,0.199912,380708,240259
1596.53,0.198107,372727,236202
1599.54,0.196483,365060,232210
1602.55,0.194771,357543,228327
1605.55,0.192982,349495,224109
1608.55,0.190080,341154,220227
1612.54,0.188904,330877,214172
1615.53,0.187034,322904,209913
1618.51,0.186782,315116,204969
1621.49,0.184848,307217,200723
1624.47,0.183237,299481,196396
1627.44,0.183009,292112,191664
1630.41,0.182297,284245,186808
1634.36,0.180598,274079,180833
1637.32,0.179514,266916,176547
1640.27,0.178478,259612,172126
1643.22,0.178562,251804,166917
1646.16,0.177845,244348,162242
1649.1,0.175343,236703,158074
1652.04,0.176557,228171,151951
1655.95,0.172184,215408,144903
1658.88,0.167704,204937,139289
1661.8,0.162248,193395,133106
1664.72,0.154190,179728,126016
1667.63,0.142676,163642,117820
1670.54,0.126040,146312,109456
1673.44,0.111609,128451,99341
1677.31,0.089910,105080,85430
1680.21,0.078240,88906,74249
1683.1,0.073355,75033,63372
1685.99,0.072774,63520,53720
1688.87,0.073663,53714,45334
1691.75,0.078921,45653,38067
1694.62,0.085866,39137,32116
1697.49,0.085298,33776,27753
1701.31,0.095064,28175,22636

File: Column 1_050618_20150331_123211.csv
Method:,Column 1,,
Host Date-Time:,31/3/15 @ 12:32:11,,
Header Version:,1,,
System Temp (C):,34.16,,
Detector Temp (C):,34.98,,
Humidity (%):,1.66,,
Lamp PD:,3818,,
Shift Vector Coefficients:,-10.5391,0.0761263,-0.000134223,,
Pixel to Wavelength Coefficients:,1775.68,-0.916766,-0.000235065,,
Serial Number:,5510004,,
Scan Config Name:,Column 1,,
Scan Config Type:,Slew,,
Section 1,,
Start wavelength (nm):,900,,
End wavelength (nm):,1700,,
Pattern Pixel Width (nm):,   7.03,,,,
Exposure (ms):,  0.635,,,,
Digital Resolution:,228,,
Num Repeats:,6,,
PGA Gain:,64,,
Total Measurement Time in sec:,  2.672,,
Wavelength (nm),Absorbance (AU),Reference Signal (unitless),Sample Signal (unitless)
901.51,0.069646,108485,92411
905.376,0.076139,121306,101799
909.237,0.078069,131909,110206
913.095,0.078439,143299,119620
916.948,0.079538,156982,130711
922.079,0.081381,179937,149190
925.923,0.083018,200504,165617
929.762,0.083389,222660,183761
933.597,0.082115,244426,202317
937.427,0.080735,263972,219191
941.254,0.080670,281845,234067
945.076,0.079693,297271,247434
950.165,0.078340,315605,263514
953.978,0.076916,328029,274787
957.786,0.077307,340470,284952
961.59,0.077763,352317,294558
965.389,0.077755,363056,303542
969.185,0.077737,373162,312004
972.976,0.077717,382632,319937
976.763,0.078192,391202,326745
981.806,0.078695,400190,333865
985.583,0.079764,406088,337953
989.355,0.079926,410162,341216
993.124,0.080124,412868,343311
996.888,0.080864,414263,343884
1000.65,0.081745,415476,344192
1004.4,0.082472,415479,343619
1009.41,0.083652,414358,341762
1013.15,0.084288,412923,340080
1016.89,0.084426,411526,338822
1020.63,0.084486,409066,336750
1024.36,0.084395,406777,334936
1028.09,0.084598,404427,332845
1031.82,0.084165,401911,331104
1036.78,0.083706,398410,328567
1040.49,0.083948,396204,326566
1044.2,0.084016,394236,324893
1047.91,0.083189,392042,323701
1051.61,0.083314,389823,321776
1055.31,0.082792,388234,320850
1059,0.082350,387599,320651
1063.92,0.081991,386688,320162
1067.61,0.081070,386598,320767
1071.29,0.080526,387377,321816
1074.96,0.079639,388536,323439
1078.63,0.079522,389855,324624
1082.3,0.078342,391215,326643
1085.96,0.077579,393215,328890
1090.84,0.076714,396270,332106
1094.49,0.075885,398760,334832
1098.14,0.075574,400987,336943
1101.79,0.075353,403477,339208
1105.43,0.075192,406116,341553
1109.06,0.074260,407701,343623
1112.7,0.073553,409859,346004
1117.53,0.073282,412494,348446
1121.15,0.073607,414909,350224
1124.77,0.073992,416559,351305
1128.38,0.074809,418532,352306
1131.99,0.075813,419956,352688
1135.6,0.077507,421946,352980
1139.2,0.078600,423881,353707
1143.99,0.080897,426786,354253
1147.58,0.081323,428617,355424
1151.17,0.082761,431169,356358
1154.75,0.082893,433579,358241
1158.33,0.084707,436264,358957
1161.91,0.085984,439132,360256
1165.48,0.088161,442389,361113
1169.04,0.090404,446101,362267
1173.79,0.093722,451929,364207
1177.34,0.095696,456026,365842
1180.9,0.097976,461306,368140
1184.44,0.099825,467657,371623
1187.99,0.101357,473969,375312
1191.52,0.100849,479856,380419
1195.06,0.100886,487372,386344
1199.76,0.100389,497347,394703
1203.29,0.099693,504311,400872
1206.81,0.099476,511507,406795
1210.33,0.098586,519078,413663
1213.84,0.098300,527163,420383
1217.35,0.097423,534208,426862
1220.85,0.096651,540472,432636
1225.51,0.095834,549929,441035
1229.01,0.095409,556888,447053
1232.5,0.094688,562180,452051
1235.98,0.094485,567975,456924
1239.46,0.093115,574815,463888
1242.94,0.091841,582782,471699
1246.41,0.091469,591476,479146
1251.03,0.091408,604016,489374
1254.5,0.091886,612289,495531
1257.96,0.092259,619125,500633
1261.41,0.092332,624551,504935
1264.86,0.093046,629900,508423
1268.31,0.093504,634345,511472
1271.75,0.094634,638574,513543
1276.33,0.094594,642499,516748
1279.76,0.094392,645905,519729
1283.19,0.093991,648307,522143
1286.61,0.093578,650446,524364
1290.03,0.092707,652132,526779
1293.44,0.092575,653907,528373
1296.85,0.092528,655963,530092
1301.39,0.092022,657349,531832
1304.8,0.092013,657558,532011
1308.19,0.092564,658515,532110
1311.58,0.091828,658804,533247
1314.97,0.092866,659011,532141
1318.36,0.093178,658272,531163
1321.73,0.092989,658022,531192
1326.23,0.094107,657870,529704
1329.6,0.094725,656482,527834
1332.97,0.095639,654926,525476
1336.33,0.096301,653727,523716
1339.69,0.097939,652497,520762
1343.04,0.099170,649913,517232
1346.39,0.101059,647671,513210
1349.73,0.103339,645338,508684
1354.18,0.106032,641175,502279
1357.52,0.107865,638376,497980
1360.85,0.110038,635805,493499
1364.17,0.111930,633413,489505
1367.49,0.114159,631026,485164
1370.81,0.116554,628050,480220
1374.12,0.118464,625034,475817
1378.54,0.121206,620272,469220
1381.84,0.124026,616892,463642
1385.14,0.127359,613613,457652
1388.43,0.130702,611526,452598
1391.72,0.134531,610663,447992
1395.01,0.138655,610634,443737
1398.29,0.142811,611700,440278
1402.66,0.148619,614051,436099
1405.93,0.153413,616268,432869
1409.2,0.157701,617795,429678
1412.46,0.162034,618872,426154
1415.72,0.165904,619795,423004
1418.98,0.169435,620495,420052
1422.23,0.172976,621087,417039
1426.56,0.176417,621375,413939
1429.8,0.178914,621616,411726
1433.04,0.181792,622129,409344
1436.27,0.183664,621526,407188
1439.5,0.185321,621113,405368
1442.72,0.188156,620921,402606
1445.94,0.190759,620270,399781
1450.23,0.193973,618860,395931
1453.44,0.197203,617697,392259
1456.64,0.199838,616264,388981
1459.85,0.202696,614413,385269
1463.04,0.205755,612307,381254
1466.24,0.209208,610032,376829
1469.43,0.213132,607345,371795
1473.67,0.219397,603789,364324
1476.85,0.225027,601175,358075
1480.02,0.231257,597737,350956
1483.19,0.238032,594479,343641
1486.36,0.243655,591232,337367
1489.52,0.248569,587853,331665
1492.68,0.251468,583875,327229
1496.89,0.254151,578062,321976
1500.03,0.254669,574159,319421
1503.18,0.254752,570285,317205
1506.32,0.254456,565444,314727
1509.45,0.253039,560571,313034
1512.58,0.250682,555821,312071
1515.71,0.248401,550344,310623
1519.87,0.245384,543983,309173
1522.99,0.243153,538764,307784
1526.1,0.240376,533692,306842
1529.21,0.237359,527902,305629
1532.32,0.234972,521886,303811
1535.42,0.231834,515888,302497
1538.51,0.228821,509987,301119
1541.6,0.226558,503936,299101
1545.72,0.222601,494694,296303
1548.8,0.219516,488378,294605
1551.88,0.217177,481832,292226
1554.95,0.214227,474989,290039
1558.02,0.213529,467818,286120
1561.08,0.212380,460730,282531
1564.15,0.212158,454170,278651
1568.22,0.210706,444181,273435
1571.27,0.210512,436947,269102
1574.32,0.208958,429598,265524
1577.36,0.209127,422039,260751
1580.4,0.207829,414375,256782
1583.43,0.205662,406354,253071
1586.46,0.204493,398475,248833
1590.49,0.202595,388982,243969
1593.51,0.200636,380708,239859
1596.53,0.198359,372727,236065
1599.54,0.196700,365060,232094
1602.55,0.195312,357543,228043
1605.55,0.193210,349495,223991
1608.55,0.190976,341154,219773
1612.54,0.189462,330877,213897
1615.53,0.186949,322904,209954
1618.51,0.186503,315116,205101
1621.49,0.185177,307217,200571
1624.47,0.183677,299481,196197
1627.44,0.183859,292112,191289
1630.41,0.182797,284245,186593
1634.36,0.180627,274079,180821
1637.32,0.180393,266916,176190
1640.27,0.179350,259612,171781
1643.22,0.178552,251804,166921
1646.16,0.177637,244348,162320
1649.1,0.176667,236703,157593
1652.04,0.175886,228171,152186
1655.95,0.173517,215408,144459
1658.88,0.167772,204937,139267
1661.8,0.163777,193395,132638
1664.72,0.155540,179728,125625
1667.63,0.143225,163642,117671
1670.54,0.127185,146312,109168
1673.44,0.113137,128451,98992
1677.31,0.092745,105080,84874
1680.21,0.077417,88906,74390
1683.1,0.073444,75033,63359
1685.99,0.075190,63520,53422
1688.87,0.079071,53714,44773
1691.75,0.084501,45653,37581
1694.62,0.087315,39137,32009
1697.49,0.095383,33776,27116
1701.31,0.101559,28175,22300

File: Column 1_050618_20150331_123214.csv
Method:,Column 1,,
Host Date-Time:,31/3/15 @ 12:32:14,,
Header Version:,1,,
System Temp (C):,34.13,,
Detector Temp (C):,34.98,,
Humidity (%):,1.66,,
Lamp PD:,3818,,
Shift Vector Coefficients:,-10.5391,0.0761263,-0.000134223,,
Pixel to Wavelength Coefficients:,1775.68,-0.916766,-0.000235065,,
Serial Number:,5510004,,
Scan Config Name:,Column 1,,
Scan Config Type:,Slew,,
Section 1,,
Start wavelength (nm):,900,,
End wavelength (nm):,1700,,
Pattern Pixel Width (nm):,   7.03,,,,
Exposure (ms):,  0.635,,,,
Digital Resolution:,228,,
Num Repeats:,6,,
PGA Gain:,64,,
Total Measurement Time in sec:,  2.668,,
Wavelength (nm),Absorbance (AU),Reference Signal (unitless),Sample Signal (unitless)
901.51,0.069007,108485,92547
905.376,0.072866,121306,102569
909.237,0.074869,131909,111021
913.095,0.077297,143299,119935
916.948,0.078665,156982,130974
922.079,0.080200,179937,149596
925.923,0.081385,200504,166241
929.762,0.081688,222660,184482
933.597,0.082876,244426,201963
937.427,0.079831,263972,219648
941.254,0.079940,281845,234461
945.076,0.078225,297271,248272
950.165,0.077993,315605,263725
953.978,0.076627,328029,274970
957.786,0.077210,340470,285016
961.59,0.077383,352317,294816
965.389,0.076996,363056,304073
969.185,0.076808,373162,312672
972.976,0.077614,382632,320013
976.763,0.077391,391202,327348
981.806,0.077882,400190,334491
985.583,0.078888,406088,338635
989.355,0.079011,410162,341936
993.124,0.079890,412868,343496
996.888,0.080562,414263,344123
1000.65,0.081420,415476,344450
1004.4,0.082065,415479,343941
1009.41,0.083685,414358,341736
1013.15,0.084085,412923,340239
1016.89,0.084228,411526,338976
1020.63,0.084448,409066,336779
1024.36,0.083518,406777,335613
1028.09,0.084346,404427,333038
1031.82,0.084230,401911,331055
1036.78,0.083709,398410,328565
1040.49,0.083189,396204,327137
1044.2,0.083535,394236,325253
1047.91,0.083148,392042,323731
1051.61,0.082258,389823,322559
1055.31,0.082484,388234,321077
1059,0.081527,387599,321259
1063.92,0.081103,386688,320817
1067.61,0.079415,386598,321992
1071.29,0.079964,387377,322233
1074.96,0.079596,388536,323471
1078.63,0.078312,389855,325530
1082.3,0.077468,391215,327301
1085.96,0.077628,393215,328853
1090.84,0.076622,396270,332177
1094.49,0.075424,398760,335187
1098.14,0.075396,400987,337081
1101.79,0.074245,403477,340074
1105.43,0.073913,406116,342560
1109.06,0.073751,407701,344026
1112.7,0.073363,409859,346156
1117.53,0.072498,412494,349076
1121.15,0.073395,414909,350395
1124.77,0.073138,416559,351997
1128.38,0.074311,418532,352710
1131.99,0.075507,419956,352937
1135.6,0.077203,421946,353227
1139.2,0.078668,423881,353652
1143.99,0.079811,426786,355140
1147.58,0.081482,428617,355294
1151.17,0.082024,431169,356963
1154.75,0.082556,433579,358519
1158.33,0.084231,436264,359351
1161.91,0.085571,439132,360599
1165.48,0.087245,442389,361876
1169.04,0.089777,446101,362791
1173.79,0.093509,451929,364386
1177.34,0.096082,456026,365517
1180.9,0.097787,461306,368300
1184.44,0.099775,467657,371666
1187.99,0.100396,473969,376144
1191.52,0.100376,479856,380833
1195.06,0.100182,487372,386971
1199.76,0.099758,497347,395277
1203.29,0.098570,504311,401910
1206.81,0.098396,511507,407808
1210.33,0.097732,519078,414477
1213.84,0.097809,527163,420858
1217.35,0.097348,534208,426936
1220.85,0.096152,540472,433133
1225.51,0.095196,549929,441683
1229.01,0.094774,556888,447707
1232.5,0.094162,562180,452599
1235.98,0.093872,567975,457570
1239.46,0.092563,574815,464478
1242.94,0.092035,582782,471489
1246.41,0.091123,591476,479528
1251.03,0.091148,604016,489667
1254.5,0.091090,612289,496440
1257.96,0.091501,619125,501507
1261.41,0.091852,624551,505494
1264.86,0.092699,629900,508830
1268.31,0.093101,634345,511946
1271.75,0.093909,638574,514401
1276.33,0.094567,642499,516780
1279.76,0.093855,645905,520372
1283.19,0.093256,648307,523028
1286.61,0.093060,650446,524990
1290.03,0.093123,652132,526275
1293.44,0.092040,653907,529025
1296.85,0.091896,655963,530864
1301.39,0.091360,657349,532643
1304.8,0.091947,657558,532092
1308.19,0.091416,658515,533519
1311.58,0.091805,658804,533275
1314.97,0.092147,659011,533023
1318.36,0.092406,658272,532108
1321.73,0.092725,658022,531515
1326.23,0.093696,657870,530205
1329.6,0.094021,656482,528691
1332.97,0.095290,654926,525899
1336.33,0.095866,653727,524240
1339.69,0.097608,652497,521159
1343.04,0.099179,649913,517221
1346.39,0.100998,647671,513282
1349.73,0.103015,645338,509064
1354.18,0.105602,641175,502776
1357.52,0.107734,638376,498130
1360.85,0.109638,635805,493953
1364.17,0.111734,633413,489726
1367.49,0.113996,631026,485346
1370.81,0.116247,628050,480560
1374.12,0.118082,625034,476235
1378.54,0.120886,620272,469565
1381.84,0.123673,616892,464019
1385.14,0.126845,613613,458194
1388.43,0.130160,611526,453163
1391.72,0.134279,610663,448252
1395.01,0.138089,610634,444316
1398.29,0.142314,611700,440783
1402.66,0.148384,614051,436335
1405.93,0.152885,616268,433396
1409.2,0.157808,617795,429572
1412.46,0.161668,618872,426514
1415.72,0.165661,619795,423240
1418.98,0.169156,620495,420322
1422.23,0.172163,621087,417820
1426.56,0.176109,621375,414233
1429.8,0.178859,621616,411778
1433.04,0.181088,622129,410008
1436.27,0.183194,621526,407629
1439.5,0.185524,621113,405179
1442.72,0.187758,620921,402975
1445.94,0.190159,620270,400333
1450.23,0.193397,618860,396456
1453.44,0.196727,617697,392689
1456.64,0.199211,616264,389543
1459.85,0.202478,614413,385463
1463.04,0.204522,612307,382338
1466.24,0.208460,610032,377479
1469.43,0.212430,607345,372396
1473.67,0.218768,603789,364852
1476.85,0.224654,601175,358383
1480.02,0.230946,597737,351208
1483.19,0.237762,594479,343854
1486.36,0.243587,591232,337420
1489.52,0.248115,587853,332012
1492.68,0.251799,583875,326980
1496.89,0.254092,578062,322020
1500.03,0.254341,574159,319662
1503.18,0.254488,570285,317398
1506.32,0.253204,565444,315635
1509.45,0.252343,560571,313536
1512.58,0.250669,555821,312080
1515.71,0.248202,550344,310765
1519.87,0.244217,543983,310005
1522.99,0.242614,538764,308166
1526.1,0.240091,533692,307043
1529.21,0.237708,527902,305383
1532.32,0.233720,521886,304688
1535.42,0.231177,515888,302955
1538.51,0.228815,509987,301123
1541.6,0.225053,503936,300139
1545.72,0.221380,494694,297137
1548.8,0.218440,488378,295336
1551.88,0.216107,481832,292947
1554.95,0.214320,474989,289977
1558.02,0.212942,467818,286507
1561.08,0.211959,460730,282805
1564.15,0.211550,454170,279041
1568.22,0.210226,444181,273737
1571.27,0.210012,436947,269412
1574.32,0.208674,429598,265698
1577.36,0.207589,422039,261676
1580.4,0.206377,414375,257642
1583.43,0.205338,406354,253260
1586.46,0.203593,398475,249349
1590.49,0.201764,388982,244436
1593.51,0.199838,380708,240300
1596.53,0.197116,372727,236742
1599.54,0.196521,365060,232190
1602.55,0.194533,357543,228452
1605.55,0.192302,349495,224460
1608.55,0.191320,341154,219599
1612.54,0.188438,330877,214402
1615.53,0.185803,322904,210509
1618.51,0.185959,315116,205358
1621.49,0.183923,307217,201151
1624.47,0.183276,299481,196378
1627.44,0.182898,292112,191713
1630.41,0.182290,284245,186811
1634.36,0.180298,274079,180958
1637.32,0.179495,266916,176555
1640.27,0.179077,259612,171889
1643.22,0.177554,251804,167305
1646.16,0.176304,244348,162819
1649.1,0.175767,236703,157920
1652.04,0.173924,228171,152875
1655.95,0.171451,215408,145148
1658.88,0.166492,204937,139678
1661.8,0.162630,193395,132989
1664.72,0.153027,179728,126354
1667.63,0.142613,163642,117837
1670.54,0.126144,146312,109430
1673.44,0.110535,128451,99587
1677.31,0.089041,105080,85601
1680.21,0.077977,88906,74294
1683.1,0.073499,75033,63351
1685.99,0.071523,63520,53875
1688.87,0.073156,53714,45387
1691.75,0.078955,45653,38064
1694.62,0.078026,39137,32701
1697.49,0.079500,33776,28126
1701.31,0.095813,28175,22597