Folder: textile_sorting_NIRSCAN_/samples/wool/wool-000811 (part 23)

File: Column 1_050543_20150331_115638.csv
Method:,Column 1,,
Host Date-Time:,31/3/15 @ 11:56:38,,
Header Version:,1,,
System Temp (C):,32.67,,
Detector Temp (C):,31.07,,
Humidity (%):,2.74,,
Lamp PD:,3823,,
Shift Vector Coefficients:,-10.5391,0.0761263,-0.000134223,,
Pixel to Wavelength Coefficients:,1775.68,-0.916766,-0.000235065,,
Serial Number:,5510004,,
Scan Config Name:,Column 1,,
Scan Config Type:,Slew,,
Section 1,,
Start wavelength (nm):,900,,
End wavelength (nm):,1700,,
Pattern Pixel Width (nm):,   7.03,,,,
Exposure (ms):,  0.635,,,,
Digital Resolution:,228,,
Num Repeats:,6,,
PGA Gain:,64,,
Total Measurement Time in sec:,  2.720,,
Wavelength (nm),Absorbance (AU),Reference Signal (unitless),Sample Signal (unitless)
901.51,0.044126,108485,98004
905.376,0.051038,121306,107856
909.237,0.052456,131909,116901
913.095,0.052491,143299,126985
916.948,0.052095,156982,139237
922.079,0.052681,179937,159382
925.923,0.053047,200504,177450
929.762,0.053480,222660,196862
933.597,0.053806,244426,215944
937.427,0.054012,263972,233102
941.254,0.053515,281845,249170
945.076,0.054477,297271,262226
950.165,0.053467,315605,279047
953.978,0.053565,328029,289966
957.786,0.054298,340470,300456
961.59,0.053993,352317,311129
965.389,0.054748,363056,320056
969.185,0.054976,373162,328792
972.976,0.055322,382632,336868
976.763,0.056371,391202,343582
981.806,0.057275,400190,350745
985.583,0.057790,406088,355492
989.355,0.058326,410162,358616
993.124,0.058426,412868,360899
996.888,0.059370,414263,361332
1000.65,0.059917,415476,361934
1004.4,0.061307,415479,360780
1009.41,0.062630,414358,358712
1013.15,0.062542,412923,357542
1016.89,0.063206,411526,355788
1020.63,0.063292,409066,353591
1024.36,0.063177,406777,351706
1028.09,0.062930,404427,349873
1031.82,0.062385,401911,348133
1036.78,0.062195,398410,345251
1040.49,0.061020,396204,344270
1044.2,0.060973,394236,342597
1047.91,0.060069,392042,341400
1051.61,0.059721,389823,339740
1055.31,0.059034,388234,338891
1059,0.058482,387599,338767
1063.92,0.057153,386688,339006
1067.61,0.056297,386598,339596
1071.29,0.055456,387377,340940
1074.96,0.055175,388536,342181
1078.63,0.054820,389855,343624
1082.3,0.052702,391215,346508
1085.96,0.052673,393215,348303
1090.84,0.051630,396270,351853
1094.49,0.050953,398760,354616
1098.14,0.050990,400987,356566
1101.79,0.050323,403477,359332
1105.43,0.050773,406116,361308
1109.06,0.049835,407701,363502
1112.7,0.050242,409859,365084
1117.53,0.050268,412494,367409
1121.15,0.051055,414909,368891
1124.77,0.051563,416559,369925
1128.38,0.052980,418532,370466
1131.99,0.054507,419956,370422
1135.6,0.056648,421946,370347
1139.2,0.058806,423881,370201
1143.99,0.061259,426786,370639
1147.58,0.062334,428617,371309
1151.17,0.064122,431169,371985
1154.75,0.065141,433579,373188
1158.33,0.067501,436264,373464
1161.91,0.070181,439132,373606
1165.48,0.073035,442389,373912
1169.04,0.075573,446101,374852
1173.79,0.080563,451929,375411
1177.34,0.082934,456026,376752
1180.9,0.085408,461306,378949
1184.44,0.087711,467657,382135
1187.99,0.088153,473969,386898
1191.52,0.087578,479856,392223
1195.06,0.086874,487372,399013
1199.76,0.085949,497347,408047
1203.29,0.084281,504311,415353
1206.81,0.083058,511507,422468
1210.33,0.082038,519078,429729
1213.84,0.081173,527163,437292
1217.35,0.079654,534208,444689
1220.85,0.078492,540472,451109
1225.51,0.077461,549929,460093
1229.01,0.076450,556888,467001
1232.5,0.075554,562180,472412
1235.98,0.074915,567975,477985
1239.46,0.073715,574815,485080
1242.94,0.072510,582782,493169
1246.41,0.071749,591476,501404
1251.03,0.071519,604016,512306
1254.5,0.071300,612289,519585
1257.96,0.071777,619125,524809
1261.41,0.072488,624551,528542
1264.86,0.072957,629900,532494
1268.31,0.073786,634345,535229
1271.75,0.074545,638574,537856
1276.33,0.074830,642499,540807
1279.76,0.074808,645905,543702
1283.19,0.074059,648307,546666
1286.61,0.073820,650446,548771
1290.03,0.073129,652132,551070
1293.44,0.072602,653907,553241
1296.85,0.072464,655963,555156
1301.39,0.072209,657349,556656
1304.8,0.072249,657558,556782
1308.19,0.072777,658515,556915
1311.58,0.072763,658804,557177
1314.97,0.073573,659011,556313
1318.36,0.073946,658272,555213
1321.73,0.074409,658022,554410
1326.23,0.075410,657870,553006
1329.6,0.076364,656482,550629
1332.97,0.077442,654926,547962
1336.33,0.078642,653727,545449
1339.69,0.080528,652497,542064
1343.04,0.082631,649913,537309
1346.39,0.084900,647671,532665
1349.73,0.087548,645338,527520
1354.18,0.091221,641175,519703
1357.52,0.093936,638376,514210
1360.85,0.096351,635805,509299
1364.17,0.098425,633413,504966
1367.49,0.101160,631026,499905
1370.81,0.103593,628050,494767
1374.12,0.106536,625034,489066
1378.54,0.110324,620272,481125
1381.84,0.114391,616892,474043
1385.14,0.118957,613613,466592
1388.43,0.124252,611526,459370
1391.72,0.129909,610663,452786
1395.01,0.135257,610634,447223
1398.29,0.141672,611700,441435
1402.66,0.150037,614051,434678
1405.93,0.156855,616268,429452
1409.2,0.163064,617795,424405
1412.46,0.168730,618872,419634
1415.72,0.174240,619795,414962
1418.98,0.179168,620495,410743
1422.23,0.183506,621087,407049
1426.56,0.187890,621375,403147
1429.8,0.190726,621616,400679
1433.04,0.193664,622129,398306
1436.27,0.196201,621526,395602
1439.5,0.198092,621113,393621
1442.72,0.200967,620921,390903
1445.94,0.203070,620270,388607
1450.23,0.207277,618860,383986
1453.44,0.210536,617697,380399
1456.64,0.213307,616264,377103
1459.85,0.216067,614413,373588
1463.04,0.218533,612307,370200
1466.24,0.221968,610032,365919
1469.43,0.225187,607345,361617
1473.67,0.229796,603789,355704
1476.85,0.235319,601175,349689
1480.02,0.240705,597737,343404
1483.19,0.247304,594479,336382
1486.36,0.253644,591232,329696
1489.52,0.258505,587853,324163
1492.68,0.261965,583875,319415
1496.89,0.264923,578062,314088
1500.03,0.265616,574159,311470
1503.18,0.266334,570285,308857
1506.32,0.265158,565444,307066
1509.45,0.265177,560571,304406
1512.58,0.263930,555821,302695
1515.71,0.260765,550344,301904
1519.87,0.257734,543983,300505
1522.99,0.255174,538764,299381
1526.1,0.252114,533692,298660
1529.21,0.248467,527902,297911
1532.32,0.246288,521886,295997
1535.42,0.243038,515888,294793
1538.51,0.239694,509987,293674
1541.6,0.235982,503936,292680
1545.72,0.230984,494694,290638
1548.8,0.227243,488378,289410
1551.88,0.225023,481832,286994
1554.95,0.223249,474989,284076
1558.02,0.221077,467818,281190
1561.08,0.219281,460730,278077
1564.15,0.218698,454170,274486
1568.22,0.217428,444181,269235
1571.27,0.216508,436947,265412
1574.32,0.215557,429598,261520
1577.36,0.214174,422039,257738
1580.4,0.212804,414375,253857
1583.43,0.209998,406354,250557
1586.46,0.209078,398475,246220
1590.49,0.206181,388982,241963
1593.51,0.203678,380708,238185
1596.53,0.201544,372727,234340
1599.54,0.199258,365060,230731
1602.55,0.196188,357543,227583
1605.55,0.194299,349495,223430
1608.55,0.191880,341154,219316
1612.54,0.189293,330877,213980
1615.53,0.187268,322904,209800
1618.51,0.185116,315116,205757
1621.49,0.182961,307217,201597
1624.47,0.182775,299481,196605
1627.44,0.181189,292112,192469
1630.41,0.179965,284245,187814
1634.36,0.177897,274079,181961
1637.32,0.177850,266916,177225
1640.27,0.176176,259612,173041
1643.22,0.174826,251804,168359
1646.16,0.173854,244348,163740
1649.1,0.173017,236703,158923
1652.04,0.172914,228171,153231
1655.95,0.170721,215408,145392
1658.88,0.168062,204937,139174
1661.8,0.165908,193395,131989
1664.72,0.162028,179728,123762
1667.63,0.156442,163642,114144
1670.54,0.149706,146312,103651
1673.44,0.143282,128451,92354
1677.31,0.138103,105080,76457
1680.21,0.137597,88906,64764
1683.1,0.137861,75033,54625
1685.99,0.140909,63520,45920
1688.87,0.151437,53714,37901
1691.75,0.150818,45653,32259
1694.62,0.162367,39137,26929
1697.49,0.156064,33776,23580
1701.31,0.152958,28175,19811

File: Column 1_050543_20150331_115640.csv
Method:,Column 1,,
Host Date-Time:,31/3/15 @ 11:56:40,,
Header Version:,1,,
System Temp (C):,32.66,,
Detector Temp (C):,31.07,,
Humidity (%):,2.74,,
Lamp PD:,3824,,
Shift Vector Coefficients:,-10.5391,0.0761263,-0.000134223,,
Pixel to Wavelength Coefficients:,1775.68,-0.916766,-0.000235065,,
Serial Number:,5510004,,
Scan Config Name:,Column 1,,
Scan Config Type:,Slew,,
Section 1,,
Start wavelength (nm):,900,,
End wavelength (nm):,1700,,
Pattern Pixel Width (nm):,   7.03,,,,
Exposure (ms):,  0.635,,,,
Digital Resolution:,228,,
Num Repeats:,6,,
PGA Gain:,64,,
Total Measurement Time in sec:,  2.725,,
Wavelength (nm),Absorbance (AU),Reference Signal (unitless),Sample Signal (unitless)
901.51,0.045111,108485,97782
905.376,0.050290,121306,108042
909.237,0.052609,131909,116860
913.095,0.052956,143299,126849
916.948,0.053104,156982,138914
922.079,0.052126,179937,159586
925.923,0.053326,200504,177336
929.762,0.054671,222660,196323
933.597,0.055176,244426,215264
937.427,0.053930,263972,233146
941.254,0.054689,281845,248497
945.076,0.054578,297271,262165
950.165,0.054829,315605,278173
953.978,0.054923,328029,289061
957.786,0.054590,340470,300254
961.59,0.055258,352317,310224
965.389,0.055728,363056,319334
969.185,0.055641,373162,328289
972.976,0.056199,382632,336188
976.763,0.056630,391202,343377
981.806,0.057368,400190,350670
985.583,0.058029,406088,355297
989.355,0.058933,410162,358115
993.124,0.058834,412868,360560
996.888,0.059949,414263,360850
1000.65,0.060561,415476,361397
1004.4,0.061667,415479,360481
1009.41,0.063015,414358,358394
1013.15,0.063600,412923,356672
1016.89,0.064163,411526,355005
1020.63,0.064328,409066,352749
1024.36,0.063724,406777,351263
1028.09,0.063405,404427,349490
1031.82,0.063510,401911,347232
1036.78,0.062891,398410,344698
1040.49,0.061797,396204,343654
1044.2,0.061532,394236,342156
1047.91,0.060737,392042,340875
1051.61,0.060465,389823,339158
1055.31,0.059460,388234,338558
1059,0.058580,387599,338690
1063.92,0.058459,386688,337988
1067.61,0.056833,386598,339177
1071.29,0.055839,387377,340639
1074.96,0.055410,388536,341996
1078.63,0.054782,389855,343654
1082.3,0.053916,391215,345541
1085.96,0.053414,393215,347709
1090.84,0.052532,396270,351123
1094.49,0.052280,398760,353534
1098.14,0.051863,400987,355850
1101.79,0.051294,403477,358529
1105.43,0.050836,406116,361255
1109.06,0.051037,407701,362497
1112.7,0.050332,409859,365008
1117.53,0.050805,412494,366955
1121.15,0.051610,414909,368420
1124.77,0.052474,416559,369150
1128.38,0.053417,418532,370094
1131.99,0.055413,419956,369650
1135.6,0.057755,421946,369404
1139.2,0.059926,423881,369248
1143.99,0.061922,426786,370074
1147.58,0.063253,428617,370524
1151.17,0.064383,431169,371762
1154.75,0.065780,433579,372639
1158.33,0.068133,436264,372921
1161.91,0.070258,439132,373540
1165.48,0.073728,442389,373316
1169.04,0.076694,446101,373886
1173.79,0.080513,451929,375454
1177.34,0.083173,456026,376545
1180.9,0.085845,461306,378568
1184.44,0.087753,467657,382098
1187.99,0.088648,473969,386458
1191.52,0.088176,479856,391683
1195.06,0.087122,487372,398785
1199.76,0.086106,497347,407900
1203.29,0.084909,504311,414753
1206.81,0.083683,511507,421860
1210.33,0.082152,519078,429616
1213.84,0.081468,527163,436995
1217.35,0.079867,534208,444471
1220.85,0.079046,540472,450534
1225.51,0.077628,549929,459916
1229.01,0.077144,556888,466255
1232.5,0.076176,562180,471736
1235.98,0.075296,567975,477566
1239.46,0.074237,574815,484497
1242.94,0.073039,582782,492569
1246.41,0.072086,591476,501016
1251.03,0.072073,604016,511653
1254.5,0.071666,612289,519147
1257.96,0.072428,619125,524023
1261.41,0.072888,624551,528056
1264.86,0.072990,629900,532454
1268.31,0.073971,634345,535001
1271.75,0.074920,638574,537392
1276.33,0.075228,642499,540312
1279.76,0.075194,645905,543218
1283.19,0.074683,648307,545881
1286.61,0.074528,650446,547877
1290.03,0.073642,652132,550419
1293.44,0.073017,653907,552712
1296.85,0.072878,655963,554628
1301.39,0.072951,657349,555706
1304.8,0.072684,657558,556224
1308.19,0.072809,658515,556874
1311.58,0.073312,658804,556473
1314.97,0.073923,659011,555865
1318.36,0.074312,658272,554745
1321.73,0.074964,658022,553703
1326.23,0.075974,657870,552288
1329.6,0.077265,656482,549487
1332.97,0.078304,654926,546875
1336.33,0.079801,653727,543996
1339.69,0.081088,652497,541365
1343.04,0.082888,649913,536991
1346.39,0.085725,647671,531654
1349.73,0.088238,645338,526683
1354.18,0.091673,641175,519163
1357.52,0.094338,638376,513734
1360.85,0.096598,635805,509010
1364.17,0.099012,633413,504284
1367.49,0.101717,631026,499264
1370.81,0.104703,628050,493505
1374.12,0.106962,625034,488587
1378.54,0.110668,620272,480744
1381.84,0.114645,616892,473766
1385.14,0.119613,613613,465888
1388.43,0.125077,611526,458498
1391.72,0.129998,610663,452693
1395.01,0.136053,610634,446404
1398.29,0.141830,611700,441274
1402.66,0.150887,614051,433828
1405.93,0.157227,616268,429084
1409.2,0.163144,617795,424327
1412.46,0.169204,618872,419176
1415.72,0.174838,619795,414391
1418.98,0.179166,620495,410745
1422.23,0.182596,621087,407903
1426.56,0.188639,621375,402453
1429.8,0.190578,621616,400815
1433.04,0.194295,622129,397727
1436.27,0.196460,621526,395366
1439.5,0.199401,621113,392437
1442.72,0.201825,620921,390132
1445.94,0.204592,620270,387248
1450.23,0.207357,618860,383915
1453.44,0.210970,617697,380019
1456.64,0.213786,616264,376687
1459.85,0.216378,614413,373321
1463.04,0.218753,612307,370012
1466.24,0.221978,610032,365910
1469.43,0.225534,607345,361328
1473.67,0.230767,603789,354910
1476.85,0.235623,601175,349444
1480.02,0.241853,597737,342497
1483.19,0.247695,594479,336079
1486.36,0.253897,591232,329504
1489.52,0.258669,587853,324041
1492.68,0.262754,583875,318835
1496.89,0.265553,578062,313633
1500.03,0.266358,574159,310938
1503.18,0.266643,570285,308638
1506.32,0.265667,565444,306706
1509.45,0.264480,560571,304895
1512.58,0.263713,555821,302846
1515.71,0.261013,550344,301732
1519.87,0.257612,543983,300589
1522.99,0.255756,538764,298980
1526.1,0.252993,533692,298056
1529.21,0.249871,527902,296949
1532.32,0.246134,521886,296102
1535.42,0.242819,515888,294942
1538.51,0.239235,509987,293984
1541.6,0.236303,503936,292464
1545.72,0.232379,494694,289706
1548.8,0.227854,488378,289003
1551.88,0.225932,481832,286394
1554.95,0.223345,474989,284013
1558.02,0.220807,467818,281365
1561.08,0.219631,460730,277853
1564.15,0.219381,454170,274055
1568.22,0.218519,444181,268560
1571.27,0.217344,436947,264902
1574.32,0.216157,429598,261159
1577.36,0.214152,422039,257751
1580.4,0.212259,414375,254176
1583.43,0.210777,406354,250108
1586.46,0.209312,398475,246087
1590.49,0.206524,388982,241772
1593.51,0.204278,380708,237856
1596.53,0.201635,372727,234291
1599.54,0.199080,365060,230826
1602.55,0.197274,357543,227015
1605.55,0.195321,349495,222905
1608.55,0.192647,341154,218929
1612.54,0.189933,330877,213665
1615.53,0.187320,322904,209775
1618.51,0.186422,315116,205139
1621.49,0.184465,307217,200900
1624.47,0.183349,299481,196345
1627.44,0.181069,292112,192522
1630.41,0.180363,284245,187642
1634.36,0.178495,274079,181711
1637.32,0.178065,266916,177137
1640.27,0.176967,259612,172726
1643.22,0.174904,251804,168329
1646.16,0.174109,244348,163644
1649.1,0.173660,236703,158688
1652.04,0.172050,228171,153536
1655.95,0.170551,215408,145449
1658.88,0.168443,204937,139052
1661.8,0.166217,193395,131895
1664.72,0.163973,179728,123209
1667.63,0.156434,163642,114146
1670.54,0.150533,146312,103454
1673.44,0.146146,128451,91747
1677.31,0.138916,105080,76314
1680.21,0.138074,88906,64693
1683.1,0.132684,75033,55280
1685.99,0.142387,63520,45764
1688.87,0.146945,53714,38295
1691.75,0.149850,45653,32331
1694.62,0.154885,39137,27397
1697.49,0.157079,33776,23525
1701.31,0.168126,28175,19131

File: Column 1_050543_20150331_115643.csv
Method:,Column 1,,
Host Date-Time:,31/3/15 @ 11:56:43,,
Header Version:,1,,
System Temp (C):,32.72,,
Detector Temp (C):,31.11,,
Humidity (%):,2.74,,
Lamp PD:,3824,,
Shift Vector Coefficients:,-10.5391,0.0761263,-0.000134223,,
Pixel to Wavelength Coefficients:,1775.68,-0.916766,-0.000235065,,
Serial Number:,5510004,,
Scan Config Name:,Column 1,,
Scan Config Type:,Slew,,
Section 1,,
Start wavelength (nm):,900,,
End wavelength (nm):,1700,,
Pattern Pixel Width (nm):,   7.03,,,,
Exposure (ms):,  0.635,,,,
Digital Resolution:,228,,
Num Repeats:,6,,
PGA Gain:,64,,
Total Measurement Time in sec:,  2.720,,
Wavelength (nm),Absorbance (AU),Reference Signal (unitless),Sample Signal (unitless)
901.51,0.044042,108485,98023
905.376,0.049964,121306,108123
909.237,0.051525,131909,117152
913.095,0.051848,143299,127173
916.948,0.052601,156982,139075
922.079,0.052493,179937,159451
925.923,0.052062,200504,177853
929.762,0.053385,222660,196905
933.597,0.054696,244426,215502
937.427,0.053626,263972,233309
941.254,0.054502,281845,248604
945.076,0.053426,297271,262861
950.165,0.054250,315605,278544
953.978,0.053929,328029,289723
957.786,0.054214,340470,300514
961.59,0.054894,352317,310484
965.389,0.055007,363056,319865
969.185,0.054655,373162,329035
972.976,0.056156,382632,336221
976.763,0.056510,391202,343472
981.806,0.056655,400190,351246
985.583,0.057796,406088,355487
989.355,0.058095,410162,358807
993.124,0.058908,412868,360498
996.888,0.059569,414263,361166
1000.65,0.060200,415476,361698
1004.4,0.061782,415479,360385
1009.41,0.062814,414358,358560
1013.15,0.063179,412923,357018
1016.89,0.063783,411526,355316
1020.63,0.063860,409066,353129
1024.36,0.063388,406777,351535
1028.09,0.062991,404427,349824
1031.82,0.062597,401911,347963
1036.78,0.062452,398410,345047
1040.49,0.061600,396204,343810
1044.2,0.061191,394236,342425
1047.91,0.060194,392042,341302
1051.61,0.059790,389823,339686
1055.31,0.059203,388234,338759
1059,0.058294,387599,338913
1063.92,0.057299,386688,338892
1067.61,0.056282,386598,339608
1071.29,0.056093,387377,340440
1074.96,0.054677,388536,342574
1078.63,0.054254,389855,344072
1082.3,0.053245,391215,346075
1085.96,0.052650,393215,348321
1090.84,0.051519,396270,351943
1094.49,0.050830,398760,354717
1098.14,0.051335,400987,356283
1101.79,0.050539,403477,359153
1105.43,0.051451,406116,360744
1109.06,0.050740,407701,362745
1112.7,0.050788,409859,364625
1117.53,0.049958,412494,367671
1121.15,0.051733,414909,368315
1124.77,0.051919,416559,369622
1128.38,0.053163,418532,370310
1131.99,0.054983,419956,370016
1135.6,0.056877,421946,370152
1139.2,0.058975,423881,370057
1143.99,0.061653,426786,370303
1147.58,0.062731,428617,370970
1151.17,0.064415,431169,371734
1154.75,0.065552,433579,372835
1158.33,0.067651,436264,373335
1161.91,0.070182,439132,373605
1165.48,0.072963,442389,373974
1169.04,0.075407,446101,374996
1173.79,0.080178,451929,375744
1177.34,0.082479,456026,377147
1180.9,0.085226,461306,379108
1184.44,0.087500,467657,382320
1187.99,0.088045,473969,386995
1191.52,0.088101,479856,391751
1195.06,0.087059,487372,398843
1199.76,0.086076,497347,407928
1203.29,0.083829,504311,415786
1206.81,0.083243,511507,422288
1210.33,0.082029,519078,429738
1213.84,0.080928,527163,437539
1217.35,0.079911,534208,444426
1220.85,0.079005,540472,450576
1225.51,0.077201,549929,460369
1229.01,0.076751,556888,466677
1232.5,0.075556,562180,472410
1235.98,0.075084,567975,477799
1239.46,0.073564,574815,485248
1242.94,0.072244,582782,493471
1246.41,0.071730,591476,501426
1251.03,0.071796,604016,511979
1254.5,0.071825,612289,518957
1257.96,0.071847,619125,524725
1261.41,0.072895,624551,528048
1264.86,0.073228,629900,532162
1268.31,0.073650,634345,535397
1271.75,0.074422,638574,538009
1276.33,0.074843,642499,540791
1279.76,0.074717,645905,543815
1283.19,0.073979,648307,546766
1286.61,0.073661,650446,548972
1290.03,0.073410,652132,550713
1293.44,0.072999,653907,552735
1296.85,0.072591,655963,554994
1301.39,0.072046,657349,556865
1304.8,0.072138,657558,556924
1308.19,0.072509,658515,557259
1311.58,0.072861,658804,557051
1314.97,0.073851,659011,555958
1318.36,0.074443,658272,554578
1321.73,0.074633,658022,554125
1326.23,0.075767,657870,552552
1329.6,0.076726,656482,550170
1332.97,0.077640,654926,547712
1336.33,0.079185,653727,544768
1339.69,0.080807,652497,541716
1343.04,0.082642,649913,537295
1346.39,0.085156,647671,532351
1349.73,0.087825,645338,527184
1354.18,0.091306,641175,519602
1357.52,0.093509,638376,514716
1360.85,0.096359,635805,509290
1364.17,0.098526,633413,504848
1367.49,0.101273,631026,499775
1370.81,0.103756,628050,494582
1374.12,0.106215,625034,489428
1378.54,0.110762,620272,480640
1381.84,0.114863,616892,473528
1385.14,0.118731,613613,466835
1388.43,0.123946,611526,459694
1391.72,0.129961,610663,452731
1395.01,0.135419,610634,447056
1398.29,0.141513,611700,441596
1402.66,0.150507,614051,434208
1405.93,0.157168,616268,429143
1409.2,0.163207,617795,424265
1412.46,0.169063,618872,419313
1415.72,0.173994,619795,415197
1418.98,0.178801,620495,411090
1422.23,0.182538,621087,407957
1426.56,0.187664,621375,403357
1429.8,0.190868,621616,400548
1433.04,0.193361,622129,398584
1436.27,0.196271,621526,395538
1439.5,0.198268,621113,393462
1442.72,0.201445,620921,390473
1445.94,0.203279,620270,388420
1450.23,0.207300,618860,383966
1453.44,0.209726,617697,381109
1456.64,0.212928,616264,377432
1459.85,0.215893,614413,373738
1463.04,0.218077,612307,370589
1466.24,0.221547,610032,366274
1469.43,0.225109,607345,361682
1473.67,0.230213,603789,355363
1476.85,0.235274,601175,349725
1480.02,0.241238,597737,342983
1483.19,0.247363,594479,336336
1486.36,0.253863,591232,329530
1489.52,0.258375,587853,324260
1492.68,0.261992,583875,319395
1496.89,0.264940,578062,314076
1500.03,0.266007,574159,311190
1503.18,0.266628,570285,308648
1506.32,0.265982,565444,306484
1509.45,0.264865,560571,304625
1512.58,0.263031,555821,303322
1515.71,0.261294,550344,301537
1519.87,0.257531,543983,300645
1522.99,0.254625,538764,299760
1526.1,0.252101,533692,298669
1529.21,0.248831,527902,297661
1532.32,0.245840,521886,296303
1535.42,0.242351,515888,295260
1538.51,0.239518,509987,293793
1541.6,0.236652,503936,292229
1545.72,0.231537,494694,290268
1548.8,0.227963,488378,288930
1551.88,0.225220,481832,286864
1554.95,0.223313,474989,284034
1558.02,0.220084,467818,281834
1561.08,0.219842,460730,277718
1564.15,0.218075,454170,274880
1568.22,0.217851,444181,268973
1571.27,0.216593,436947,265360
1574.32,0.215983,429598,261264
1577.36,0.214623,422039,257472
1580.4,0.212539,414375,254012
1583.43,0.210841,406354,250071
1586.46,0.208852,398475,246348
1590.49,0.206824,388982,241605
1593.51,0.204342,380708,237821
1596.53,0.201126,372727,234566
1599.54,0.199081,365060,230825
1602.55,0.196261,357543,227545
1605.55,0.194508,349495,223323
1608.55,0.191332,341154,219593
1612.54,0.189702,330877,213779
1615.53,0.186780,322904,210036
1618.51,0.185754,315116,205455
1621.49,0.183763,307217,201225
1624.47,0.182437,299481,196758
1627.44,0.182124,292112,192055
1630.41,0.178995,284245,188234
1634.36,0.178184,274079,181841
1637.32,0.177208,266916,177487
1640.27,0.175912,259612,173146
1643.22,0.173235,251804,168977
1646.16,0.173279,244348,163957
1649.1,0.172523,236703,159104
1652.04,0.172079,228171,153526
1655.95,0.169889,215408,145671
1658.88,0.167021,204937,139508
1661.8,0.165188,193395,132208
1664.72,0.162046,179728,123757
1667.63,0.156099,163642,114234
1670.54,0.150247,146312,103522
1673.44,0.145327,128451,91920
1677.31,0.137541,105080,76556
1680.21,0.134997,88906,65153
1683.1,0.136210,75033,54833
1685.99,0.141524,63520,45855
1688.87,0.147581,53714,38239
1691.75,0.153397,45653,32068
1694.62,0.147638,39137,27858
1697.49,0.151156,33776,23848
1701.31,0.156015,28175,19672