Folder: textile_sorting_NIRSCAN_/samples/wool/wool-000811 (part 95)

File: Column 1_050582_20150331_121511.csv
Method:,Column 1,,
Host Date-Time:,31/3/15 @ 12:15:11,,
Header Version:,1,,
System Temp (C):,33.74,,
Detector Temp (C):,34.52,,
Humidity (%):,1.95,,
Lamp PD:,3819,,
Shift Vector Coefficients:,-10.5391,0.0761263,-0.000134223,,
Pixel to Wavelength Coefficients:,1775.68,-0.916766,-0.000235065,,
Serial Number:,5510004,,
Scan Config Name:,Column 1,,
Scan Config Type:,Slew,,
Section 1,,
Start wavelength (nm):,900,,
End wavelength (nm):,1700,,
Pattern Pixel Width (nm):,   7.03,,,,
Exposure (ms):,  0.635,,,,
Digital Resolution:,228,,
Num Repeats:,6,,
PGA Gain:,64,,
Total Measurement Time in sec:,  2.721,,
Wavelength (nm),Absorbance (AU),Reference Signal (unitless),Sample Signal (unitless)
901.51,0.071464,108485,92025
905.376,0.077224,121306,101545
909.237,0.079581,131909,109823
913.095,0.079333,143299,119374
916.948,0.080912,156982,130298
922.079,0.081949,179937,148995
925.923,0.082764,200504,165714
929.762,0.084016,222660,183496
933.597,0.084474,244426,201221
937.427,0.082610,263972,218247
941.254,0.081913,281845,233398
945.076,0.081408,297271,246459
950.165,0.080255,315605,262355
953.978,0.080421,328029,272578
957.786,0.079727,340470,283369
961.59,0.080017,352317,293033
965.389,0.079204,363056,302531
969.185,0.080464,373162,310051
972.976,0.080282,382632,318053
976.763,0.081255,391202,324449
981.806,0.081567,400190,331665
985.583,0.082642,406088,335721
989.355,0.082616,410162,339109
993.124,0.082695,412868,341284
996.888,0.083582,414263,341739
1000.65,0.084519,415476,342001
1004.4,0.085199,415479,341468
1009.41,0.086718,414358,339358
1013.15,0.087213,412923,337797
1016.89,0.087627,411526,336334
1020.63,0.087544,409066,334387
1024.36,0.087634,406777,332447
1028.09,0.087974,404427,330268
1031.82,0.086914,401911,329015
1036.78,0.086467,398410,326485
1040.49,0.086533,396204,324628
1044.2,0.086422,394236,323098
1047.91,0.086553,392042,321203
1051.61,0.086403,389823,319495
1055.31,0.084935,388234,319270
1059,0.085161,387599,318582
1063.92,0.085134,386688,317853
1067.61,0.084336,386598,318364
1071.29,0.083318,387377,319754
1074.96,0.082987,388536,320955
1078.63,0.082225,389855,322610
1082.3,0.081195,391215,324504
1085.96,0.080804,393215,326457
1090.84,0.080040,396270,329573
1094.49,0.079854,398760,331786
1098.14,0.079065,400987,334245
1101.79,0.078841,403477,336494
1105.43,0.078023,406116,339334
1109.06,0.078177,407701,340537
1112.7,0.077190,409859,343119
1117.53,0.077680,412494,344935
1121.15,0.077383,414909,347192
1124.77,0.077396,416559,348562
1128.38,0.077517,418532,350116
1131.99,0.079347,419956,349830
1135.6,0.081057,421946,350106
1139.2,0.082329,423881,350683
1143.99,0.084365,426786,351435
1147.58,0.085185,428617,352277
1151.17,0.086487,431169,353314
1154.75,0.087481,433579,354476
1158.33,0.088907,436264,355502
1161.91,0.091004,439132,356116
1165.48,0.092565,442389,357470
1169.04,0.095160,446101,358322
1173.79,0.098348,451929,360348
1177.34,0.100215,456026,362055
1180.9,0.102451,461306,364366
1184.44,0.104336,467657,367783
1187.99,0.104792,473969,372356
1191.52,0.105110,479856,376705
1195.06,0.104914,487372,382778
1199.76,0.103775,497347,391638
1203.29,0.103713,504311,397178
1206.81,0.103070,511507,403442
1210.33,0.101973,519078,410449
1213.84,0.101735,527163,417071
1217.35,0.101201,534208,423165
1220.85,0.100417,540472,428900
1225.51,0.099874,549929,436951
1229.01,0.099287,556888,443079
1232.5,0.098968,562180,447618
1235.98,0.098576,567975,452640
1239.46,0.097419,574815,459313
1242.94,0.096040,582782,467161
1246.41,0.095814,591476,474376
1251.03,0.095712,604016,484548
1254.5,0.096016,612289,490841
1257.96,0.096394,619125,495889
1261.41,0.096613,624551,499983
1264.86,0.097151,629900,503641
1268.31,0.097355,634345,506956
1271.75,0.098672,638574,508791
1276.33,0.098449,642499,512181
1279.76,0.098440,645905,514907
1283.19,0.097899,648307,517466
1286.61,0.097550,650446,519591
1290.03,0.097712,652132,520743
1293.44,0.096897,653907,523141
1296.85,0.096843,655963,524851
1301.39,0.096497,657349,526379
1304.8,0.096462,657558,526589
1308.19,0.096790,658515,526957
1311.58,0.096510,658804,527529
1314.97,0.097209,659011,526846
1318.36,0.098087,658272,525192
1321.73,0.098521,658022,524468
1326.23,0.099199,657870,523529
1329.6,0.100115,656482,521324
1332.97,0.101022,654926,519003
1336.33,0.102521,653727,516268
1339.69,0.104058,652497,513477
1343.04,0.105471,649913,509782
1346.39,0.107565,647671,505579
1349.73,0.109600,645338,501403
1354.18,0.112491,641175,494864
1357.52,0.114595,638376,490322
1360.85,0.116477,635805,486236
1364.17,0.118503,633413,482152
1367.49,0.120620,631026,477999
1370.81,0.123188,628050,472940
1374.12,0.125256,625034,468433
1378.54,0.128469,620272,461438
1381.84,0.131874,616892,455339
1385.14,0.135535,613613,449117
1388.43,0.139655,611526,443363
1391.72,0.144200,610663,438129
1395.01,0.149094,610634,433199
1398.29,0.154526,611700,428561
1402.66,0.161788,614051,423074
1405.93,0.167361,616268,419188
1409.2,0.173203,617795,414612
1412.46,0.177948,618872,410821
1415.72,0.182479,619795,407164
1418.98,0.186475,620495,403890
1422.23,0.189845,621087,401151
1426.56,0.194140,621375,397387
1429.8,0.197411,621616,394558
1433.04,0.199472,622129,393014
1436.27,0.202002,621526,390353
1439.5,0.204126,621113,388190
1442.72,0.206578,620921,385885
1445.94,0.208971,620270,383363
1450.23,0.212335,618860,379540
1453.44,0.214653,617697,376810
1456.64,0.217409,616264,373558
1459.85,0.219616,614413,370548
1463.04,0.222082,612307,367187
1466.24,0.225591,610032,362879
1469.43,0.228779,607345,358638
1473.67,0.234286,603789,352046
1476.85,0.239060,601175,346690
1480.02,0.244361,597737,340525
1483.19,0.249063,594479,335022
1486.36,0.253955,591232,329460
1489.52,0.258342,587853,324285
1492.68,0.262096,583875,319318
1496.89,0.263697,578062,314976
1500.03,0.263929,574159,312682
1503.18,0.263867,570285,310617
1506.32,0.262947,565444,308633
1509.45,0.261809,560571,306776
1512.58,0.260249,555821,305271
1515.71,0.258301,550344,303622
1519.87,0.255058,543983,302362
1522.99,0.252441,538764,301271
1526.1,0.250755,533692,299596
1529.21,0.247484,527902,298586
1532.32,0.244699,521886,297082
1535.42,0.242192,515888,295368
1538.51,0.239433,509987,293850
1541.6,0.236686,503936,292206
1545.72,0.231907,494694,290021
1548.8,0.229608,488378,287838
1551.88,0.227055,481832,285654
1554.95,0.224903,474989,282996
1558.02,0.223194,467818,279823
1561.08,0.222146,460730,276249
1564.15,0.221280,454170,272859
1568.22,0.219860,444181,267732
1571.27,0.219475,436947,263605
1574.32,0.218241,429598,259909
1577.36,0.217518,422039,255761
1580.4,0.215976,414375,252010
1583.43,0.214173,406354,248160
1586.46,0.212986,398475,244014
1590.49,0.210356,388982,239648
1593.51,0.209371,380708,235083
1596.53,0.206510,372727,231676
1599.54,0.205551,365060,227412
1602.55,0.203142,357543,223968
1605.55,0.201862,349495,219573
1608.55,0.198988,341154,215756
1612.54,0.197139,330877,210149
1615.53,0.195571,322904,205827
1618.51,0.194549,315116,201336
1621.49,0.192404,307217,197261
1624.47,0.192115,299481,192422
1627.44,0.191692,292112,187870
1630.41,0.189962,284245,183540
1634.36,0.188147,274079,177717
1637.32,0.189487,266916,172539
1640.27,0.187053,259612,168761
1643.22,0.186309,251804,163966
1646.16,0.186052,244348,159205
1649.1,0.184365,236703,154824
1652.04,0.182383,228171,149926
1655.95,0.179984,215408,142324
1658.88,0.177093,204937,136310
1661.8,0.170865,193395,130491
1664.72,0.163561,179728,123326
1667.63,0.150817,163642,115632
1670.54,0.137006,146312,106727
1673.44,0.121398,128451,97127
1677.31,0.103511,105080,82796
1680.21,0.092220,88906,71897
1683.1,0.090671,75033,60895
1685.99,0.092421,63520,51344
1688.87,0.092238,53714,43436
1691.75,0.091467,45653,36983
1694.62,0.103473,39137,30840
1697.49,0.107399,33776,26376
1701.31,0.111009,28175,21820

File: Column 1_050582_20150331_121514.csv
Method:,Column 1,,
Host Date-Time:,31/3/15 @ 12:15:14,,
Header Version:,1,,
System Temp (C):,33.74,,
Detector Temp (C):,34.54,,
Humidity (%):,1.95,,
Lamp PD:,3819,,
Shift Vector Coefficients:,-10.5391,0.0761263,-0.000134223,,
Pixel to Wavelength Coefficients:,1775.68,-0.916766,-0.000235065,,
Serial Number:,5510004,,
Scan Config Name:,Column 1,,
Scan Config Type:,Slew,,
Section 1,,
Start wavelength (nm):,900,,
End wavelength (nm):,1700,,
Pattern Pixel Width (nm):,   7.03,,,,
Exposure (ms):,  0.635,,,,
Digital Resolution:,228,,
Num Repeats:,6,,
PGA Gain:,64,,
Total Measurement Time in sec:,  2.674,,
Wavelength (nm),Absorbance (AU),Reference Signal (unitless),Sample Signal (unitless)
901.51,0.071766,108485,91961
905.376,0.075938,121306,101846
909.237,0.078969,131909,109978
913.095,0.078657,143299,119560
916.948,0.082020,156982,129966
922.079,0.082197,179937,148910
925.923,0.082339,200504,165876
929.762,0.084373,222660,183345
933.597,0.083480,244426,201682
937.427,0.082649,263972,218227
941.254,0.082174,281845,233258
945.076,0.080617,297271,246908
950.165,0.080683,315605,262096
953.978,0.079928,328029,272888
957.786,0.080718,340470,282723
961.59,0.080907,352317,292433
965.389,0.080236,363056,301813
969.185,0.080243,373162,310209
972.976,0.081213,382632,317372
976.763,0.080828,391202,324768
981.806,0.081263,400190,331897
985.583,0.082157,406088,336096
989.355,0.082752,410162,339003
993.124,0.083192,412868,340894
996.888,0.083885,414263,341500
1000.65,0.084298,415476,342175
1004.4,0.084870,415479,341727
1009.41,0.086430,414358,339583
1013.15,0.087181,412923,337822
1016.89,0.087636,411526,336327
1020.63,0.087525,409066,334402
1024.36,0.087522,406777,332533
1028.09,0.087340,404427,330750
1031.82,0.086964,401911,328977
1036.78,0.086619,398410,326371
1040.49,0.086632,396204,324554
1044.2,0.086571,394236,322987
1047.91,0.086634,392042,321143
1051.61,0.085898,389823,319867
1055.31,0.085904,388234,318559
1059,0.084040,387599,319406
1063.92,0.084369,386688,318414
1067.61,0.083658,386598,318861
1071.29,0.083327,387377,319747
1074.96,0.083186,388536,320808
1078.63,0.083169,389855,321910
1082.3,0.081866,391215,324003
1085.96,0.080836,393215,326433
1090.84,0.080245,396270,329417
1094.49,0.079164,398760,332313
1098.14,0.079002,400987,334294
1101.79,0.078772,403477,336548
1105.43,0.077946,406116,339394
1109.06,0.077344,407701,341191
1112.7,0.076738,409859,343476
1117.53,0.077068,412494,345422
1121.15,0.077805,414909,346855
1124.77,0.077590,416559,348407
1128.38,0.078451,418532,349364
1131.99,0.079169,419956,349973
1135.6,0.080887,421946,350243
1139.2,0.082609,423881,350457
1143.99,0.084378,426786,351425
1147.58,0.085419,428617,352087
1151.17,0.086510,431169,353295
1154.75,0.087102,433579,354786
1158.33,0.089131,436264,355319
1161.91,0.090999,439132,356120
1165.48,0.093236,442389,356918
1169.04,0.094432,446101,358923
1173.79,0.098288,451929,360398
1177.34,0.099719,456026,362469
1180.9,0.102331,461306,364467
1184.44,0.103929,467657,368128
1187.99,0.105320,473969,371903
1191.52,0.104713,479856,377049
1195.06,0.104842,487372,382841
1199.76,0.104139,497347,391310
1203.29,0.103283,504311,397572
1206.81,0.103243,511507,403282
1210.33,0.101790,519078,410622
1213.84,0.101860,527163,416951
1217.35,0.101411,534208,422960
1220.85,0.100651,540472,428669
1225.51,0.099703,549929,437123
1229.01,0.099634,556888,442725
1232.5,0.099152,562180,447428
1235.98,0.098227,567975,453004
1239.46,0.097223,574815,459521
1242.94,0.096310,582782,466870
1246.41,0.095625,591476,474583
1251.03,0.095712,604016,484548
1254.5,0.095669,612289,491233
1257.96,0.096240,619125,496065
1261.41,0.097136,624551,499381
1264.86,0.097193,629900,503592
1268.31,0.097560,634345,506717
1271.75,0.098223,638574,509317
1276.33,0.098669,642499,511922
1279.76,0.098269,645905,515110
1283.19,0.097986,648307,517362
1286.61,0.097806,650446,519284
1290.03,0.097297,652132,521241
1293.44,0.096545,653907,523565
1296.85,0.096917,655963,524762
1301.39,0.096254,657349,526674
1304.8,0.096452,657558,526602
1308.19,0.096771,658515,526981
1311.58,0.096540,658804,527492
1314.97,0.098056,659011,525819
1318.36,0.097990,658272,525310
1321.73,0.098270,658022,524772
1326.23,0.099086,657870,523666
1329.6,0.100534,656482,520822
1332.97,0.101037,654926,518986
1336.33,0.102304,653727,516526
1339.69,0.103321,652497,514349
1343.04,0.105431,649913,509829
1346.39,0.107797,647671,505309
1349.73,0.109399,645338,501635
1354.18,0.112452,641175,494908
1357.52,0.114944,638376,489928
1360.85,0.116262,635805,486477
1364.17,0.118089,633413,482612
1367.49,0.120894,631026,477698
1370.81,0.122673,628050,473501
1374.12,0.125093,625034,468609
1378.54,0.128167,620272,461759
1381.84,0.131727,616892,455493
1385.14,0.135604,613613,449046
1388.43,0.139070,611526,443961
1391.72,0.144592,610663,437733
1395.01,0.149462,610634,432832
1398.29,0.154083,611700,428998
1402.66,0.161538,614051,423318
1405.93,0.167216,616268,419328
1409.2,0.172689,617795,415103
1412.46,0.177934,618872,410834
1415.72,0.182276,619795,407354
1418.98,0.186232,620495,404116
1422.23,0.190015,621087,400994
1426.56,0.194047,621375,397472
1429.8,0.197035,621616,394900
1433.04,0.199886,622129,392640
1436.27,0.201825,621526,390512
1439.5,0.204074,621113,388237
1442.72,0.206593,620921,385872
1445.94,0.208606,620270,383685
1450.23,0.211840,618860,379973
1453.44,0.214337,617697,377084
1456.64,0.216958,616264,373946
1459.85,0.220164,614413,370081
1463.04,0.222277,612307,367022
1466.24,0.225021,610032,363355
1469.43,0.228237,607345,359086
1473.67,0.234018,603789,352263
1476.85,0.238471,601175,347160
1480.02,0.244250,597737,340612
1483.19,0.249346,594479,334804
1486.36,0.254364,591232,329150
1489.52,0.257948,587853,324579
1492.68,0.261644,583875,319651
1496.89,0.263529,578062,315098
1500.03,0.264211,574159,312479
1503.18,0.263892,570285,310599
1506.32,0.262839,565444,308710
1509.45,0.261917,560571,306700
1512.58,0.260191,555821,305312
1515.71,0.257829,550344,303952
1519.87,0.254902,543983,302471
1522.99,0.252519,538764,301217
1526.1,0.249977,533692,300133
1529.21,0.247237,527902,298756
1532.32,0.244715,521886,297071
1535.42,0.241735,515888,295679
1538.51,0.238949,509987,294178
1541.6,0.236018,503936,292656
1545.72,0.232258,494694,289787
1548.8,0.229849,488378,287678
1551.88,0.225724,481832,286531
1554.95,0.225206,474989,282799
1558.02,0.222863,467818,280036
1561.08,0.221967,460730,276363
1564.15,0.221146,454170,272943
1568.22,0.219685,444181,267840
1571.27,0.218882,436947,263965
1574.32,0.218527,429598,259738
1577.36,0.217822,422039,255582
1580.4,0.215919,414375,252043
1583.43,0.214243,406354,248120
1586.46,0.213369,398475,243799
1590.49,0.211266,388982,239146
1593.51,0.209824,380708,234838
1596.53,0.206787,372727,231528
1599.54,0.205385,365060,227499
1602.55,0.202604,357543,224246
1605.55,0.200661,349495,220181
1608.55,0.199070,341154,215715
1612.54,0.196850,330877,210289
1615.53,0.195160,322904,206022
1618.51,0.194085,315116,201551
1621.49,0.193910,307217,196578
1624.47,0.191932,299481,192503
1627.44,0.190967,292112,188184
1630.41,0.189789,284245,183613
1634.36,0.188259,274079,177671
1637.32,0.187932,266916,173158
1640.27,0.188501,259612,168199
1643.22,0.186251,251804,163988
1646.16,0.184799,244348,159665
1649.1,0.185365,236703,154468
1652.04,0.184108,228171,149332
1655.95,0.179538,215408,142470
1658.88,0.174944,204937,136986
1661.8,0.171728,193395,130232
1664.72,0.164231,179728,123136
1667.63,0.151196,163642,115531
1670.54,0.137894,146312,106509
1673.44,0.121205,128451,97170
1677.31,0.103364,105080,82824
1680.21,0.093903,88906,71619
1683.1,0.089240,75033,61096
1685.99,0.084982,63520,52231
1688.87,0.089517,53714,43709
1691.75,0.099491,45653,36306
1694.62,0.105647,39137,30686
1697.49,0.102048,33776,26703
1701.31,0.115631,28175,21589

File: Column 1_050583_20150331_121525.csv
Method:,Column 1,,
Host Date-Time:,31/3/15 @ 12:15:25,,
Header Version:,1,,
System Temp (C):,33.75,,
Detector Temp (C):,34.49,,
Humidity (%):,1.95,,
Lamp PD:,3819,,
Shift Vector Coefficients:,-10.5391,0.0761263,-0.000134223,,
Pixel to Wavelength Coefficients:,1775.68,-0.916766,-0.000235065,,
Serial Number:,5510004,,
Scan Config Name:,Column 1,,
Scan Config Type:,Slew,,
Section 1,,
Start wavelength (nm):,900,,
End wavelength (nm):,1700,,
Pattern Pixel Width (nm):,   7.03,,,,
Exposure (ms):,  0.635,,,,
Digital Resolution:,228,,
Num Repeats:,6,,
PGA Gain:,64,,
Total Measurement Time in sec:,  2.728,,
Wavelength (nm),Absorbance (AU),Reference Signal (unitless),Sample Signal (unitless)
901.51,0.071780,108485,91958
905.376,0.074525,121306,102178
909.237,0.078046,131909,110212
913.095,0.079588,143299,119304
916.948,0.080120,156982,130536
922.079,0.081917,179937,149006
925.923,0.084239,200504,165152
929.762,0.082541,222660,184120
933.597,0.084250,244426,201325
937.427,0.082998,263972,218052
941.254,0.082066,281845,233316
945.076,0.081637,297271,246329
950.165,0.081144,315605,261818
953.978,0.079723,328029,273017
957.786,0.080788,340470,282677
961.59,0.080297,352317,292844
965.389,0.080567,363056,301583
969.185,0.079737,373162,310571
972.976,0.080321,382632,318024
976.763,0.081277,391202,324432
981.806,0.081284,400190,331881
985.583,0.082316,406088,335973
989.355,0.082703,410162,339041
993.124,0.083145,412868,340931
996.888,0.083790,414263,341575
1000.65,0.084326,415476,342153
1004.4,0.085769,415479,341020
1009.41,0.086677,414358,339390
1013.15,0.086602,412923,338273
1016.89,0.087522,411526,336415
1020.63,0.087397,409066,334500
1024.36,0.087688,406777,332406
1028.09,0.087773,404427,330421
1031.82,0.087309,401911,328716
1036.78,0.086773,398410,326255
1040.49,0.087190,396204,324137
1044.2,0.086766,394236,322842
1047.91,0.086437,392042,321289
1051.61,0.086037,389823,319765
1055.31,0.085778,388234,318651
1059,0.084838,387599,318819
1063.92,0.084358,386688,318422
1067.61,0.083779,386598,318772
1071.29,0.083803,387377,319397
1074.96,0.082680,388536,321182
1078.63,0.082914,389855,322099
1082.3,0.081527,391215,324256
1085.96,0.081045,393215,326276
1090.84,0.080173,396270,329472
1094.49,0.079842,398760,331795
1098.14,0.079085,400987,334230
1101.79,0.078493,403477,336764
1105.43,0.077890,406116,339438
1109.06,0.077027,407701,341440
1112.7,0.077534,409859,342847
1117.53,0.076028,412494,346250
1121.15,0.077256,414909,347294
1124.77,0.077563,416559,348428
1128.38,0.078407,418532,349399
1131.99,0.079578,419956,349644
1135.6,0.080612,421946,350465
1139.2,0.082475,423881,350565
1143.99,0.085216,426786,350747
1147.58,0.085553,428617,351979
1151.17,0.085842,431169,353839
1154.75,0.087633,433579,354352
1158.33,0.088745,436264,355635
1161.91,0.090650,439132,356406
1165.48,0.092651,442389,357399
1169.04,0.094799,446101,358620
1173.79,0.098214,451929,360459
1177.34,0.100312,456026,361974
1180.9,0.102338,461306,364461
1184.44,0.104245,467657,367860
1187.99,0.105246,473969,371967
1191.52,0.104995,479856,376804
1195.06,0.104998,487372,382704
1199.76,0.104132,497347,391316
1203.29,0.103574,504311,397305
1206.81,0.103096,511507,403418
1210.33,0.102839,519078,409632
1213.84,0.101345,527163,417446
1217.35,0.101271,534208,423096
1220.85,0.100501,540472,428817
1225.51,0.100155,549929,436668
1229.01,0.099737,556888,442620
1232.5,0.098888,562180,447700
1235.98,0.098298,567975,452930
1239.46,0.097152,574815,459596
1242.94,0.095698,582782,467529
1246.41,0.095803,591476,474388
1251.03,0.095757,604016,484497
1254.5,0.095790,612289,491096
1257.96,0.096170,619125,496145
1261.41,0.096527,624551,500082
1264.86,0.097022,629900,503790
1268.31,0.097692,634345,506563
1271.75,0.098328,638574,509194
1276.33,0.098320,642499,512333
1279.76,0.098468,645905,514874
1283.19,0.098096,648307,517231
1286.61,0.097617,650446,519510
1290.03,0.097463,652132,521042
1293.44,0.097076,653907,522926
1296.85,0.096867,655963,524822
1301.39,0.096555,657349,526309
1304.8,0.096265,657558,526828
1308.19,0.096734,658515,527025
1311.58,0.096680,658804,527322
1314.97,0.097180,659011,526881
1318.36,0.097933,658272,525379
1321.73,0.098006,658022,525091
1326.23,0.099076,657870,523678
1329.6,0.100203,656482,521219
1332.97,0.101104,654926,518906
1336.33,0.102391,653727,516423
1339.69,0.103675,652497,513930
1343.04,0.105620,649913,509607
1346.39,0.107718,647671,505401
1349.73,0.109726,645338,501258
1354.18,0.112453,641175,494907
1357.52,0.114553,638376,490370
1360.85,0.116065,635805,486697
1364.17,0.118464,633413,482195
1367.49,0.120459,631026,478177
1370.81,0.122821,628050,473340
1374.12,0.125241,625034,468449
1378.54,0.128079,620272,461852
1381.84,0.131445,616892,455789
1385.14,0.135487,613613,449167
1388.43,0.139559,611526,443461
1391.72,0.144187,610663,438142
1395.01,0.148804,610634,433488
1398.29,0.154114,611700,428968
1402.66,0.161830,614051,423033
1405.93,0.166908,616268,419625
1409.2,0.172852,617795,414947
1412.46,0.177913,618872,410854
1415.72,0.182092,619795,407527
1418.98,0.186935,620495,403463
1422.23,0.190019,621087,400990
1426.56,0.193975,621375,397538
1429.8,0.196185,621616,395674
1433.04,0.199450,622129,393034
1436.27,0.201777,621526,390555
1439.5,0.203728,621113,388546
1442.72,0.206045,620921,386359
1445.94,0.207959,620270,384257
1450.23,0.212178,618860,379677
1453.44,0.214398,617697,377031
1456.64,0.217148,616264,373782
1459.85,0.219240,614413,370869
1463.04,0.221998,612307,367258
1466.24,0.224982,610032,363388
1469.43,0.228452,607345,358908
1473.67,0.233869,603789,352384
1476.85,0.238235,601175,347349
1480.02,0.243711,597737,341035
1483.19,0.249181,594479,334931
1486.36,0.253862,591232,329531
1489.52,0.258488,587853,324176
1492.68,0.261287,583875,319914
1496.89,0.262833,578062,315603
1500.03,0.263804,574159,312772
1503.18,0.263837,570285,310638
1506.32,0.263080,565444,308539
1509.45,0.261620,560571,306910
1512.58,0.259925,555821,305499
1515.71,0.258300,550344,303623
1519.87,0.255512,543983,302046
1522.99,0.252919,538764,300940
1526.1,0.250397,533692,299843
1529.21,0.247131,527902,298829
1532.32,0.244341,521886,297327
1535.42,0.241911,515888,295559
1538.51,0.238987,509987,294152
1541.6,0.235890,503936,292742
1545.72,0.232408,494694,289687
1548.8,0.229498,488378,287911
1551.88,0.227083,481832,285636
1554.95,0.225232,474989,282782
1558.02,0.222899,467818,280013
1561.08,0.222523,460730,276009
1564.15,0.221964,454170,272430
1568.22,0.219642,444181,267866
1571.27,0.219421,436947,263638
1574.32,0.218547,429598,259726
1577.36,0.216994,422039,256070
1580.4,0.216038,414375,251974
1583.43,0.214858,406354,247769
1586.46,0.213683,398475,243623
1590.49,0.210961,388982,239314
1593.51,0.208743,380708,235423
1596.53,0.206975,372727,231428
1599.54,0.205471,365060,227454
1602.55,0.203272,357543,223901
1605.55,0.201070,349495,219974
1608.55,0.198943,341154,215778
1612.54,0.197555,330877,209948
1615.53,0.195622,322904,205803
1618.51,0.194340,315116,201433
1621.49,0.194001,307217,196537
1624.47,0.192401,299481,192295
1627.44,0.190720,292112,188291
1630.41,0.190495,284245,183315
1634.36,0.188763,274079,177465
1637.32,0.187503,266916,173329
1640.27,0.186376,259612,169024
1643.22,0.186505,251804,163892
1646.16,0.184932,244348,159616
1649.1,0.185132,236703,154551
1652.04,0.183068,228171,149690
1655.95,0.179788,215408,142388
1658.88,0.176504,204937,136495
1661.8,0.170752,193395,130525
1664.72,0.163360,179728,123383
1667.63,0.152035,163642,115308
1670.54,0.138845,146312,106276
1673.44,0.123217,128451,96721
1677.31,0.103605,105080,82778
1680.21,0.092196,88906,71901
1683.1,0.087282,75033,61372
1685.99,0.089949,63520,51637
1688.87,0.091708,53714,43489
1691.75,0.096487,45653,36558
1694.62,0.098057,39137,31227
1697.49,0.117494,33776,25770
1701.31,0.116618,28175,21540