Folder: textile_sorting_NIRSCAN_/samples/wool/wool-000811 (part 179)

File: Column 1_050630_20150331_123754.csv
Method:,Column 1,,
Host Date-Time:,31/3/15 @ 12:37:54,,
Header Version:,1,,
System Temp (C):,34.14,,
Detector Temp (C):,35.08,,
Humidity (%):,1.56,,
Lamp PD:,3818,,
Shift Vector Coefficients:,-10.5391,0.0761263,-0.000134223,,
Pixel to Wavelength Coefficients:,1775.68,-0.916766,-0.000235065,,
Serial Number:,5510004,,
Scan Config Name:,Column 1,,
Scan Config Type:,Slew,,
Section 1,,
Start wavelength (nm):,900,,
End wavelength (nm):,1700,,
Pattern Pixel Width (nm):,   7.03,,,,
Exposure (ms):,  0.635,,,,
Digital Resolution:,228,,
Num Repeats:,6,,
PGA Gain:,64,,
Total Measurement Time in sec:,  2.665,,
Wavelength (nm),Absorbance (AU),Reference Signal (unitless),Sample Signal (unitless)
901.51,0.066961,108485,92984
905.376,0.073472,121306,102426
909.237,0.076095,131909,110708
913.095,0.076935,143299,120035
916.948,0.078204,156982,131113
922.079,0.080488,179937,149497
925.923,0.081168,200504,166324
929.762,0.083051,222660,183904
933.597,0.081594,244426,202560
937.427,0.079716,263972,219706
941.254,0.080281,281845,234277
945.076,0.078890,297271,247892
950.165,0.077851,315605,263811
953.978,0.076300,328029,275177
957.786,0.077476,340470,284841
961.59,0.077599,352317,294669
965.389,0.076549,363056,304386
969.185,0.076760,373162,312707
972.976,0.077308,382632,320238
976.763,0.077503,391202,327264
981.806,0.078010,400190,334392
985.583,0.079176,406088,338411
989.355,0.079056,410162,341900
993.124,0.079476,412868,343823
996.888,0.080555,414263,344129
1000.65,0.080582,415476,345115
1004.4,0.081558,415479,344343
1009.41,0.083157,414358,342152
1013.15,0.084174,412923,340169
1016.89,0.084518,411526,338750
1020.63,0.083827,409066,337261
1024.36,0.083757,406777,335428
1028.09,0.083914,404427,333370
1031.82,0.083599,401911,331536
1036.78,0.082924,398410,329159
1040.49,0.083343,396204,327021
1044.2,0.083175,394236,325523
1047.91,0.082938,392042,323888
1051.61,0.081860,389823,322855
1055.31,0.082095,388234,321365
1059,0.081083,387599,321588
1063.92,0.080674,386688,321134
1067.61,0.080399,386598,321263
1071.29,0.079285,387377,322737
1074.96,0.078759,388536,324095
1078.63,0.078300,389855,325539
1082.3,0.077617,391215,327189
1085.96,0.076875,393215,329424
1090.84,0.075667,396270,332908
1094.49,0.075392,398760,335212
1098.14,0.074820,400987,337528
1101.79,0.074417,403477,339940
1105.43,0.074066,406116,342440
1109.06,0.072715,407701,344847
1112.7,0.072980,409859,346461
1117.53,0.072526,412494,349053
1121.15,0.073041,414909,350681
1124.77,0.073215,416559,351934
1128.38,0.073835,418532,353097
1131.99,0.075156,419956,353222
1135.6,0.076405,421946,353877
1139.2,0.077818,423881,354345
1143.99,0.079880,426786,355083
1147.58,0.080895,428617,355774
1151.17,0.080896,431169,357892
1154.75,0.082365,433579,358677
1158.33,0.083785,436264,359720
1161.91,0.085742,439132,360457
1165.48,0.087253,442389,361869
1169.04,0.089446,446101,363067
1173.79,0.093249,451929,364604
1177.34,0.095542,456026,365972
1180.9,0.097383,461306,368643
1184.44,0.099066,467657,372273
1187.99,0.100187,473969,376325
1191.52,0.100275,479856,380922
1195.06,0.100015,487372,387120
1199.76,0.099453,497347,395555
1203.29,0.098656,504311,401830
1206.81,0.098228,511507,407966
1210.33,0.097529,519078,414671
1213.84,0.097233,527163,421417
1217.35,0.096713,534208,427560
1220.85,0.095529,540472,433755
1225.51,0.096243,549929,440619
1229.01,0.094540,556888,447948
1232.5,0.093685,562180,453096
1235.98,0.092902,567975,458593
1239.46,0.091862,574815,465228
1242.94,0.091085,582782,472521
1246.41,0.090789,591476,479897
1251.03,0.090773,604016,490089
1254.5,0.090466,612289,497154
1257.96,0.091290,619125,501751
1261.41,0.091721,624551,505646
1264.86,0.092087,629900,509548
1268.31,0.092777,634345,512329
1271.75,0.092945,638574,515545
1276.33,0.093444,642499,518118
1279.76,0.093554,645905,520733
1283.19,0.093007,648307,523328
1286.61,0.092790,650446,525317
1290.03,0.092134,652132,527475
1293.44,0.091871,653907,529231
1296.85,0.091634,655963,531185
1301.39,0.091329,657349,532681
1304.8,0.091296,657558,532891
1308.19,0.091480,658515,533440
1311.58,0.091166,658804,534060
1314.97,0.091911,659011,533312
1318.36,0.092140,658272,532433
1321.73,0.092700,658022,531545
1326.23,0.093392,657870,530577
1329.6,0.093704,656482,529077
1332.97,0.094510,654926,526844
1336.33,0.095522,653727,524656
1339.69,0.096590,652497,522382
1343.04,0.098575,649913,517941
1346.39,0.100831,647671,513480
1349.73,0.102273,645338,509934
1354.18,0.104998,641175,503476
1357.52,0.107027,638376,498941
1360.85,0.109242,635805,494404
1364.17,0.111153,633413,490381
1367.49,0.112942,631026,486525
1370.81,0.114977,628050,481967
1374.12,0.117439,625034,476941
1378.54,0.120019,620272,470504
1381.84,0.123031,616892,464706
1385.14,0.125737,613613,459365
1388.43,0.128919,611526,454460
1391.72,0.132533,610663,450058
1395.01,0.136674,610634,445766
1398.29,0.140435,611700,442694
1402.66,0.146802,614051,437928
1405.93,0.151360,616268,434920
1409.2,0.155172,617795,432188
1412.46,0.159741,618872,428410
1415.72,0.163568,619795,425285
1418.98,0.166119,620495,423272
1422.23,0.169905,621087,419998
1426.56,0.174039,621375,416212
1429.8,0.176353,621616,414161
1433.04,0.178904,622129,412075
1436.27,0.181076,621526,409622
1439.5,0.182366,621113,408136
1442.72,0.185751,620921,404842
1445.94,0.187899,620270,402422
1450.23,0.191776,618860,397939
1453.44,0.194084,617697,395086
1456.64,0.197029,616264,391505
1459.85,0.200128,614413,387554
1463.04,0.202947,612307,383727
1466.24,0.206779,610032,378943
1469.43,0.210227,607345,374290
1473.67,0.217118,603789,366241
1476.85,0.222838,601175,359884
1480.02,0.229504,597737,352376
1483.19,0.236056,594479,345208
1486.36,0.242225,591232,338480
1489.52,0.247011,587853,332857
1492.68,0.250561,583875,327913
1496.89,0.251936,578062,323622
1500.03,0.253336,574159,320403
1503.18,0.253498,570285,318122
1506.32,0.252506,565444,316143
1509.45,0.251882,560571,313869
1512.58,0.249277,555821,313082
1515.71,0.247431,550344,311317
1519.87,0.243617,543983,310433
1522.99,0.241243,538764,309140
1526.1,0.238646,533692,308067
1529.21,0.235800,527902,306728
1532.32,0.233343,521886,304953
1535.42,0.230674,515888,303306
1538.51,0.227401,509987,302105
1541.6,0.224554,503936,300484
1545.72,0.220571,494694,297691
1548.8,0.217527,488378,295957
1551.88,0.215262,481832,293517
1554.95,0.214046,474989,290160
1558.02,0.212272,467818,286949
1561.08,0.210515,460730,283747
1564.15,0.210687,454170,279596
1568.22,0.209355,444181,274287
1571.27,0.208804,436947,270162
1574.32,0.208145,429598,266022
1577.36,0.206702,422039,262211
1580.4,0.205473,414375,258179
1583.43,0.204173,406354,253940
1586.46,0.202275,398475,250107
1590.49,0.200294,388982,245265
1593.51,0.198916,380708,240811
1596.53,0.197415,372727,236579
1599.54,0.194990,365060,233010
1602.55,0.192600,357543,229471
1605.55,0.191311,349495,224973
1608.55,0.188454,341154,221053
1612.54,0.187180,330877,215024
1615.53,0.185592,322904,210611
1618.51,0.184475,315116,206061
1621.49,0.184221,307217,201013
1624.47,0.182841,299481,196575
1627.44,0.180767,292112,192656
1630.41,0.179581,284245,187980
1634.36,0.179289,274079,181379
1637.32,0.179406,266916,176591
1640.27,0.177810,259612,172391
1643.22,0.177271,251804,167414
1646.16,0.175504,244348,163119
1649.1,0.174520,236703,158374
1652.04,0.173950,228171,152866
1655.95,0.171933,215408,144987
1658.88,0.166402,204937,139707
1661.8,0.160213,193395,133731
1664.72,0.154552,179728,125911
1667.63,0.140620,163642,118379
1670.54,0.126322,146312,109385
1673.44,0.109738,128451,99770
1677.31,0.087947,105080,85817
1680.21,0.077171,88906,74432
1683.1,0.068462,75033,64090
1685.99,0.069336,63520,54147
1688.87,0.074584,53714,45238
1691.75,0.073963,45653,38504
1694.62,0.088008,39137,31958
1697.49,0.091032,33776,27389
1701.31,0.096198,28175,22577