Folder: textile_sorting_NIRSCAN_/samples/wool/wool-000811 (part 91)

File: Column 1_050579_20150331_121345.csv
Method:,Column 1,,
Host Date-Time:,31/3/15 @ 12:13:45,,
Header Version:,1,,
System Temp (C):,33.77,,
Detector Temp (C):,34.6,,
Humidity (%):,1.95,,
Lamp PD:,3819,,
Shift Vector Coefficients:,-10.5391,0.0761263,-0.000134223,,
Pixel to Wavelength Coefficients:,1775.68,-0.916766,-0.000235065,,
Serial Number:,5510004,,
Scan Config Name:,Column 1,,
Scan Config Type:,Slew,,
Section 1,,
Start wavelength (nm):,900,,
End wavelength (nm):,1700,,
Pattern Pixel Width (nm):,   7.03,,,,
Exposure (ms):,  0.635,,,,
Digital Resolution:,228,,
Num Repeats:,6,,
PGA Gain:,64,,
Total Measurement Time in sec:,  2.678,,
Wavelength (nm),Absorbance (AU),Reference Signal (unitless),Sample Signal (unitless)
901.51,0.072130,108485,91884
905.376,0.075648,121306,101914
909.237,0.079336,131909,109885
913.095,0.079920,143299,119213
916.948,0.082184,156982,129917
922.079,0.082360,179937,148854
925.923,0.085024,200504,164854
929.762,0.083767,222660,183601
933.597,0.084902,244426,201023
937.427,0.083085,263972,218008
941.254,0.082794,281845,232925
945.076,0.081725,297271,246279
950.165,0.081146,315605,261817
953.978,0.080347,328029,272625
957.786,0.080472,340470,282883
961.59,0.079956,352317,293074
965.389,0.080761,363056,301448
969.185,0.081168,373162,309549
972.976,0.081333,382632,317284
976.763,0.081837,391202,324014
981.806,0.081827,400190,331466
985.583,0.082868,406088,335546
989.355,0.083339,410162,338545
993.124,0.083504,412868,340649
996.888,0.084374,414263,341116
1000.65,0.085050,415476,341583
1004.4,0.085492,415479,341238
1009.41,0.087384,414358,338838
1013.15,0.087991,412923,337193
1016.89,0.087778,411526,336217
1020.63,0.087649,409066,334306
1024.36,0.088366,406777,331887
1028.09,0.087953,404427,330284
1031.82,0.087695,401911,328424
1036.78,0.087334,398410,325834
1040.49,0.087299,396204,324056
1044.2,0.087619,394236,322209
1047.91,0.086734,392042,321069
1051.61,0.086651,389823,319313
1055.31,0.086564,388234,318075
1059,0.085923,387599,318024
1063.92,0.084661,386688,318200
1067.61,0.084675,386598,318115
1071.29,0.084527,387377,318865
1074.96,0.083443,388536,320618
1078.63,0.083511,389855,321656
1082.3,0.082373,391215,323625
1085.96,0.081611,393215,325851
1090.84,0.080721,396270,329056
1094.49,0.080578,398760,331233
1098.14,0.079708,400987,333751
1101.79,0.079040,403477,336340
1105.43,0.079253,406116,338374
1109.06,0.078429,407701,340340
1112.7,0.077796,409859,342640
1117.53,0.077390,412494,345166
1121.15,0.078372,414909,346402
1124.77,0.078862,416559,347388
1128.38,0.078951,418532,348962
1131.99,0.080130,419956,349200
1135.6,0.081487,421946,349760
1139.2,0.082716,423881,350371
1143.99,0.085361,426786,350630
1147.58,0.085472,428617,352044
1151.17,0.086856,431169,353014
1154.75,0.088026,433579,354032
1158.33,0.089720,436264,354837
1161.91,0.091193,439132,355961
1165.48,0.093663,442389,356567
1169.04,0.095767,446101,357821
1173.79,0.098687,451929,360067
1177.34,0.101052,456026,361358
1180.9,0.103117,461306,363808
1184.44,0.104427,467657,367706
1187.99,0.105566,473969,371693
1191.52,0.105602,479856,376278
1195.06,0.105869,487372,381937
1199.76,0.104788,497347,390725
1203.29,0.104091,504311,396833
1206.81,0.103701,511507,402857
1210.33,0.102895,519078,409579
1213.84,0.102770,527163,416078
1217.35,0.102257,534208,422137
1220.85,0.101247,540472,428081
1225.51,0.100459,549929,436363
1229.01,0.100372,556888,441973
1232.5,0.099176,562180,447404
1235.98,0.099280,567975,451907
1239.46,0.097857,574815,458850
1242.94,0.097101,582782,466021
1246.41,0.096833,591476,473265
1251.03,0.096778,604016,483360
1254.5,0.096517,612289,490275
1257.96,0.096525,619125,495739
1261.41,0.097581,624551,498870
1264.86,0.098373,629900,502225
1268.31,0.098115,634345,506070
1271.75,0.098627,638574,508843
1276.33,0.099418,642499,511039
1279.76,0.099200,645905,514007
1283.19,0.098720,648307,516489
1286.61,0.098481,650446,518478
1290.03,0.098388,652132,519933
1293.44,0.097423,653907,522508
1296.85,0.097539,655963,524011
1301.39,0.097140,657349,525601
1304.8,0.097258,657558,525625
1308.19,0.097440,658515,526170
1311.58,0.097914,658804,525826
1314.97,0.098149,659011,525707
1318.36,0.098627,658272,524540
1321.73,0.099296,658022,523533
1326.23,0.099878,657870,522711
1329.6,0.101108,656482,520134
1332.97,0.101977,654926,517864
1336.33,0.103362,653727,515269
1339.69,0.104797,652497,512603
1343.04,0.106131,649913,509007
1346.39,0.108647,647671,504322
1349.73,0.110477,645338,500392
1354.18,0.113471,641175,493748
1357.52,0.115390,638376,489425
1360.85,0.117784,635805,484775
1364.17,0.119751,633413,480769
1367.49,0.121693,631026,476820
1370.81,0.124509,628050,471504
1374.12,0.126619,625034,466965
1378.54,0.129410,620272,460439
1381.84,0.132817,616892,454352
1385.14,0.136783,613613,447828
1388.43,0.140990,611526,442003
1391.72,0.145948,610663,436369
1395.01,0.150971,610634,431330
1398.29,0.156637,611700,426483
1402.66,0.164236,614051,420696
1405.93,0.170336,616268,416326
1409.2,0.175502,617795,412423
1412.46,0.180816,618872,408117
1415.72,0.185425,619795,404411
1418.98,0.189940,620495,400681
1422.23,0.193666,621087,397637
1426.56,0.198162,621375,393724
1429.8,0.200786,621616,391504
1433.04,0.203738,622129,389173
1436.27,0.205573,621526,387156
1439.5,0.207094,621113,385546
1442.72,0.209545,620921,383258
1445.94,0.211924,620270,380765
1450.23,0.215346,618860,376918
1453.44,0.217795,617697,374094
1456.64,0.220687,616264,370749
1459.85,0.223470,614413,367274
1463.04,0.225970,612307,363914
1466.24,0.228397,610032,360542
1469.43,0.231592,607345,356323
1473.67,0.236732,603789,350069
1476.85,0.241553,601175,344705
1480.02,0.246363,597737,338959
1483.19,0.251774,594479,332937
1486.36,0.256285,591232,327697
1489.52,0.261103,587853,322230
1492.68,0.263558,583875,318245
1496.89,0.265612,578062,313590
1500.03,0.266270,574159,311001
1503.18,0.266526,570285,308721
1506.32,0.264653,565444,307423
1509.45,0.263880,560571,305317
1512.58,0.261910,555821,304106
1515.71,0.259698,550344,302647
1519.87,0.257322,543983,300790
1522.99,0.254763,538764,299665
1526.1,0.252560,533692,298353
1529.21,0.249743,527902,297037
1532.32,0.246514,521886,295843
1535.42,0.243685,515888,294354
1538.51,0.240792,509987,292932
1541.6,0.238496,503936,290991
1545.72,0.235032,494694,287942
1548.8,0.231422,488378,286638
1551.88,0.228490,481832,284712
1554.95,0.227056,474989,281597
1558.02,0.225191,467818,278539
1561.08,0.224089,460730,275016
1564.15,0.223538,454170,271444
1568.22,0.222086,444181,266363
1571.27,0.221640,436947,262294
1574.32,0.220709,429598,258436
1577.36,0.219111,422039,254825
1580.4,0.218622,414375,250479
1583.43,0.216845,406354,246638
1586.46,0.214373,398475,243236
1590.49,0.212234,388982,238614
1593.51,0.210286,380708,234588
1596.53,0.208338,372727,230703
1599.54,0.206759,365060,226780
1602.55,0.204827,357543,223101
1605.55,0.203380,349495,218807
1608.55,0.200552,341154,214980
1612.54,0.198829,330877,209333
1615.53,0.196112,322904,205571
1618.51,0.195763,315116,200774
1621.49,0.194870,307217,196144
1624.47,0.193591,299481,191769
1627.44,0.192199,292112,187651
1630.41,0.191710,284245,182803
1634.36,0.190647,274079,176697
1637.32,0.190339,266916,172201
1640.27,0.189290,259612,167894
1643.22,0.187981,251804,163336
1646.16,0.188018,244348,158486
1649.1,0.186415,236703,154095
1652.04,0.184640,228171,149149
1655.95,0.181564,215408,141807
1658.88,0.178008,204937,136023
1661.8,0.173964,193395,129563
1664.72,0.165096,179728,122891
1667.63,0.152778,163642,115111
1670.54,0.139446,146312,106129
1673.44,0.124548,128451,96425
1677.31,0.105419,105080,82433
1680.21,0.093569,88906,71674
1683.1,0.104260,75033,59019
1685.99,0.089185,63520,51728
1688.87,0.091538,53714,43506
1691.75,0.094910,45653,36691
1694.62,0.096502,39137,31339
1697.49,0.100765,33776,26782
1701.31,0.114727,28175,21634

File: Column 1_050579_20150331_121348.csv
Method:,Column 1,,
Host Date-Time:,31/3/15 @ 12:13:48,,
Header Version:,1,,
System Temp (C):,33.79,,
Detector Temp (C):,34.59,,
Humidity (%):,1.95,,
Lamp PD:,3818,,
Shift Vector Coefficients:,-10.5391,0.0761263,-0.000134223,,
Pixel to Wavelength Coefficients:,1775.68,-0.916766,-0.000235065,,
Serial Number:,5510004,,
Scan Config Name:,Column 1,,
Scan Config Type:,Slew,,
Section 1,,
Start wavelength (nm):,900,,
End wavelength (nm):,1700,,
Pattern Pixel Width (nm):,   7.03,,,,
Exposure (ms):,  0.635,,,,
Digital Resolution:,228,,
Num Repeats:,6,,
PGA Gain:,64,,
Total Measurement Time in sec:,  2.675,,
Wavelength (nm),Absorbance (AU),Reference Signal (unitless),Sample Signal (unitless)
901.51,0.069834,108485,92371
905.376,0.073421,121306,102438
909.237,0.077502,131909,110350
913.095,0.079712,143299,119270
916.948,0.080589,156982,130395
922.079,0.081821,179937,149039
925.923,0.083008,200504,165621
929.762,0.083805,222660,183585
933.597,0.083846,244426,201512
937.427,0.082512,263972,218296
941.254,0.082096,281845,233300
945.076,0.081833,297271,246218
950.165,0.080175,315605,262403
953.978,0.079610,328029,273088
957.786,0.079727,340470,283369
961.59,0.081151,352317,292269
965.389,0.080312,363056,301760
969.185,0.080890,373162,309747
972.976,0.081148,382632,317419
976.763,0.081434,391202,324315
981.806,0.081513,400190,331706
985.583,0.082362,406088,335937
989.355,0.082580,410162,339137
993.124,0.083113,412868,340956
996.888,0.083734,414263,341619
1000.65,0.084440,415476,342063
1004.4,0.085221,415479,341451
1009.41,0.086759,414358,339326
1013.15,0.087499,412923,337575
1016.89,0.087823,411526,336182
1020.63,0.087676,409066,334285
1024.36,0.087903,406777,332241
1028.09,0.087294,404427,330785
1031.82,0.087268,401911,328747
1036.78,0.087348,398410,325823
1040.49,0.086665,396204,324529
1044.2,0.087017,394236,322656
1047.91,0.086268,392042,321414
1051.61,0.086243,389823,319613
1055.31,0.086232,388234,318318
1059,0.086014,387599,317957
1063.92,0.084377,386688,318408
1067.61,0.083587,386598,318913
1071.29,0.083280,387377,319782
1074.96,0.083546,388536,320542
1078.63,0.082332,389855,322531
1082.3,0.081769,391215,324076
1085.96,0.081056,393215,326268
1090.84,0.080066,396270,329553
1094.49,0.079702,398760,331902
1098.14,0.079099,400987,334219
1101.79,0.078911,403477,336440
1105.43,0.078148,406116,339236
1109.06,0.077897,407701,340757
1112.7,0.077209,409859,343104
1117.53,0.076619,412494,345779
1121.15,0.077825,414909,346839
1124.77,0.077350,416559,348599
1128.38,0.078770,418532,349107
1131.99,0.079803,419956,349463
1135.6,0.081219,421946,349976
1139.2,0.082800,423881,350303
1143.99,0.084882,426786,351017
1147.58,0.085725,428617,351839
1151.17,0.087147,431169,352777
1154.75,0.087816,433579,354203
1158.33,0.089252,436264,355220
1161.91,0.090139,439132,356826
1165.48,0.092922,442389,357176
1169.04,0.095099,446101,358372
1173.79,0.098475,451929,360243
1177.34,0.100814,456026,361556
1180.9,0.102912,461306,363980
1184.44,0.104518,467657,367629
1187.99,0.105269,473969,371947
1191.52,0.105136,479856,376682
1195.06,0.105350,487372,382394
1199.76,0.104174,497347,391278
1203.29,0.103535,504311,397341
1206.81,0.103330,511507,403201
1210.33,0.102755,519078,409711
1213.84,0.102108,527163,416713
1217.35,0.101694,534208,422685
1220.85,0.101063,540472,428263
1225.51,0.100208,549929,436615
1229.01,0.099499,556888,442862
1232.5,0.099262,562180,447315
1235.98,0.098719,567975,452491
1239.46,0.097769,574815,458943
1242.94,0.096542,582782,466621
1246.41,0.096272,591476,473876
1251.03,0.095857,604016,484386
1254.5,0.096366,612289,490445
1257.96,0.096708,619125,495530
1261.41,0.097014,624551,499521
1264.86,0.097389,629900,503365
1268.31,0.097941,634345,506273
1271.75,0.098843,638574,508590
1276.33,0.099087,642499,511429
1279.76,0.099023,645905,514216
1283.19,0.098301,648307,516987
1286.61,0.098094,650446,518940
1290.03,0.097895,652132,520524
1293.44,0.097236,653907,522733
1296.85,0.096926,655963,524751
1301.39,0.096762,657349,526058
1304.8,0.096962,657558,525983
1308.19,0.097393,658515,526226
1311.58,0.097366,658804,526490
1314.97,0.097743,659011,526198
1318.36,0.098651,658272,524511
1321.73,0.099024,658022,523862
1326.23,0.100240,657870,522276
1329.6,0.100632,656482,520704
1332.97,0.101699,654926,518195
1336.33,0.102847,653727,515881
1339.69,0.104991,652497,512374
1343.04,0.106471,649913,508609
1346.39,0.107924,647671,505162
1349.73,0.110143,645338,500777
1354.18,0.113077,641175,494196
1357.52,0.115092,638376,489761
1360.85,0.116936,635805,485722
1364.17,0.119350,633413,481213
1367.49,0.121569,631026,476956
1370.81,0.123229,628050,472895
1374.12,0.126171,625034,467447
1378.54,0.129360,620272,460492
1381.84,0.132836,616892,454332
1385.14,0.136692,613613,447922
1388.43,0.140632,611526,442367
1391.72,0.145724,610663,436594
1395.01,0.150479,610634,431819
1398.29,0.156250,611700,426863
1402.66,0.163666,614051,421249
1405.93,0.168830,616268,417772
1409.2,0.175360,617795,412557
1412.46,0.180267,618872,408633
1415.72,0.184916,619795,404885
1418.98,0.188978,620495,401569
1422.23,0.193011,621087,398237
1426.56,0.197899,621375,393962
1429.8,0.200589,621616,391682
1433.04,0.202670,622129,390131
1436.27,0.204929,621526,387731
1439.5,0.207186,621113,385465
1442.72,0.209787,620921,383045
1445.94,0.211375,620270,381246
1450.23,0.214694,618860,377484
1453.44,0.217220,617697,374589
1456.64,0.219639,616264,371645
1459.85,0.222830,614413,367816
1463.04,0.224949,612307,364771
1466.24,0.227990,610032,360880
1469.43,0.231848,607345,356113
1473.67,0.236486,603789,350267
1476.85,0.241133,601175,345039
1480.02,0.245947,597737,339284
1483.19,0.251368,594479,333249
1486.36,0.256434,591232,327585
1489.52,0.260218,587853,322887
1492.68,0.263440,583875,318332
1496.89,0.265407,578062,313738
1500.03,0.265368,574159,311648
1503.18,0.265461,570285,309479
1506.32,0.264025,565444,307868
1509.45,0.263001,560571,305935
1512.58,0.261473,555821,304412
1515.71,0.259169,550344,303016
1519.87,0.256177,543983,301584
1522.99,0.254059,538764,300151
1526.1,0.251942,533692,298778
1529.21,0.248935,527902,297590
1532.32,0.246282,521886,296001
1535.42,0.243591,515888,294418
1538.51,0.240646,509987,293031
1541.6,0.237983,503936,291335
1545.72,0.233917,494694,288682
1548.8,0.230994,488378,286921
1551.88,0.228681,481832,284587
1554.95,0.226157,474989,282180
1558.02,0.224859,467818,278752
1561.08,0.223803,460730,275197
1564.15,0.222643,454170,272004
1568.22,0.221320,444181,266833
1571.27,0.220751,436947,262832
1574.32,0.219833,429598,258958
1577.36,0.218530,422039,255166
1580.4,0.217431,414375,251167
1583.43,0.215900,406354,247175
1586.46,0.213833,398475,243539
1590.49,0.212241,388982,238610
1593.51,0.210742,380708,234342
1596.53,0.208522,372727,230605
1599.54,0.206151,365060,227098
1602.55,0.203493,357543,223787
1605.55,0.202805,349495,219097
1608.55,0.200352,341154,215079
1612.54,0.198163,330877,209654
1615.53,0.195727,322904,205753
1618.51,0.194689,315116,201271
1621.49,0.193952,307217,196559
1624.47,0.193389,299481,191858
1627.44,0.191417,292112,187989
1630.41,0.190810,284245,183182
1634.36,0.189441,274079,177188
1637.32,0.189792,266916,172418
1640.27,0.188259,259612,168293
1643.22,0.186990,251804,163709
1646.16,0.185338,244348,159467
1649.1,0.184767,236703,154681
1652.04,0.182940,228171,149734
1655.95,0.180766,215408,142068
1658.88,0.176863,204937,136382
1661.8,0.170715,193395,130536
1664.72,0.163111,179728,123454
1667.63,0.152378,163642,115217
1670.54,0.139339,146312,106155
1673.44,0.122459,128451,96890
1677.31,0.103327,105080,82831
1680.21,0.090911,88906,72114
1683.1,0.088047,75033,61264
1685.99,0.084841,63520,52248
1688.87,0.091419,53714,43518
1691.75,0.096523,45653,36555
1694.62,0.099339,39137,31135
1697.49,0.103090,33776,26639
1701.31,0.105197,28175,22114

File: Column 1_050580_20150331_121403.csv
Method:,Column 1,,
Host Date-Time:,31/3/15 @ 12:14:3,,
Header Version:,1,,
System Temp (C):,33.78,,
Detector Temp (C):,34.59,,
Humidity (%):,1.95,,
Lamp PD:,3819,,
Shift Vector Coefficients:,-10.5391,0.0761263,-0.000134223,,
Pixel to Wavelength Coefficients:,1775.68,-0.916766,-0.000235065,,
Serial Number:,5510004,,
Scan Config Name:,Column 1,,
Scan Config Type:,Slew,,
Section 1,,
Start wavelength (nm):,900,,
End wavelength (nm):,1700,,
Pattern Pixel Width (nm):,   7.03,,,,
Exposure (ms):,  0.635,,,,
Digital Resolution:,228,,
Num Repeats:,6,,
PGA Gain:,64,,
Total Measurement Time in sec:,  2.670,,
Wavelength (nm),Absorbance (AU),Reference Signal (unitless),Sample Signal (unitless)
901.51,0.072177,108485,91874
905.376,0.077331,121306,101520
909.237,0.079253,131909,109906
913.095,0.080397,143299,119082
916.948,0.080932,156982,130292
922.079,0.082112,179937,148939
925.923,0.084060,200504,165220
929.762,0.083994,222660,183505
933.597,0.085501,244426,200746
937.427,0.083745,263972,217677
941.254,0.082584,281845,233038
945.076,0.081531,297271,246389
950.165,0.080952,315605,261934
953.978,0.080348,328029,272624
957.786,0.080352,340470,282961
961.59,0.081482,352317,292046
965.389,0.080843,363056,301391
969.185,0.081206,373162,309522
972.976,0.081261,382632,317337
976.763,0.082136,391202,323791
981.806,0.081941,400190,331379
985.583,0.082843,406088,335565
989.355,0.083272,410162,338597
993.124,0.083794,412868,340422
996.888,0.084337,414263,341145
1000.65,0.085466,415476,341256
1004.4,0.085591,415479,341160
1009.41,0.087317,414358,338890
1013.15,0.087869,412923,337287
1016.89,0.087948,411526,336085
1020.63,0.087483,409066,334434
1024.36,0.088367,406777,331886
1028.09,0.088253,404427,330056
1031.82,0.087860,401911,328299
1036.78,0.087131,398410,325986
1040.49,0.087280,396204,324070
1044.2,0.087092,394236,322600
1047.91,0.087060,392042,320828
1051.61,0.087060,389823,319012
1055.31,0.086160,388234,318371
1059,0.085941,387599,318011
1063.92,0.084822,386688,318082
1067.61,0.085237,386598,317704
1071.29,0.084391,387377,318965
1074.96,0.084180,388536,320075
1078.63,0.083322,389855,321796
1082.3,0.081853,391215,324013
1085.96,0.081912,393215,325625
1090.84,0.080756,396270,329030
1094.49,0.079795,398760,331831
1098.14,0.079510,400987,333903
1101.79,0.079617,403477,335894
1105.43,0.078968,406116,338596
1109.06,0.078175,407701,340539
1112.7,0.078077,409859,342419
1117.53,0.077571,412494,345022
1121.15,0.077378,414909,347196
1124.77,0.078173,416559,347939
1128.38,0.079570,418532,348465
1131.99,0.079987,419956,349315
1135.6,0.081432,421946,349804
1139.2,0.083129,423881,350038
1143.99,0.085826,426786,350255
1147.58,0.086244,428617,351419
1151.17,0.087304,431169,352650
1154.75,0.088099,433579,353972
1158.33,0.088975,436264,355447
1161.91,0.091608,439132,355621
1165.48,0.093270,442389,356890
1169.04,0.096005,446101,357625
1173.79,0.098779,451929,359991
1177.34,0.100729,456026,361627
1180.9,0.102872,461306,364013
1184.44,0.104883,467657,367320
1187.99,0.105430,473969,371809
1191.52,0.105543,479856,376329
1195.06,0.105605,487372,382169
1199.76,0.105079,497347,390464
1203.29,0.104091,504311,396833
1206.81,0.103801,511507,402764
1210.33,0.103318,519078,409180
1213.84,0.102643,527163,416200
1217.35,0.102263,534208,422131
1220.85,0.100902,540472,428421
1225.51,0.100278,549929,436545
1229.01,0.100096,556888,442254
1232.5,0.099703,562180,446861
1235.98,0.099380,567975,451803
1239.46,0.098219,574815,458468
1242.94,0.096794,582782,466350
1246.41,0.096747,591476,473358
1251.03,0.096661,604016,483490
1254.5,0.096652,612289,490122
1257.96,0.096595,619125,495659
1261.41,0.097225,624551,499279
1264.86,0.097690,629900,503016
1268.31,0.098473,634345,505653
1271.75,0.099245,638574,508120
1276.33,0.099418,642499,511039
1279.76,0.099369,645905,513806
1283.19,0.098830,648307,516358
1286.61,0.098389,650446,518588
1290.03,0.097795,652132,520643
1293.44,0.097574,653907,522327
1296.85,0.097533,655963,524018
1301.39,0.097486,657349,525182
1304.8,0.097439,657558,525406
1308.19,0.097691,658515,525866
1311.58,0.097591,658804,526217
1314.97,0.098275,659011,525554
1318.36,0.098823,658272,524303
1321.73,0.098930,658022,523975
1326.23,0.100409,657870,522073
1329.6,0.100828,656482,520469
1332.97,0.102130,654926,517681
1336.33,0.103293,653727,515351
1339.69,0.104871,652497,512516
1343.04,0.106318,649913,508789
1346.39,0.108337,647671,504681
1349.73,0.110412,645338,500467
1354.18,0.113239,641175,494012
1357.52,0.115099,638376,489753
1360.85,0.117358,635805,485250
1364.17,0.119512,633413,481033
1367.49,0.122099,631026,476374
1370.81,0.124168,628050,471874
1374.12,0.126276,625034,467334
1378.54,0.129713,620272,460118
1381.84,0.133021,616892,454138
1385.14,0.136705,613613,447909
1388.43,0.141095,611526,441896
1391.72,0.146003,610663,436313
1395.01,0.150945,610634,431356
1398.29,0.156323,611700,426791
1402.66,0.163433,614051,421475
1405.93,0.169414,616268,417211
1409.2,0.174769,617795,413119
1412.46,0.180530,618872,408386
1415.72,0.185174,619795,404645
1418.98,0.189017,620495,401533
1422.23,0.192968,621087,398276
1426.56,0.197178,621375,394617
1429.8,0.199992,621616,392220
1433.04,0.202443,622129,390335
1436.27,0.204990,621526,387676
1439.5,0.207257,621113,385402
1442.72,0.209142,620921,383614
1445.94,0.211373,620270,381248
1450.23,0.214930,618860,377279
1453.44,0.217847,617697,374049
1456.64,0.219886,616264,371433
1459.85,0.222204,614413,368346
1463.04,0.225134,612307,364616
1466.24,0.228026,610032,360850
1469.43,0.231039,607345,356777
1473.67,0.236109,603789,350571
1476.85,0.241517,601175,344734
1480.02,0.246221,597737,339070
1483.19,0.251359,594479,333256
1486.36,0.256052,591232,327873
1489.52,0.260918,587853,322367
1492.68,0.262942,583875,318697
1496.89,0.265280,578062,313830
1500.03,0.265145,574159,311808
1503.18,0.265663,570285,309335
1506.32,0.264973,565444,307197
1509.45,0.263584,560571,305525
1512.58,0.261821,555821,304168
1515.71,0.259775,550344,302593
1519.87,0.257869,543983,300411
1522.99,0.254642,538764,299748
1526.1,0.251904,533692,298804
1529.21,0.249115,527902,297467
1532.32,0.247030,521886,295492
1535.42,0.244285,515888,293948
1538.51,0.241046,509987,292761
1541.6,0.237925,503936,291374
1545.72,0.233515,494694,288949
1548.8,0.231035,488378,286894
1551.88,0.228810,481832,284502
1554.95,0.226305,474989,282084
1558.02,0.224862,467818,278750
1561.08,0.224303,460730,274880
1564.15,0.223301,454170,271592
1568.22,0.222151,444181,266323
1571.27,0.221192,436947,262565
1574.32,0.220639,429598,258478
1577.36,0.218554,422039,255152
1580.4,0.217165,414375,251321
1583.43,0.216077,406354,247074
1586.46,0.214257,398475,243301
1590.49,0.212760,388982,238325
1593.51,0.211410,380708,233982
1596.53,0.208364,372727,230689
1599.54,0.206218,365060,227063
1602.55,0.204428,357543,223306
1605.55,0.202301,349495,219351
1608.55,0.200601,341154,214956
1612.54,0.198603,330877,209442
1615.53,0.197178,322904,205067
1618.51,0.196685,315116,200348
1621.49,0.194908,307217,196127
1624.47,0.193577,299481,191775
1627.44,0.192972,292112,187317
1630.41,0.191595,284245,182851
1634.36,0.190114,274079,176914
1637.32,0.190064,266916,172310
1640.27,0.188641,259612,168145
1643.22,0.187449,251804,163536
1646.16,0.186967,244348,158870
1649.1,0.185309,236703,154488
1652.04,0.185506,228171,148852
1655.95,0.180967,215408,142002
1658.88,0.176851,204937,136386
1661.8,0.172549,193395,129986
1664.72,0.165241,179728,122850
1667.63,0.153439,163642,114936
1670.54,0.138649,146312,106324
1673.44,0.125608,128451,96190
1677.31,0.104908,105080,82530
1680.21,0.094862,88906,71461
1683.1,0.088955,75033,61136
1685.99,0.090833,63520,51532
1688.87,0.091069,53714,43553
1691.75,0.097939,45653,36436
1694.62,0.109643,39137,30405
1697.49,0.112684,33776,26057
1701.31,0.108687,28175,21937