Folder: textile_sorting_NIRSCAN_/samples/wool/wool-000811 (part 37)

File: Column 1_050551_20150331_120022.csv
Method:,Column 1,,
Host Date-Time:,31/3/15 @ 12:0:22,,
Header Version:,1,,
System Temp (C):,33.28,,
Detector Temp (C):,32.45,,
Humidity (%):,3.77,,
Lamp PD:,3820,,
Shift Vector Coefficients:,-10.5391,0.0761263,-0.000134223,,
Pixel to Wavelength Coefficients:,1775.68,-0.916766,-0.000235065,,
Serial Number:,5510004,,
Scan Config Name:,Column 1,,
Scan Config Type:,Slew,,
Section 1,,
Start wavelength (nm):,900,,
End wavelength (nm):,1700,,
Pattern Pixel Width (nm):,   7.03,,,,
Exposure (ms):,  0.635,,,,
Digital Resolution:,228,,
Num Repeats:,6,,
PGA Gain:,64,,
Total Measurement Time in sec:,  2.667,,
Wavelength (nm),Absorbance (AU),Reference Signal (unitless),Sample Signal (unitless)
901.51,0.032202,108485,100732
905.376,0.038908,121306,110911
909.237,0.041412,131909,119912
913.095,0.041639,143299,130198
916.948,0.042197,156982,142447
922.079,0.043386,179937,162830
925.923,0.043306,200504,181475
929.762,0.045565,222660,200483
933.597,0.044946,244426,220395
937.427,0.045114,263972,237927
941.254,0.045233,281845,253967
945.076,0.045360,297271,267789
950.165,0.045231,315605,284389
953.978,0.044342,328029,296190
957.786,0.044586,340470,307251
961.59,0.046323,352317,316673
965.389,0.045678,363056,326810
969.185,0.046571,373162,335217
972.976,0.046796,382632,343546
976.763,0.047728,391202,350488
981.806,0.047011,400190,359133
985.583,0.048662,406088,363043
989.355,0.048591,410162,366745
993.124,0.049904,412868,368050
996.888,0.050284,414263,368971
1000.65,0.051144,415476,369319
1004.4,0.052267,415479,368368
1009.41,0.053455,414358,366371
1013.15,0.053544,412923,365027
1016.89,0.054841,411526,362707
1020.63,0.054719,409066,360640
1024.36,0.053993,406777,359222
1028.09,0.054082,404427,357074
1031.82,0.053818,401911,355068
1036.78,0.053179,398410,352494
1040.49,0.053548,396204,350244
1044.2,0.053076,394236,348883
1047.91,0.051741,392042,348010
1051.61,0.051847,389823,345956
1055.31,0.051157,388234,345093
1059,0.050574,387599,344992
1063.92,0.049955,386688,344672
1067.61,0.048814,386598,345498
1071.29,0.048442,387377,346491
1074.96,0.048180,388536,347737
1078.63,0.047494,389855,349469
1082.3,0.046590,391215,351419
1085.96,0.046136,393215,353585
1090.84,0.045426,396270,356915
1094.49,0.045422,398760,359161
1098.14,0.044731,400987,361742
1101.79,0.044648,403477,364058
1105.43,0.044172,406116,366841
1109.06,0.044080,407701,368351
1112.7,0.043328,409859,370942
1117.53,0.043319,412494,373335
1121.15,0.044211,414909,374750
1124.77,0.045091,416559,375479
1128.38,0.046744,418532,375824
1131.99,0.047920,419956,376083
1135.6,0.049985,421946,376073
1139.2,0.051848,423881,376180
1143.99,0.054385,426786,376552
1147.58,0.055205,428617,377454
1151.17,0.056723,431169,378377
1154.75,0.057828,433579,379525
1158.33,0.059649,436264,380277
1161.91,0.062399,439132,380361
1165.48,0.064424,442389,381400
1169.04,0.067416,446101,381959
1173.79,0.070845,451929,383906
1177.34,0.072728,456026,385711
1180.9,0.075116,461306,388037
1184.44,0.076699,467657,391948
1187.99,0.078072,473969,395984
1191.52,0.078060,479856,400914
1195.06,0.077883,487372,407359
1199.76,0.076751,497347,416782
1203.29,0.075600,504311,423739
1206.81,0.075667,511507,429719
1210.33,0.073688,519078,438071
1213.84,0.073162,527163,445434
1217.35,0.072527,534208,452047
1220.85,0.071577,540472,458349
1225.51,0.070935,549929,467059
1229.01,0.070683,556888,473244
1232.5,0.069628,562180,478903
1235.98,0.068998,567975,484542
1239.46,0.067790,574815,491743
1242.94,0.066625,582782,499898
1246.41,0.066505,591476,507496
1251.03,0.066105,604016,518733
1254.5,0.066128,612289,525809
1257.96,0.066766,619125,530899
1261.41,0.067593,624551,534533
1264.86,0.067938,629900,538683
1268.31,0.068700,634345,541534
1271.75,0.069308,638574,544381
1276.33,0.069628,642499,547324
1279.76,0.069816,645905,549987
1283.19,0.069002,648307,553068
1286.61,0.068852,650446,555085
1290.03,0.068374,652132,557137
1293.44,0.067836,653907,559345
1296.85,0.067824,655963,561119
1301.39,0.067614,657349,562577
1304.8,0.067052,657558,563485
1308.19,0.067892,658515,563214
1311.58,0.068202,658804,563059
1314.97,0.069059,659011,562126
1318.36,0.069624,658272,560766
1321.73,0.069884,658022,560217
1326.23,0.070751,657870,558971
1329.6,0.071723,656482,556544
1332.97,0.072886,654926,553740
1336.33,0.074001,653727,551309
1339.69,0.076038,652497,547697
1343.04,0.078321,649913,542668
1346.39,0.080229,647671,538425
1349.73,0.082541,645338,533637
1354.18,0.085703,641175,526349
1357.52,0.087815,638376,521509
1360.85,0.090316,635805,516426
1364.17,0.092612,633413,511770
1367.49,0.094829,631026,507246
1370.81,0.097428,628050,501841
1374.12,0.099948,625034,496542
1378.54,0.103522,620272,488720
1381.84,0.107345,616892,481797
1385.14,0.111460,613613,474717
1388.43,0.116436,611526,467712
1391.72,0.121777,610663,461344
1395.01,0.126934,610634,455876
1398.29,0.132994,611700,450344
1402.66,0.141447,614051,443361
1405.93,0.147763,616268,438537
1409.2,0.153890,617795,433465
1412.46,0.159735,618872,428416
1415.72,0.164509,619795,424365
1418.98,0.169394,620495,420092
1422.23,0.173048,621087,416970
1426.56,0.178762,621375,411710
1429.8,0.181443,621616,409335
1433.04,0.184142,622129,407135
1436.27,0.187191,621526,403895
1439.5,0.189460,621113,401523
1442.72,0.192682,620921,398432
1445.94,0.195006,620270,395890
1450.23,0.197829,618860,392431
1453.44,0.201457,617697,388435
1456.64,0.204123,616264,385162
1459.85,0.206715,614413,381720
1463.04,0.209348,612307,378113
1466.24,0.212498,610032,373985
1469.43,0.215505,607345,369769
1473.67,0.220079,603789,363753
1476.85,0.225974,601175,357295
1480.02,0.230753,597737,351364
1483.19,0.236236,594479,345065
1486.36,0.242089,591232,338586
1489.52,0.246638,587853,333143
1492.68,0.249173,583875,328963
1496.89,0.252048,578062,323539
1500.03,0.252474,574159,321039
1503.18,0.252957,570285,318519
1506.32,0.251794,565444,316662
1509.45,0.250875,560571,314598
1512.58,0.248745,555821,313466
1515.71,0.246466,550344,312010
1519.87,0.244601,543983,309731
1522.99,0.241124,538764,309225
1526.1,0.239098,533692,307746
1529.21,0.235888,527902,306666
1532.32,0.232697,521886,305407
1535.42,0.230096,515888,303710
1538.51,0.226346,509987,302840
1541.6,0.223277,503936,301369
1545.72,0.219631,494694,298336
1548.8,0.216060,488378,296959
1551.88,0.213193,481832,294919
1554.95,0.211595,474989,291802
1558.02,0.209800,467818,288587
1561.08,0.208172,460730,285282
1564.15,0.206798,454170,282111
1568.22,0.206350,444181,276191
1571.27,0.205496,436947,272228
1574.32,0.203207,429598,269064
1577.36,0.202107,422039,265000
1580.4,0.200359,414375,261237
1583.43,0.199529,406354,256670
1586.46,0.197203,398475,253045
1590.49,0.195478,388982,248000
1593.51,0.192893,380708,244174
1596.53,0.189913,372727,240701
1599.54,0.189208,365060,236133
1602.55,0.185527,357543,233239
1605.55,0.183919,349495,228835
1608.55,0.182164,341154,224278
1612.54,0.179568,330877,218826
1615.53,0.177847,322904,214401
1618.51,0.176123,315116,210062
1621.49,0.174811,307217,205416
1624.47,0.173095,299481,201036
1627.44,0.171935,292112,196614
1630.41,0.170826,284245,191808
1634.36,0.168206,274079,186067
1637.32,0.168734,266916,180984
1640.27,0.167555,259612,176510
1643.22,0.166302,251804,171696
1646.16,0.166754,244348,166439
1649.1,0.165311,236703,161768
1652.04,0.164154,228171,156353
1655.95,0.161120,215408,148642
1658.88,0.158941,204937,142128
1661.8,0.155446,193395,135207
1664.72,0.149661,179728,127337
1667.63,0.143104,163642,117704
1670.54,0.132589,146312,107818
1673.44,0.122203,128451,96947
1677.31,0.113287,105080,80953
1680.21,0.107853,88906,69355
1683.1,0.106126,75033,58766
1685.99,0.109967,63520,49311
1688.87,0.114421,53714,41273
1691.75,0.123416,45653,34360
1694.62,0.123753,39137,29433
1697.49,0.126123,33776,25263
1701.31,0.131863,28175,20797

File: Column 1_050551_20150331_120025.csv
Method:,Column 1,,
Host Date-Time:,31/3/15 @ 12:0:25,,
Header Version:,1,,
System Temp (C):,33.31,,
Detector Temp (C):,32.45,,
Humidity (%):,3.67,,
Lamp PD:,3820,,
Shift Vector Coefficients:,-10.5391,0.0761263,-0.000134223,,
Pixel to Wavelength Coefficients:,1775.68,-0.916766,-0.000235065,,
Serial Number:,5510004,,
Scan Config Name:,Column 1,,
Scan Config Type:,Slew,,
Section 1,,
Start wavelength (nm):,900,,
End wavelength (nm):,1700,,
Pattern Pixel Width (nm):,   7.03,,,,
Exposure (ms):,  0.635,,,,
Digital Resolution:,228,,
Num Repeats:,6,,
PGA Gain:,64,,
Total Measurement Time in sec:,  2.734,,
Wavelength (nm),Absorbance (AU),Reference Signal (unitless),Sample Signal (unitless)
901.51,0.034502,108485,100200
905.376,0.038626,121306,110983
909.237,0.039504,131909,120440
913.095,0.042303,143299,129999
916.948,0.042120,156982,142472
922.079,0.043042,179937,162959
925.923,0.044579,200504,180944
929.762,0.045669,222660,200435
933.597,0.047196,244426,219256
937.427,0.045808,263972,237547
941.254,0.045697,281845,253696
945.076,0.045288,297271,267833
950.165,0.045037,315605,284516
953.978,0.044406,328029,296146
957.786,0.045255,340470,306778
961.59,0.045848,352317,317019
965.389,0.046510,363056,326185
969.185,0.045862,373162,335765
972.976,0.046900,382632,343464
976.763,0.046924,391202,351137
981.806,0.048049,400190,358276
985.583,0.048116,406088,363500
989.355,0.049032,410162,366373
993.124,0.050126,412868,367862
996.888,0.050406,414263,368867
1000.65,0.050956,415476,369479
1004.4,0.052422,415479,368237
1009.41,0.053381,414358,366433
1013.15,0.054070,412923,364585
1016.89,0.054890,411526,362666
1020.63,0.054510,409066,360814
1024.36,0.054310,406777,358960
1028.09,0.054494,404427,356735
1031.82,0.054520,401911,354495
1036.78,0.053759,398410,352023
1040.49,0.053078,396204,350623
1044.2,0.053363,394236,348653
1047.91,0.052535,392042,347374
1051.61,0.051878,389823,345931
1055.31,0.051502,388234,344819
1059,0.051318,387599,344401
1063.92,0.050024,386688,344617
1067.61,0.048462,386598,345778
1071.29,0.048893,387377,346131
1074.96,0.048673,388536,347343
1078.63,0.047747,389855,349266
1082.3,0.046626,391215,351390
1085.96,0.046440,393215,353338
1090.84,0.045402,396270,356935
1094.49,0.045439,398760,359147
1098.14,0.044719,400987,361752
1101.79,0.044884,403477,363860
1105.43,0.044605,406116,366476
1109.06,0.044463,407701,368026
1112.7,0.044129,409859,370259
1117.53,0.044395,412494,372411
1121.15,0.044542,414909,374465
1124.77,0.045527,416559,375102
1128.38,0.046439,418532,376088
1131.99,0.047911,419956,376091
1135.6,0.049951,421946,376102
1139.2,0.051660,423881,376343
1143.99,0.054306,426786,376621
1147.58,0.055624,428617,377090
1151.17,0.056859,431169,378258
1154.75,0.058285,433579,379126
1158.33,0.059840,436264,380110
1161.91,0.062220,439132,380518
1165.48,0.065253,442389,380672
1169.04,0.067661,446101,381744
1173.79,0.070608,451929,384116
1177.34,0.073428,456026,385089
1180.9,0.075649,461306,387561
1184.44,0.077020,467657,391658
1187.99,0.078257,473969,395816
1191.52,0.077567,479856,401369
1195.06,0.076979,487372,408208
1199.76,0.076961,497347,416580
1203.29,0.075298,504311,424034
1206.81,0.074735,511507,430642
1210.33,0.074242,519078,437513
1213.84,0.073673,527163,444910
1217.35,0.073054,534208,451499
1220.85,0.071914,540472,457993
1225.51,0.070850,549929,467150
1229.01,0.070291,556888,473671
1232.5,0.069737,562180,478783
1235.98,0.069103,567975,484425
1239.46,0.068076,574815,491419
1242.94,0.067403,582782,499003
1246.41,0.066133,591476,507930
1251.03,0.066020,604016,518834
1254.5,0.066225,612289,525692
1257.96,0.067361,619125,530173
1261.41,0.067420,624551,534747
1264.86,0.067936,629900,538686
1268.31,0.068559,634345,541710
1271.75,0.069443,638574,544212
1276.33,0.069697,642499,547237
1279.76,0.070008,645905,549744
1283.19,0.069353,648307,552621
1286.61,0.068573,650446,555442
1290.03,0.068664,652132,556764
1293.44,0.068200,653907,558877
1296.85,0.067630,655963,561370
1301.39,0.067768,657349,562378
1304.8,0.067893,657558,562394
1308.19,0.068242,658515,562760
1311.58,0.068356,658804,562860
1314.97,0.068836,659011,562415
1318.36,0.069326,658272,561150
1321.73,0.070658,658022,559219
1326.23,0.071190,657870,558406
1329.6,0.071667,656482,556616
1332.97,0.073183,654926,553362
1336.33,0.074522,653727,550648
1339.69,0.076120,652497,547594
1343.04,0.078216,649913,542799
1346.39,0.080297,647671,538341
1349.73,0.083058,645338,533002
1354.18,0.085790,641175,526243
1357.52,0.087808,638376,521517
1360.85,0.090445,635805,516272
1364.17,0.092613,633413,511769
1367.49,0.095044,631026,506995
1370.81,0.097736,628050,501485
1374.12,0.099950,625034,496539
1378.54,0.103629,620272,488600
1381.84,0.107427,616892,481706
1385.14,0.111979,613613,474150
1388.43,0.116425,611526,467724
1391.72,0.122002,610663,461105
1395.01,0.127257,610634,455537
1398.29,0.133153,611700,450179
1402.66,0.141436,614051,443372
1405.93,0.147883,616268,438416
1409.2,0.153931,617795,433424
1412.46,0.159716,618872,428435
1415.72,0.164997,619795,423888
1418.98,0.169542,620495,419949
1422.23,0.173821,621087,416228
1426.56,0.178738,621375,411733
1429.8,0.181317,621616,409454
1433.04,0.184471,622129,406827
1436.27,0.187323,621526,403772
1439.5,0.189527,621113,401461
1442.72,0.192106,620921,398961
1445.94,0.194807,620270,396072
1450.23,0.197932,618860,392338
1453.44,0.200877,617697,388954
1456.64,0.204602,616264,384738
1459.85,0.206113,614413,382250
1463.04,0.209737,612307,377774
1466.24,0.212706,610032,373806
1469.43,0.215792,607345,369525
1473.67,0.221038,603789,362950
1476.85,0.225863,601175,357386
1480.02,0.230891,597737,351252
1483.19,0.236652,594479,344734
1486.36,0.242388,591232,338353
1489.52,0.246832,587853,332994
1492.68,0.250275,583875,328129
1496.89,0.252603,578062,323126
1500.03,0.253266,574159,320454
1503.18,0.252972,570285,318508
1506.32,0.252465,565444,316173
1509.45,0.251199,560571,314363
1512.58,0.249614,555821,312839
1515.71,0.247119,550344,311541
1519.87,0.243661,543983,310402
1522.99,0.241783,538764,308756
1526.1,0.238911,533692,307879
1529.21,0.236154,527902,306478
1532.32,0.232481,521886,305559
1535.42,0.229616,515888,304046
1538.51,0.226340,509987,302844
1541.6,0.223192,503936,301428
1545.72,0.219080,494694,298715
1548.8,0.216144,488378,296901
1551.88,0.213725,481832,294558
1554.95,0.211506,474989,291862
1558.02,0.209400,467818,288853
1561.08,0.207875,460730,285477
1564.15,0.207324,454170,281770
1568.22,0.206468,444181,276116
1571.27,0.204992,436947,272544
1574.32,0.204467,429598,268284
1577.36,0.202746,422039,264610
1580.4,0.201306,414375,260668
1583.43,0.199379,406354,256759
1586.46,0.197142,398475,253081
1590.49,0.195241,388982,248135
1593.51,0.193384,380708,243898
1596.53,0.190536,372727,240356
1599.54,0.188324,365060,236614
1602.55,0.187021,357543,232438
1605.55,0.183736,349495,228931
1608.55,0.181013,341154,224873
1612.54,0.179721,330877,218749
1615.53,0.177219,322904,214711
1618.51,0.175865,315116,210187
1621.49,0.175090,307217,205284
1624.47,0.173664,299481,200773
1627.44,0.171893,292112,196633
1630.41,0.172137,284245,191230
1634.36,0.171122,274079,184822
1637.32,0.168934,266916,180901
1640.27,0.169271,259612,175814
1643.22,0.167526,251804,171213
1646.16,0.166352,244348,166593
1649.1,0.165005,236703,161882
1652.04,0.163846,228171,156464
1655.95,0.162091,215408,148310
1658.88,0.159745,204937,141865
1661.8,0.155350,193395,135237
1664.72,0.151243,179728,126874
1667.63,0.143698,163642,117543
1670.54,0.132649,146312,107803
1673.44,0.122804,128451,96813
1677.31,0.111446,105080,81297
1680.21,0.107953,88906,69339
1683.1,0.109472,75033,58315
1685.99,0.109975,63520,49310
1688.87,0.120728,53714,40678
1691.75,0.121738,45653,34493
1694.62,0.123694,39137,29437
1697.49,0.125728,33776,25286
1701.31,0.141833,28175,20325

File: Column 1_050551_20150331_120028.csv
Method:,Column 1,,
Host Date-Time:,31/3/15 @ 12:0:28,,
Header Version:,1,,
System Temp (C):,33.34,,
Detector Temp (C):,32.47,,
Humidity (%):,3.57,,
Lamp PD:,3821,,
Shift Vector Coefficients:,-10.5391,0.0761263,-0.000134223,,
Pixel to Wavelength Coefficients:,1775.68,-0.916766,-0.000235065,,
Serial Number:,5510004,,
Scan Config Name:,Column 1,,
Scan Config Type:,Slew,,
Section 1,,
Start wavelength (nm):,900,,
End wavelength (nm):,1700,,
Pattern Pixel Width (nm):,   7.03,,,,
Exposure (ms):,  0.635,,,,
Digital Resolution:,228,,
Num Repeats:,6,,
PGA Gain:,64,,
Total Measurement Time in sec:,  2.714,,
Wavelength (nm),Absorbance (AU),Reference Signal (unitless),Sample Signal (unitless)
901.51,0.031177,108485,100970
905.376,0.037817,121306,111190
909.237,0.039868,131909,120339
913.095,0.040230,143299,130621
916.948,0.040675,156982,142947
922.079,0.042733,179937,163075
925.923,0.043337,200504,181462
929.762,0.045099,222660,200698
933.597,0.045600,244426,220063
937.427,0.044715,263972,238146
941.254,0.044642,281845,254313
945.076,0.044614,297271,268249
950.165,0.044688,315605,284745
953.978,0.043860,328029,296519
957.786,0.044819,340470,307086
961.59,0.045881,352317,316995
965.389,0.045321,363056,327079
969.185,0.046196,373162,335507
972.976,0.046836,382632,343515
976.763,0.047041,391202,351043
981.806,0.047198,400190,358978
985.583,0.048404,406088,363259
989.355,0.048719,410162,366637
993.124,0.048937,412868,368871
996.888,0.049932,414263,369270
1000.65,0.050884,415476,369540
1004.4,0.051990,415479,368603
1009.41,0.053222,414358,366567
1013.15,0.053543,412923,365028
1016.89,0.053930,411526,363469
1020.63,0.053774,409066,361426
1024.36,0.053923,406777,359280
1028.09,0.053488,404427,357563
1031.82,0.053785,401911,355095
1036.78,0.053169,398410,352502
1040.49,0.052904,396204,350764
1044.2,0.052494,394236,349351
1047.91,0.052452,392042,347441
1051.61,0.051293,389823,346397
1055.31,0.050603,388234,345534
1059,0.049917,387599,345514
1063.92,0.049319,386688,345177
1067.61,0.048688,386598,345598
1071.29,0.048469,387377,346469
1074.96,0.048243,388536,347687
1078.63,0.047183,389855,349720
1082.3,0.046304,391215,351651
1085.96,0.045703,393215,353938
1090.84,0.045064,396270,357213
1094.49,0.044967,398760,359538
1098.14,0.044764,400987,361715
1101.79,0.044581,403477,364114
1105.43,0.044411,406116,366639
1109.06,0.044081,407701,368350
1112.7,0.043344,409859,370929
1117.53,0.043440,412494,373231
1121.15,0.044684,414909,374342
1124.77,0.045260,416559,375333
1128.38,0.046418,418532,376106
1131.99,0.047772,419956,376211
1135.6,0.049671,421946,376345
1139.2,0.051431,423881,376542
1143.99,0.054198,426786,376714
1147.58,0.054683,428617,377908
1151.17,0.056346,431169,378705
1154.75,0.057774,433579,379572
1158.33,0.059234,436264,380641
1161.91,0.061324,439132,381304
1165.48,0.063949,442389,381817
1169.04,0.067312,446101,382051
1173.79,0.070894,451929,383863
1177.34,0.072831,456026,385619
1180.9,0.074998,461306,388142
1184.44,0.076915,467657,391753
1187.99,0.077350,473969,396643
1191.52,0.077584,479856,401353
1195.06,0.077137,487372,408060
1199.76,0.076194,497347,417316
1203.29,0.075523,504311,423814
1206.81,0.074523,511507,430852
1210.33,0.073702,519078,438057
1213.84,0.073291,527163,445301
1217.35,0.072099,534208,452492
1220.85,0.071807,540472,458106
1225.51,0.070501,549929,467526
1229.01,0.070001,556888,473988
1232.5,0.069253,562180,479317
1235.98,0.068802,567975,484761
1239.46,0.067386,574815,492201
1242.94,0.067098,582782,499353
1246.41,0.066118,591476,507948
1251.03,0.065934,604016,518937
1254.5,0.065826,612289,526175
1257.96,0.066600,619125,531102
1261.41,0.066941,624551,535336
1264.86,0.067654,629900,539036
1268.31,0.068286,634345,542050
1271.75,0.069101,638574,544641
1276.33,0.069647,642499,547300
1279.76,0.069093,645905,550904
1283.19,0.068864,648307,553244
1286.61,0.068487,650446,555552
1290.03,0.068138,652132,557439
1293.44,0.067913,653907,559246
1296.85,0.067664,655963,561326
1301.39,0.067158,657349,563168
1304.8,0.067641,657558,562721
1308.19,0.067678,658515,563492
1311.58,0.067635,658804,563795
1314.97,0.068698,659011,562594
1318.36,0.069069,658272,561483
1321.73,0.069420,658022,560816
1326.23,0.070653,657870,559097
1329.6,0.071634,656482,556658
1332.97,0.072908,654926,553713
1336.33,0.074167,653727,551099
1339.69,0.075896,652497,547876
1343.04,0.077670,649913,543482
1346.39,0.080103,647671,538582
1349.73,0.082353,645338,533868
1354.18,0.085495,641175,526601
1357.52,0.087741,638376,521598
1360.85,0.089639,635805,517231
1364.17,0.091980,633413,512516
1367.49,0.094684,631026,507415
1370.81,0.097226,628050,502075
1374.12,0.099545,625034,497003
1378.54,0.103071,620272,489228
1381.84,0.107073,616892,482099
1385.14,0.111313,613613,474877
1388.43,0.116098,611526,468077
1391.72,0.121036,610663,462132
1395.01,0.126854,610634,455960
1398.29,0.132642,611700,450709
1402.66,0.141294,614051,443517
1405.93,0.147233,616268,439073
1409.2,0.153633,617795,433722
1412.46,0.159383,618872,428764
1415.72,0.164484,619795,424389
1418.98,0.169328,620495,420156
1422.23,0.173106,621087,416914
1426.56,0.178049,621375,412387
1429.8,0.181153,621616,409609
1433.04,0.183916,622129,407347
1436.27,0.186557,621526,404485
1439.5,0.189135,621113,401824
1442.72,0.191366,620921,399641
1445.94,0.194132,620270,396688
1450.23,0.197673,618860,392572
1453.44,0.200351,617697,389426
1456.64,0.203585,616264,385640
1459.85,0.205661,614413,382648
1463.04,0.208638,612307,378731
1466.24,0.211493,610032,374852
1469.43,0.214732,607345,370428
1473.67,0.220065,603789,363764
1476.85,0.224993,601175,358103
1480.02,0.229346,597737,352504
1483.19,0.236144,594479,345138
1486.36,0.242022,591232,338638
1489.52,0.246489,587853,333257
1492.68,0.249238,583875,328914
1496.89,0.251817,578062,323711
1500.03,0.252185,574159,321253
1503.18,0.252422,570285,318911
1506.32,0.251706,565444,316726
1509.45,0.249926,560571,315286
1512.58,0.247951,555821,314039
1515.71,0.246548,550344,311951
1519.87,0.243520,543983,310503
1522.99,0.240561,538764,309626
1526.1,0.237788,533692,308676
1529.21,0.234768,527902,307458
1532.32,0.232029,521886,305877
1535.42,0.228743,515888,304658
1538.51,0.225675,509987,303308
1541.6,0.222862,503936,301657
1545.72,0.218433,494694,299160
1548.8,0.215224,488378,297531
1551.88,0.212701,481832,295253
1554.95,0.210718,474989,292392
1558.02,0.208421,467818,289505
1561.08,0.207185,460730,285931
1564.15,0.206017,454170,282619
1568.22,0.205337,444181,276836
1571.27,0.204107,436947,273100
1574.32,0.203573,429598,268837
1577.36,0.202079,422039,265017
1580.4,0.199998,414375,261454
1583.43,0.198730,406354,257143
1586.46,0.197323,398475,252975
1590.49,0.194341,388982,248650
1593.51,0.192164,380708,244584
1596.53,0.190905,372727,240152
1599.54,0.187590,365060,237014
1602.55,0.185933,357543,233021
1605.55,0.184279,349495,228645
1608.55,0.180926,341154,224918
1612.54,0.178737,330877,219245
1615.53,0.176873,322904,214882
1618.51,0.175639,315116,210296
1621.49,0.174127,307217,205740
1624.47,0.172588,299481,201271
1627.44,0.171004,292112,197036
1630.41,0.169817,284245,192254
1634.36,0.167295,274079,186458
1637.32,0.167579,266916,181466
1640.27,0.166943,259612,176759
1643.22,0.166115,251804,171770
1646.16,0.164458,244348,167321
1649.1,0.166577,236703,161297
1652.04,0.163144,228171,156717
1655.95,0.161281,215408,148587
1658.88,0.158208,204937,142368
1661.8,0.154602,193395,135470
1664.72,0.149644,179728,127342
1667.63,0.140404,163642,118438
1670.54,0.132750,146312,107778
1673.44,0.120937,128451,97230
1677.31,0.109404,105080,81680
1680.21,0.104740,88906,69854
1683.1,0.103063,75033,59182
1685.99,0.108191,63520,49513
1688.87,0.112909,53714,41417
1691.75,0.115451,45653,34996
1694.62,0.117062,39137,29890
1697.49,0.122682,33776,25464
1701.31,0.131738,28175,20803