Folder: textile_sorting_NIRSCAN_/samples/wool/wool-000811 (part 130)

File: Column 1_050603_20150331_122515.csv
Method:,Column 1,,
Host Date-Time:,31/3/15 @ 12:25:15,,
Header Version:,1,,
System Temp (C):,33.99,,
Detector Temp (C):,34.82,,
Humidity (%):,1.71,,
Lamp PD:,3818,,
Shift Vector Coefficients:,-10.5391,0.0761263,-0.000134223,,
Pixel to Wavelength Coefficients:,1775.68,-0.916766,-0.000235065,,
Serial Number:,5510004,,
Scan Config Name:,Column 1,,
Scan Config Type:,Slew,,
Section 1,,
Start wavelength (nm):,900,,
End wavelength (nm):,1700,,
Pattern Pixel Width (nm):,   7.03,,,,
Exposure (ms):,  0.635,,,,
Digital Resolution:,228,,
Num Repeats:,6,,
PGA Gain:,64,,
Total Measurement Time in sec:,  2.680,,
Wavelength (nm),Absorbance (AU),Reference Signal (unitless),Sample Signal (unitless)
901.51,0.069115,108485,92524
905.376,0.074589,121306,102163
909.237,0.076582,131909,110584
913.095,0.078458,143299,119615
916.948,0.076647,156982,131584
922.079,0.080488,179937,149497
925.923,0.081139,200504,166335
929.762,0.082346,222660,184203
933.597,0.082886,244426,201958
937.427,0.079757,263972,219685
941.254,0.080232,281845,234303
945.076,0.079260,297271,247681
950.165,0.078436,315605,263456
953.978,0.077664,328029,274314
957.786,0.077652,340470,284726
961.59,0.078059,352317,294357
965.389,0.077885,363056,303451
969.185,0.078049,373162,311780
972.976,0.078414,382632,319424
976.763,0.078622,391202,326422
981.806,0.079410,400190,333316
985.583,0.079977,406088,337787
989.355,0.080244,410162,340966
993.124,0.080473,412868,343035
996.888,0.080969,414263,343801
1000.65,0.081401,415476,344465
1004.4,0.082707,415479,343433
1009.41,0.084362,414358,341204
1013.15,0.084480,412923,339930
1016.89,0.085194,411526,338223
1020.63,0.085100,409066,336274
1024.36,0.085371,406777,334184
1028.09,0.084422,404427,332980
1031.82,0.084641,401911,330742
1036.78,0.084418,398410,328029
1040.49,0.083557,396204,326860
1044.2,0.084353,394236,324641
1047.91,0.083525,392042,323450
1051.61,0.083381,389823,321726
1055.31,0.083327,388234,320455
1059,0.082496,387599,320543
1063.92,0.081702,386688,320375
1067.61,0.081325,386598,320579
1071.29,0.080248,387377,322022
1074.96,0.080199,388536,323022
1078.63,0.079438,389855,324687
1082.3,0.078608,391215,326443
1085.96,0.077980,393215,328587
1090.84,0.076993,396270,331893
1094.49,0.076869,398760,334074
1098.14,0.076162,400987,336487
1101.79,0.075518,403477,339079
1105.43,0.075583,406116,341246
1109.06,0.074266,407701,343618
1112.7,0.074425,409859,345310
1117.53,0.073118,412494,348578
1121.15,0.073895,414909,349992
1124.77,0.074034,416559,351271
1128.38,0.075577,418532,351683
1131.99,0.076168,419956,352400
1135.6,0.077645,421946,352868
1139.2,0.078995,423881,353386
1143.99,0.081150,426786,354046
1147.58,0.081751,428617,355074
1151.17,0.082918,431169,356229
1154.75,0.084163,433579,357195
1158.33,0.085482,436264,358317
1161.91,0.087336,439132,359136
1165.48,0.089584,442389,359932
1169.04,0.091240,446101,361571
1173.79,0.094594,451929,363476
1177.34,0.096756,456026,364950
1180.9,0.098759,461306,367477
1184.44,0.100956,467657,370656
1187.99,0.101162,473969,375481
1191.52,0.101260,479856,380059
1195.06,0.101444,487372,385848
1199.76,0.100944,497347,394199
1203.29,0.100101,504311,400495
1206.81,0.099748,511507,406540
1210.33,0.099386,519078,412902
1213.84,0.098800,527163,419899
1217.35,0.097735,534208,426555
1220.85,0.097440,540472,431850
1225.51,0.096416,549929,440444
1229.01,0.096002,556888,446443
1232.5,0.095498,562180,451209
1235.98,0.094926,567975,456461
1239.46,0.093653,574815,463314
1242.94,0.092895,582782,470556
1246.41,0.091867,591476,478707
1251.03,0.092495,604016,488150
1254.5,0.092331,612289,495023
1257.96,0.092648,619125,500185
1261.41,0.092859,624551,504323
1264.86,0.093602,629900,507773
1268.31,0.094167,634345,510691
1271.75,0.095250,638574,512816
1276.33,0.095640,642499,515505
1279.76,0.095141,645905,518833
1283.19,0.094660,648307,521340
1286.61,0.094313,650446,523478
1290.03,0.093631,652132,525659
1293.44,0.093050,653907,527796
1296.85,0.093058,655963,529446
1301.39,0.092760,657349,530928
1304.8,0.092588,657558,531308
1308.19,0.092902,658515,531696
1311.58,0.093295,658804,531448
1314.97,0.093477,659011,531393
1318.36,0.094125,658272,530006
1321.73,0.094076,658022,529864
1326.23,0.095421,657870,528103
1329.6,0.095918,656482,526387
1332.97,0.096778,654926,524100
1336.33,0.097690,653727,522043
1339.69,0.099334,652497,519092
1343.04,0.100787,649913,515309
1346.39,0.102712,647671,511261
1349.73,0.104343,645338,507510
1354.18,0.107459,641175,500631
1357.52,0.109641,638376,495947
1360.85,0.111329,635805,492034
1364.17,0.113402,633413,487849
1367.49,0.115696,631026,483450
1370.81,0.117677,628050,478980
1374.12,0.120264,625034,473849
1378.54,0.122676,620272,467634
1381.84,0.125530,616892,462040
1385.14,0.129027,613613,455898
1388.43,0.132265,611526,450972
1391.72,0.136757,610663,445702
1395.01,0.140903,610634,441446
1398.29,0.145431,611700,437630
1402.66,0.151975,614051,432742
1405.93,0.156924,616268,429384
1409.2,0.161103,617795,426326
1412.46,0.165997,618872,422283
1415.72,0.169407,619795,419605
1418.98,0.173179,620495,416447
1422.23,0.177003,621087,413190
1426.56,0.180563,621375,410007
1429.8,0.183283,621616,407605
1433.04,0.185427,622129,405932
1436.27,0.187993,621526,403150
1439.5,0.189885,621113,401130
1442.72,0.192276,620921,398805
1445.94,0.194424,620270,396421
1450.23,0.198229,618860,392070
1453.44,0.201310,617697,388567
1456.64,0.203978,616264,385291
1459.85,0.206346,614413,382045
1463.04,0.208661,612307,378711
1466.24,0.212307,610032,374150
1469.43,0.216127,607345,369240
1473.67,0.222400,603789,361814
1476.85,0.227952,601175,355671
1480.02,0.234334,597737,348479
1483.19,0.240425,594479,341752
1486.36,0.246253,591232,335355
1489.52,0.250864,587853,329917
1492.68,0.254411,583875,325019
1496.89,0.256211,578062,320452
1500.03,0.257174,574159,317584
1503.18,0.256248,570285,316114
1506.32,0.255316,565444,314104
1509.45,0.256528,560571,310529
1512.58,0.253055,555821,310370
1515.71,0.250719,550344,308969
1519.87,0.247819,543983,307444
1522.99,0.245470,538764,306146
1526.1,0.243122,533692,304908
1529.21,0.240026,527902,303758
1532.32,0.237237,521886,302231
1535.42,0.233683,515888,301212
1538.51,0.231299,509987,299406
1541.6,0.228669,503936,297650
1545.72,0.224238,494694,295188
1548.8,0.221404,488378,293327
1551.88,0.218874,481832,291086
1554.95,0.217735,474989,287706
1558.02,0.215508,467818,284819
1561.08,0.214569,460730,281111
1564.15,0.214316,454170,277270
1568.22,0.212906,444181,272053
1571.27,0.212526,436947,267857
1574.32,0.211223,429598,264143
1577.36,0.209488,422039,260534
1580.4,0.209091,414375,256037
1583.43,0.207649,406354,251916
1586.46,0.205535,398475,248237
1590.49,0.203687,388982,243356
1593.51,0.202953,380708,238583
1596.53,0.199496,372727,235448
1599.54,0.197930,365060,231438
1602.55,0.196267,357543,227542
1605.55,0.193866,349495,223653
1608.55,0.192649,341154,218928
1612.54,0.190912,330877,213184
1615.53,0.188003,322904,209445
1618.51,0.187953,315116,204417
1621.49,0.187243,307217,199619
1624.47,0.185114,299481,195549
1627.44,0.184436,292112,191035
1630.41,0.183664,284245,186221
1634.36,0.182840,274079,179902
1637.32,0.182031,266916,175527
1640.27,0.181105,259612,171088
1643.22,0.180737,251804,166083
1646.16,0.179261,244348,161714
1649.1,0.178769,236703,156832
1652.04,0.177808,228171,151514
1655.95,0.174486,215408,144137
1658.88,0.171115,204937,138199
1661.8,0.163892,193395,132603
1664.72,0.156627,179728,125311
1667.63,0.145932,163642,116940
1670.54,0.128635,146312,108804
1673.44,0.113743,128451,98854
1677.31,0.096017,105080,84237
1680.21,0.083312,88906,73387
1683.1,0.075953,75033,62994
1685.99,0.077301,63520,53163
1688.87,0.077165,53714,44970
1691.75,0.086493,45653,37409
1694.62,0.087858,39137,31969
1697.49,0.095751,33776,27093
1701.31,0.104079,28175,22171

File: Column 1_050604_20150331_122529.csv
Method:,Column 1,,
Host Date-Time:,31/3/15 @ 12:25:29,,
Header Version:,1,,
System Temp (C):,34,,
Detector Temp (C):,34.8,,
Humidity (%):,1.71,,
Lamp PD:,3818,,
Shift Vector Coefficients:,-10.5391,0.0761263,-0.000134223,,
Pixel to Wavelength Coefficients:,1775.68,-0.916766,-0.000235065,,
Serial Number:,5510004,,
Scan Config Name:,Column 1,,
Scan Config Type:,Slew,,
Section 1,,
Start wavelength (nm):,900,,
End wavelength (nm):,1700,,
Pattern Pixel Width (nm):,   7.03,,,,
Exposure (ms):,  0.635,,,,
Digital Resolution:,228,,
Num Repeats:,6,,
PGA Gain:,64,,
Total Measurement Time in sec:,  2.722,,
Wavelength (nm),Absorbance (AU),Reference Signal (unitless),Sample Signal (unitless)
901.51,0.069980,108485,92340
905.376,0.074049,121306,102290
909.237,0.077360,131909,110386
913.095,0.077319,143299,119929
916.948,0.078857,156982,130916
922.079,0.080534,179937,149481
925.923,0.081576,200504,166168
929.762,0.083812,222660,183582
933.597,0.081697,244426,202512
937.427,0.080854,263972,219131
941.254,0.080396,281845,234215
945.076,0.078829,297271,247927
950.165,0.078110,315605,263654
953.978,0.077180,328029,274620
957.786,0.077304,340470,284954
961.59,0.077271,352317,294892
965.389,0.077622,363056,303635
969.185,0.077900,373162,311887
972.976,0.078094,382632,319659
976.763,0.079098,391202,326064
981.806,0.079318,400190,333387
985.583,0.079792,406088,337931
989.355,0.079736,410162,341365
993.124,0.080560,412868,342966
996.888,0.080821,414263,343918
1000.65,0.081796,415476,344152
1004.4,0.082242,415479,343801
1009.41,0.083933,414358,341541
1013.15,0.085097,412923,339447
1016.89,0.085244,411526,338184
1020.63,0.085247,409066,336160
1024.36,0.085072,406777,334414
1028.09,0.084393,404427,333002
1031.82,0.084614,401911,330762
1036.78,0.084676,398410,327834
1040.49,0.084165,396204,326403
1044.2,0.084111,394236,324822
1047.91,0.083965,392042,323123
1051.61,0.083128,389823,321914
1055.31,0.083111,388234,320614
1059,0.082236,387599,320735
1063.92,0.081636,386688,320424
1067.61,0.081681,386598,320316
1071.29,0.080825,387377,321595
1074.96,0.080439,388536,322844
1078.63,0.079286,389855,324801
1082.3,0.078773,391215,326319
1085.96,0.078031,393215,328548
1090.84,0.076662,396270,332146
1094.49,0.076853,398760,334086
1098.14,0.076088,400987,336544
1101.79,0.074910,403477,339554
1105.43,0.074940,406116,341751
1109.06,0.074650,407701,343314
1112.7,0.073772,409859,345830
1117.53,0.073921,412494,347934
1121.15,0.074106,414909,349822
1124.77,0.074510,416559,350886
1128.38,0.075229,418532,351965
1131.99,0.076071,419956,352479
1135.6,0.078108,421946,352492
1139.2,0.078954,423881,353419
1143.99,0.081443,426786,353808
1147.58,0.082288,428617,354635
1151.17,0.082748,431169,356369
1154.75,0.083563,433579,357689
1158.33,0.085057,436264,358668
1161.91,0.086885,439132,359509
1165.48,0.088775,442389,360603
1169.04,0.090789,446101,361946
1173.79,0.094420,451929,363622
1177.34,0.096616,456026,365068
1180.9,0.098677,461306,367546
1184.44,0.100477,467657,371065
1187.99,0.101504,473969,375185
1191.52,0.101399,479856,379937
1195.06,0.101094,487372,386159
1199.76,0.101192,497347,393974
1203.29,0.099603,504311,400955
1206.81,0.099588,511507,406690
1210.33,0.099098,519078,413176
1213.84,0.098266,527163,420416
1217.35,0.097481,534208,426805
1220.85,0.097188,540472,432101
1225.51,0.096354,549929,440507
1229.01,0.096093,556888,446349
1232.5,0.094949,562180,451779
1235.98,0.094714,567975,456683
1239.46,0.093481,574815,463497
1242.94,0.092562,582782,470917
1246.41,0.092150,591476,478396
1251.03,0.092105,604016,488589
1254.5,0.092326,612289,495029
1257.96,0.092590,619125,500252
1261.41,0.093227,624551,503896
1264.86,0.093222,629900,508218
1268.31,0.094098,634345,510773
1271.75,0.095066,638574,513033
1276.33,0.095218,642499,516006
1279.76,0.095028,645905,518968
1283.19,0.094257,648307,521824
1286.61,0.094002,650446,523853
1290.03,0.093566,652132,525738
1293.44,0.093210,653907,527601
1296.85,0.092766,655963,529802
1301.39,0.092757,657349,530932
1304.8,0.092476,657558,531445
1308.19,0.092643,658515,532013
1311.58,0.093008,658804,531800
1314.97,0.093523,659011,531337
1318.36,0.093812,658272,530388
1321.73,0.093711,658022,530310
1326.23,0.095000,657870,528616
1329.6,0.095653,656482,526708
1332.97,0.096315,654926,524659
1336.33,0.097792,653727,521920
1339.69,0.098832,652497,519692
1343.04,0.100511,649913,515637
1346.39,0.102057,647671,512032
1349.73,0.104660,645338,507139
1354.18,0.107290,641175,500826
1357.52,0.109021,638376,496656
1360.85,0.111459,635805,491886
1364.17,0.113030,633413,488266
1367.49,0.115400,631026,483779
1370.81,0.117499,628050,479176
1374.12,0.119324,625034,474875
1378.54,0.122652,620272,467660
1381.84,0.125703,616892,461856
1385.14,0.128303,613613,456659
1388.43,0.132220,611526,451019
1391.72,0.136524,610663,445941
1395.01,0.140518,610634,441838
1398.29,0.144998,611700,438067
1402.66,0.151415,614051,433301
1405.93,0.156488,616268,429815
1409.2,0.161648,617795,425791
1412.46,0.165455,618872,422811
1415.72,0.169490,619795,419525
1418.98,0.172682,620495,416923
1422.23,0.176417,621087,413748
1426.56,0.180337,621375,410220
1429.8,0.183045,621616,407828
1433.04,0.185519,622129,405846
1436.27,0.187522,621526,403587
1439.5,0.189706,621113,401296
1442.72,0.191947,620921,399107
1445.94,0.194498,620270,396354
1450.23,0.198200,618860,392096
1453.44,0.200538,617697,389258
1456.64,0.203169,616264,386009
1459.85,0.206230,614413,382147
1463.04,0.208472,612307,378876
1466.24,0.212244,610032,374204
1469.43,0.216354,607345,369047
1473.67,0.222462,603789,361762
1476.85,0.227557,601175,355995
1480.02,0.233594,597737,349073
1483.19,0.240542,594479,341660
1486.36,0.245663,591232,335811
1489.52,0.250958,587853,329846
1492.68,0.253908,583875,325396
1496.89,0.255817,578062,320743
1500.03,0.256404,574159,318147
1503.18,0.256316,570285,316065
1506.32,0.255431,565444,314021
1509.45,0.253524,560571,312685
1512.58,0.252585,555821,310706
1515.71,0.250582,550344,309067
1519.87,0.247122,543983,307938
1522.99,0.244498,538764,306832
1526.1,0.242279,533692,305500
1529.21,0.239895,527902,303849
1532.32,0.236086,521886,303033
1535.42,0.233641,515888,301241
1538.51,0.230709,509987,299813
1541.6,0.228178,503936,297987
1545.72,0.224328,494694,295127
1548.8,0.221435,488378,293306
1551.88,0.219516,481832,290656
1554.95,0.216836,474989,288302
1558.02,0.215160,467818,285047
1561.08,0.214311,460730,281278
1564.15,0.214110,454170,277401
1568.22,0.212461,444181,272332
1571.27,0.212168,436947,268078
1574.32,0.211908,429598,263727
1577.36,0.209503,422039,260525
1580.4,0.208959,414375,256115
1583.43,0.207170,406354,252194
1586.46,0.205713,398475,248135
1590.49,0.204150,388982,243097
1593.51,0.201889,380708,239168
1596.53,0.199546,372727,235421
1599.54,0.197986,365060,231408
1602.55,0.196393,357543,227476
1605.55,0.193800,349495,223687
1608.55,0.192717,341154,218894
1612.54,0.190460,330877,213406
1615.53,0.189603,322904,208675
1618.51,0.187314,315116,204718
1621.49,0.186728,307217,199856
1624.47,0.185523,299481,195365
1627.44,0.184548,292112,190986
1630.41,0.182797,284245,186593
1634.36,0.182398,274079,180085
1637.32,0.181818,266916,175613
1640.27,0.180053,259612,171503
1643.22,0.179792,251804,166445
1646.16,0.179863,244348,161490
1649.1,0.178014,236703,157105
1652.04,0.177381,228171,151663
1655.95,0.173217,215408,144559
1658.88,0.171235,204937,138161
1661.8,0.164711,193395,132353
1664.72,0.157803,179728,124972
1667.63,0.144712,163642,117269
1670.54,0.130760,146312,108273
1673.44,0.113884,128451,98822
1677.31,0.096358,105080,84171
1680.21,0.084141,88906,73247
1683.1,0.074192,75033,63250
1685.99,0.077146,63520,53182
1688.87,0.080363,53714,44640
1691.75,0.087388,45653,37332
1694.62,0.084961,39137,32183
1697.49,0.090984,33776,27392
1701.31,0.104275,28175,22161

File: Column 1_050604_20150331_122532.csv
Method:,Column 1,,
Host Date-Time:,31/3/15 @ 12:25:32,,
Header Version:,1,,
System Temp (C):,34,,
Detector Temp (C):,34.84,,
Humidity (%):,1.76,,
Lamp PD:,3818,,
Shift Vector Coefficients:,-10.5391,0.0761263,-0.000134223,,
Pixel to Wavelength Coefficients:,1775.68,-0.916766,-0.000235065,,
Serial Number:,5510004,,
Scan Config Name:,Column 1,,
Scan Config Type:,Slew,,
Section 1,,
Start wavelength (nm):,900,,
End wavelength (nm):,1700,,
Pattern Pixel Width (nm):,   7.03,,,,
Exposure (ms):,  0.635,,,,
Digital Resolution:,228,,
Num Repeats:,6,,
PGA Gain:,64,,
Total Measurement Time in sec:,  2.726,,
Wavelength (nm),Absorbance (AU),Reference Signal (unitless),Sample Signal (unitless)
901.51,0.066966,108485,92983
905.376,0.074312,121306,102228
909.237,0.075782,131909,110788
913.095,0.076498,143299,120156
916.948,0.076683,156982,131573
922.079,0.078118,179937,150315
925.923,0.081905,200504,166042
929.762,0.081039,222660,184758
933.597,0.081176,244426,202755
937.427,0.078831,263972,220154
941.254,0.079370,281845,234769
945.076,0.078046,297271,248374
950.165,0.077818,315605,263831
953.978,0.076865,328029,274819
957.786,0.076632,340470,285395
961.59,0.077085,352317,295018
965.389,0.076677,363056,304296
969.185,0.077350,373162,312282
972.976,0.077184,382632,320330
976.763,0.077527,391202,327246
981.806,0.078274,400190,334189
985.583,0.079529,406088,338136
989.355,0.078979,410162,341961
993.124,0.079823,412868,343549
996.888,0.079865,414263,344676
1000.65,0.080961,415476,344814
1004.4,0.082450,415479,343636
1009.41,0.083329,414358,342016
1013.15,0.083593,412923,340625
1016.89,0.084191,411526,339005
1020.63,0.083735,409066,337333
1024.36,0.084275,406777,335028
1028.09,0.084117,404427,333214
1031.82,0.083882,401911,331320
1036.78,0.083988,398410,328354
1040.49,0.083197,396204,327131
1044.2,0.084105,394236,324826
1047.91,0.083523,392042,323452
1051.61,0.082451,389823,322416
1055.31,0.082188,388234,321296
1059,0.082238,387599,320734
1063.92,0.080994,386688,320898
1067.61,0.080790,386598,320974
1071.29,0.079663,387377,322456
1074.96,0.079648,388536,323432
1078.63,0.079095,389855,324944
1082.3,0.077505,391215,327273
1085.96,0.077401,393215,329025
1090.84,0.076537,396270,332242
1094.49,0.075874,398760,334840
1098.14,0.075332,400987,337131
1101.79,0.074563,403477,339825
1105.43,0.074876,406116,341802
1109.06,0.073738,407701,344036
1112.7,0.073381,409859,346141
1117.53,0.073084,412494,348605
1121.15,0.073449,414909,350351
1124.77,0.073250,416559,351906
1128.38,0.074334,418532,352691
1131.99,0.075923,419956,352599
1135.6,0.076989,421946,353401
1139.2,0.077997,423881,354199
1143.99,0.080696,426786,354417
1147.58,0.081113,428617,355596
1151.17,0.082092,431169,356907
1154.75,0.083041,433579,358119
1158.33,0.084637,436264,359015
1161.91,0.085599,439132,360575
1165.48,0.088178,442389,361099
1169.04,0.090581,446101,362120
1173.79,0.094088,451929,363900
1177.34,0.095612,456026,365913
1180.9,0.097855,461306,368243
1184.44,0.100207,467657,371296
1187.99,0.100655,473969,375920
1191.52,0.100585,479856,380650
1195.06,0.100481,487372,386705
1199.76,0.100165,497347,394907
1203.29,0.099603,504311,400955
1206.81,0.098875,511507,407358
1210.33,0.098198,519078,414033
1213.84,0.097865,527163,420804
1217.35,0.097262,534208,427020
1220.85,0.096420,540472,432866
1225.51,0.095792,549929,441077
1229.01,0.095322,556888,447142
1232.5,0.094166,562180,452595
1235.98,0.094166,567975,457260
1239.46,0.093061,574815,463946
1242.94,0.092206,582782,471303
1246.41,0.091710,591476,478880
1251.03,0.091362,604016,489425
1254.5,0.091319,612289,496178
1257.96,0.091942,619125,500998
1261.41,0.092459,624551,504788
1264.86,0.092950,629900,508536
1268.31,0.093804,634345,511118
1271.75,0.094303,638574,513935
1276.33,0.094851,642499,516442
1279.76,0.094324,645905,519810
1283.19,0.094135,648307,521970
1286.61,0.093618,650446,524316
1290.03,0.093308,652132,526051
1293.44,0.092788,653907,528114
1296.85,0.092840,655963,529712
1301.39,0.092219,657349,531590
1304.8,0.092090,657558,531917
1308.19,0.092560,658515,532115
1311.58,0.092407,658804,532536
1314.97,0.092994,659011,531984
1318.36,0.093192,658272,531145
1321.73,0.093466,658022,530609
1326.23,0.094533,657870,529185
1329.6,0.094931,656482,527584
1332.97,0.096362,654926,524602
1336.33,0.096829,653727,523079
1339.69,0.098265,652497,520371
1343.04,0.099720,649913,516577
1346.39,0.101760,647671,512383
1349.73,0.103778,645338,508170
1354.18,0.106948,641175,501220
1357.52,0.108583,638376,497157
1360.85,0.110721,635805,492723
1364.17,0.112633,633413,488713
1367.49,0.115073,631026,484144
1370.81,0.117035,628050,479688
1374.12,0.118980,625034,475252
1378.54,0.121957,620272,468409
1381.84,0.124914,616892,462695
1385.14,0.127920,613613,457061
1388.43,0.131665,611526,451596
1391.72,0.136148,610663,446327
1395.01,0.140148,610634,442214
1398.29,0.144941,611700,438124
1402.66,0.150181,614051,434534
1405.93,0.156014,616268,430284
1409.2,0.160454,617795,426963
1412.46,0.165168,618872,423090
1415.72,0.168962,619795,420036
1418.98,0.172524,620495,417075
1422.23,0.175188,621087,414920
1426.56,0.179678,621375,410843
1429.8,0.182452,621616,408385
1433.04,0.184841,622129,406480
1436.27,0.186879,621526,404185
1439.5,0.188820,621113,402115
1442.72,0.191047,620921,399935
1445.94,0.194079,620270,396736
1450.23,0.197104,618860,393087
1453.44,0.200084,617697,389665
1456.64,0.202418,616264,386677
1459.85,0.205790,614413,382534
1463.04,0.208081,612307,379217
1466.24,0.211518,610032,374830
1469.43,0.215442,607345,369823
1473.67,0.221495,603789,362569
1476.85,0.227133,601175,356343
1480.02,0.233028,597737,349528
1483.19,0.239268,594479,342664
1486.36,0.245482,591232,335951
1489.52,0.249786,587853,330737
1492.68,0.253462,583875,325730
1496.89,0.255264,578062,321152
1500.03,0.256230,574159,318275
1503.18,0.255954,570285,316328
1506.32,0.254725,565444,314532
1509.45,0.253635,560571,312605
1512.58,0.252109,555821,311047
1515.71,0.249941,550344,309523
1519.87,0.246519,543983,308366
1522.99,0.244069,538764,307135
1526.1,0.241696,533692,305911
1529.21,0.238950,527902,304511
1532.32,0.235572,521886,303392
1535.42,0.233244,515888,301517
1538.51,0.230240,509987,300137
1541.6,0.227782,503936,298259
1545.72,0.223477,494694,295706
1548.8,0.220583,488378,293882
1551.88,0.218302,481832,291470
1554.95,0.216229,474989,288705
1558.02,0.214262,467818,285637
1561.08,0.213031,460730,282108
1564.15,0.213169,454170,278003
1568.22,0.211945,444181,272656
1571.27,0.211258,436947,268640
1574.32,0.210666,429598,264482
1577.36,0.209343,422039,260621
1580.4,0.207748,414375,256830
1583.43,0.205866,406354,252952
1586.46,0.205094,398475,248489
1590.49,0.203138,388982,243664
1593.51,0.200477,380708,239947
1596.53,0.198932,372727,235754
1599.54,0.197110,365060,231875
1602.55,0.194606,357543,228414
1605.55,0.193567,349495,223807
1608.55,0.190378,341154,220076
1612.54,0.189797,330877,213732
1615.53,0.187492,322904,209692
1618.51,0.186945,315116,204892
1621.49,0.185738,307217,200312
1624.47,0.184849,299481,195668
1627.44,0.183632,292112,191389
1630.41,0.181619,284245,187100
1634.36,0.181317,274079,180534
1637.32,0.180790,266916,176029
1640.27,0.180522,259612,171318
1643.22,0.178149,251804,167076
1646.16,0.177629,244348,162323
1649.1,0.177011,236703,157468
1652.04,0.175184,228171,152432
1655.95,0.171588,215408,145102
1658.88,0.168965,204937,138885
1661.8,0.163012,193395,132872
1664.72,0.156190,179728,125437
1667.63,0.143683,163642,117547
1670.54,0.129890,146312,108490
1673.44,0.111478,128451,99371
1677.31,0.092464,105080,84929
1680.21,0.078592,88906,74189
1683.1,0.071932,75033,63580
1685.99,0.076403,63520,53273
1688.87,0.078228,53714,44860
1691.75,0.084362,45653,37593
1694.62,0.086949,39137,32036
1697.49,0.085893,33776,27715
1701.31,0.093838,28175,22700