Folder: textile_sorting_NIRSCAN_/samples/wool/wool-000811 (part 116)

File: Column 1_050596_20150331_122144.csv
Method:,Column 1,,
Host Date-Time:,31/3/15 @ 12:21:44,,
Header Version:,1,,
System Temp (C):,33.92,,
Detector Temp (C):,34.67,,
Humidity (%):,1.76,,
Lamp PD:,3819,,
Shift Vector Coefficients:,-10.5391,0.0761263,-0.000134223,,
Pixel to Wavelength Coefficients:,1775.68,-0.916766,-0.000235065,,
Serial Number:,5510004,,
Scan Config Name:,Column 1,,
Scan Config Type:,Slew,,
Section 1,,
Start wavelength (nm):,900,,
End wavelength (nm):,1700,,
Pattern Pixel Width (nm):,   7.03,,,,
Exposure (ms):,  0.635,,,,
Digital Resolution:,228,,
Num Repeats:,6,,
PGA Gain:,64,,
Total Measurement Time in sec:,  2.680,,
Wavelength (nm),Absorbance (AU),Reference Signal (unitless),Sample Signal (unitless)
901.51,0.068909,108485,92568
905.376,0.077519,121306,101476
909.237,0.077695,131909,110301
913.095,0.078893,143299,119495
916.948,0.078977,156982,130880
922.079,0.080930,179937,149345
925.923,0.082138,200504,165953
929.762,0.083245,222660,183822
933.597,0.083020,244426,201896
937.427,0.082357,263972,218374
941.254,0.081082,281845,233845
945.076,0.080559,297271,246941
950.165,0.079476,315605,262826
953.978,0.078477,328029,273801
957.786,0.078978,340470,283858
961.59,0.079087,352317,293661
965.389,0.078811,363056,302805
969.185,0.078642,373162,311355
972.976,0.079057,382632,318951
976.763,0.080486,391202,325024
981.806,0.079723,400190,333076
985.583,0.080569,406088,337327
989.355,0.081374,410162,340080
993.124,0.081842,412868,341955
996.888,0.082123,414263,342889
1000.65,0.082575,415476,343535
1004.4,0.083461,415479,342837
1009.41,0.085141,414358,340592
1013.15,0.085443,412923,339177
1016.89,0.086130,411526,337495
1020.63,0.086236,409066,335396
1024.36,0.086076,406777,333642
1028.09,0.085943,404427,331816
1031.82,0.085856,401911,329818
1036.78,0.085472,398410,327234
1040.49,0.085218,396204,325612
1044.2,0.085390,394236,323867
1047.91,0.084403,392042,322797
1051.61,0.084538,389823,320870
1055.31,0.083915,388234,320021
1059,0.083912,387599,319500
1063.92,0.082623,386688,319696
1067.61,0.083078,386598,319287
1071.29,0.081828,387377,320853
1074.96,0.081698,388536,321909
1078.63,0.081391,389855,323230
1082.3,0.079634,391215,325673
1085.96,0.079036,393215,327789
1090.84,0.077997,396270,331127
1094.49,0.077785,398760,333370
1098.14,0.077148,400987,335724
1101.79,0.076046,403477,338667
1105.43,0.076208,406116,340755
1109.06,0.075238,407701,342850
1112.7,0.075300,409859,344615
1117.53,0.074825,412494,347210
1121.15,0.075337,414909,348832
1124.77,0.075537,416559,350058
1128.38,0.076863,418532,350643
1131.99,0.077746,419956,351122
1135.6,0.078843,421946,351896
1139.2,0.080721,423881,351984
1143.99,0.082354,426786,353066
1147.58,0.082968,428617,354080
1151.17,0.084345,431169,355061
1154.75,0.084720,433579,356737
1158.33,0.086646,436264,357358
1161.91,0.088463,439132,358205
1165.48,0.090476,442389,359193
1169.04,0.092580,446101,360457
1173.79,0.096022,451929,362283
1177.34,0.097895,456026,363994
1180.9,0.099833,461306,366569
1184.44,0.101672,467657,370046
1187.99,0.103019,473969,373879
1191.52,0.103307,479856,378272
1195.06,0.103166,487372,384321
1199.76,0.102130,497347,393124
1203.29,0.101199,504311,399484
1206.81,0.100732,511507,405620
1210.33,0.100078,519078,412244
1213.84,0.100115,527163,418630
1217.35,0.098773,534208,425537
1220.85,0.098016,540472,431278
1225.51,0.097962,549929,438879
1229.01,0.096857,556888,445565
1232.5,0.096652,562180,450011
1235.98,0.095893,567975,455445
1239.46,0.094960,574815,461921
1242.94,0.093929,582782,469437
1246.41,0.093292,591476,477139
1251.03,0.093109,604016,487461
1254.5,0.093131,612289,494112
1257.96,0.093526,619125,499175
1261.41,0.094396,624551,502541
1264.86,0.094981,629900,506163
1268.31,0.095240,634345,509431
1271.75,0.095912,638574,512035
1276.33,0.096450,642499,514544
1279.76,0.095766,645905,518087
1283.19,0.096218,648307,519473
1286.61,0.095461,650446,522096
1290.03,0.094835,652132,524204
1293.44,0.094385,653907,526176
1296.85,0.093852,655963,528479
1301.39,0.093818,657349,529637
1304.8,0.093720,657558,529925
1308.19,0.093992,658515,530364
1311.58,0.094018,658804,530565
1314.97,0.094989,659011,529546
1318.36,0.095193,658272,528704
1321.73,0.095606,658022,528000
1326.23,0.096318,657870,527014
1329.6,0.097421,656482,524568
1332.97,0.098148,654926,522449
1336.33,0.099018,653727,520449
1339.69,0.100590,652497,517593
1343.04,0.101975,649913,513902
1346.39,0.104210,647671,509500
1349.73,0.106175,645338,505373
1354.18,0.109179,641175,498652
1357.52,0.111024,638376,494370
1360.85,0.112851,635805,490312
1364.17,0.115257,633413,485769
1367.49,0.117191,631026,481788
1370.81,0.119280,628050,477215
1374.12,0.121446,625034,472561
1378.54,0.124297,620272,465892
1381.84,0.127444,616892,460008
1385.14,0.130496,613613,454358
1388.43,0.134331,611526,448832
1391.72,0.139116,610663,443288
1395.01,0.143371,610634,438945
1398.29,0.148032,611700,435017
1402.66,0.154604,614051,430131
1405.93,0.159622,616268,426725
1409.2,0.164536,617795,422969
1412.46,0.169270,618872,419113
1415.72,0.172989,619795,416159
1418.98,0.176929,620495,412866
1422.23,0.180824,621087,409570
1426.56,0.184389,621375,406410
1429.8,0.186972,621616,404157
1433.04,0.189483,622129,402159
1436.27,0.191658,621526,399762
1439.5,0.193653,621113,397665
1442.72,0.196194,620921,395223
1445.94,0.198619,620270,392610
1450.23,0.201494,618860,389133
1453.44,0.204679,617697,385564
1456.64,0.207264,616264,382387
1459.85,0.209715,614413,379093
1463.04,0.212775,612307,375141
1466.24,0.215920,610032,371050
1469.43,0.219574,607345,366321
1473.67,0.225711,603789,359066
1476.85,0.231150,601175,353062
1480.02,0.236471,597737,346768
1483.19,0.242987,594479,339742
1486.36,0.248270,591232,333801
1489.52,0.252695,587853,328529
1492.68,0.256341,583875,323578
1496.89,0.259191,578062,318261
1500.03,0.258776,574159,316414
1503.18,0.259111,570285,314037
1506.32,0.257918,565444,312228
1509.45,0.256485,560571,310560
1512.58,0.255002,555821,308982
1515.71,0.253253,550344,307172
1519.87,0.250176,543983,305780
1522.99,0.247331,538764,304837
1526.1,0.245115,533692,303512
1529.21,0.241647,527902,302626
1532.32,0.239309,521886,300792
1535.42,0.236030,515888,299589
1538.51,0.233079,509987,298181
1541.6,0.230422,503936,296451
1545.72,0.226258,494694,293818
1548.8,0.223396,488378,291985
1551.88,0.221516,481832,289321
1554.95,0.219670,474989,286427
1558.02,0.217928,467818,283236
1561.08,0.216919,460730,279594
1564.15,0.215938,454170,276236
1568.22,0.215251,444181,270588
1571.27,0.214552,436947,266610
1574.32,0.214031,429598,262441
1577.36,0.212140,422039,258948
1580.4,0.211974,414375,254343
1583.43,0.209383,406354,250912
1586.46,0.208420,398475,246593
1590.49,0.206084,388982,242017
1593.51,0.205992,380708,236919
1596.53,0.202108,372727,234036
1599.54,0.199903,365060,230389
1602.55,0.198891,357543,226171
1605.55,0.196715,349495,222191
1608.55,0.194426,341154,218034
1612.54,0.191928,330877,212686
1615.53,0.190783,322904,208109
1618.51,0.189705,315116,203594
1621.49,0.188933,307217,198844
1624.47,0.187624,299481,194422
1627.44,0.185878,292112,190402
1630.41,0.185857,284245,185283
1634.36,0.184504,274079,179214
1637.32,0.183662,266916,174869
1640.27,0.184551,259612,169736
1643.22,0.182545,251804,165393
1646.16,0.181580,244348,160853
1649.1,0.179870,236703,156435
1652.04,0.179401,228171,150959
1655.95,0.176044,215408,143621
1658.88,0.171921,204937,137943
1661.8,0.166154,193395,131914
1664.72,0.160396,179728,124228
1667.63,0.146694,163642,116735
1670.54,0.132915,146312,107737
1673.44,0.116613,128451,98203
1677.31,0.098416,105080,83773
1680.21,0.085721,88906,72981
1683.1,0.080444,75033,62346
1685.99,0.080499,63520,52773
1688.87,0.086201,53714,44044
1691.75,0.093799,45653,36785
1694.62,0.098016,39137,31230
1697.49,0.101967,33776,26708
1701.31,0.102749,28175,22239

File: Column 1_050596_20150331_122153.csv
Method:,Column 1,,
Host Date-Time:,31/3/15 @ 12:21:53,,
Header Version:,1,,
System Temp (C):,33.93,,
Detector Temp (C):,34.69,,
Humidity (%):,1.76,,
Lamp PD:,3819,,
Shift Vector Coefficients:,-10.5391,0.0761263,-0.000134223,,
Pixel to Wavelength Coefficients:,1775.68,-0.916766,-0.000235065,,
Serial Number:,5510004,,
Scan Config Name:,Column 1,,
Scan Config Type:,Slew,,
Section 1,,
Start wavelength (nm):,900,,
End wavelength (nm):,1700,,
Pattern Pixel Width (nm):,   7.03,,,,
Exposure (ms):,  0.635,,,,
Digital Resolution:,228,,
Num Repeats:,6,,
PGA Gain:,64,,
Total Measurement Time in sec:,  2.676,,
Wavelength (nm),Absorbance (AU),Reference Signal (unitless),Sample Signal (unitless)
901.51,0.070408,108485,92249
905.376,0.076143,121306,101798
909.237,0.078428,131909,110115
913.095,0.079872,143299,119226
916.948,0.078698,156982,130964
922.079,0.082272,179937,148884
925.923,0.082504,200504,165813
929.762,0.083762,222660,183603
933.597,0.082897,244426,201953
937.427,0.081924,263972,218592
941.254,0.081558,281845,233589
945.076,0.080289,297271,247095
950.165,0.079447,315605,262843
953.978,0.079165,328029,273368
957.786,0.078501,340470,284170
961.59,0.079548,352317,293350
965.389,0.078904,363056,302740
969.185,0.079168,373162,310978
972.976,0.079101,382632,318919
976.763,0.080006,391202,325383
981.806,0.080114,400190,332776
985.583,0.080928,406088,337048
989.355,0.081345,410162,340103
993.124,0.081714,412868,342056
996.888,0.082400,414263,342670
1000.65,0.082910,415476,343270
1004.4,0.084367,415479,342123
1009.41,0.085811,414358,340067
1013.15,0.085470,412923,339156
1016.89,0.086201,411526,337440
1020.63,0.086392,409066,335275
1024.36,0.086408,406777,333387
1028.09,0.086066,404427,331722
1031.82,0.085341,401911,330209
1036.78,0.085213,398410,327429
1040.49,0.085208,396204,325620
1044.2,0.084812,394236,324298
1047.91,0.084760,392042,322532
1051.61,0.084510,389823,320891
1055.31,0.084322,388234,319721
1059,0.083206,387599,320020
1063.92,0.083113,386688,319336
1067.61,0.082506,386598,319708
1071.29,0.081921,387377,320784
1074.96,0.081237,388536,322251
1078.63,0.080815,389855,323659
1082.3,0.079668,391215,325647
1085.96,0.078836,393215,327940
1090.84,0.077919,396270,331186
1094.49,0.077790,398760,333366
1098.14,0.077015,400987,335827
1101.79,0.075998,403477,338704
1105.43,0.076507,406116,340520
1109.06,0.076146,407701,342134
1112.7,0.075177,409859,344713
1117.53,0.075032,412494,347045
1121.15,0.075582,414909,348635
1124.77,0.075540,416559,350055
1128.38,0.076397,418532,351020
1131.99,0.077903,419956,350995
1135.6,0.078619,421946,352077
1139.2,0.080064,423881,352517
1143.99,0.082680,426786,352801
1147.58,0.083254,428617,353847
1151.17,0.084414,431169,355004
1154.75,0.084880,433579,356606
1158.33,0.085990,436264,357898
1161.91,0.087886,439132,358682
1165.48,0.090056,442389,359541
1169.04,0.092624,446101,360420
1173.79,0.095875,451929,362406
1177.34,0.098015,456026,363894
1180.9,0.100226,461306,366238
1184.44,0.101558,467657,370143
1187.99,0.102341,473969,374463
1191.52,0.102544,479856,378937
1195.06,0.102725,487372,384712
1199.76,0.102438,497347,392845
1203.29,0.101572,504311,399141
1206.81,0.100770,511507,405585
1210.33,0.100179,519078,412148
1213.84,0.100137,527163,418608
1217.35,0.099080,534208,425236
1220.85,0.098675,540472,430624
1225.51,0.097403,549929,439444
1229.01,0.097539,556888,444866
1232.5,0.096293,562180,450383
1235.98,0.095949,567975,455387
1239.46,0.095118,574815,461753
1242.94,0.094031,582782,469327
1246.41,0.093699,591476,476692
1251.03,0.093642,604016,486863
1254.5,0.093521,612289,493668
1257.96,0.094029,619125,498597
1261.41,0.094136,624551,502842
1264.86,0.094714,629900,506474
1268.31,0.095437,634345,509200
1271.75,0.096361,638574,511505
1276.33,0.096488,642499,514499
1279.76,0.096170,645905,517605
1283.19,0.095621,648307,520187
1286.61,0.095471,650446,522084
1290.03,0.095025,652132,523975
1293.44,0.094785,653907,525691
1296.85,0.094561,655963,527616
1301.39,0.093702,657349,529778
1304.8,0.094349,657558,529158
1308.19,0.094359,658515,529915
1311.58,0.094112,658804,530450
1314.97,0.094303,659011,530383
1318.36,0.095262,658272,528620
1321.73,0.095708,658022,527877
1326.23,0.096600,657870,526672
1329.6,0.097287,656482,524730
1332.97,0.098177,654926,522415
1336.33,0.099431,653727,519954
1339.69,0.100724,652497,517434
1343.04,0.102019,649913,513850
1346.39,0.104408,647671,509268
1349.73,0.105610,645338,506031
1354.18,0.108883,641175,498992
1357.52,0.110913,638376,494497
1360.85,0.113141,635805,489985
1364.17,0.114972,633413,486088
1367.49,0.117234,631026,481741
1370.81,0.119913,628050,476520
1374.12,0.121798,625034,472178
1378.54,0.124170,620272,466028
1381.84,0.127731,616892,459704
1385.14,0.131456,613613,453355
1388.43,0.134608,611526,448546
1391.72,0.138873,610663,443536
1395.01,0.143470,610634,438845
1398.29,0.148492,611700,434557
1402.66,0.154423,614051,430310
1405.93,0.159742,616268,426607
1409.2,0.164539,617795,422966
1412.46,0.169557,618872,418836
1415.72,0.173155,619795,416000
1418.98,0.176610,620495,413170
1422.23,0.180280,621087,410084
1426.56,0.184375,621375,406423
1429.8,0.187107,621616,404031
1433.04,0.189846,622129,401823
1436.27,0.191605,621526,399811
1439.5,0.193588,621113,397725
1442.72,0.196282,620921,395143
1445.94,0.198469,620270,392746
1450.23,0.201524,618860,389106
1453.44,0.204926,617697,385345
1456.64,0.207746,616264,381963
1459.85,0.210157,614413,378707
1463.04,0.212837,612307,375087
1466.24,0.215729,610032,371213
1469.43,0.219712,607345,366204
1473.67,0.225741,603789,359041
1476.85,0.231063,601175,353133
1480.02,0.236327,597737,346883
1483.19,0.242989,594479,339741
1486.36,0.248171,591232,333877
1489.52,0.252805,587853,328446
1492.68,0.256330,583875,323586
1496.89,0.258695,578062,318625
1500.03,0.259568,574159,315838
1503.18,0.259310,570285,313893
1506.32,0.258289,565444,311961
1509.45,0.256419,560571,310607
1512.58,0.254610,555821,309261
1515.71,0.252682,550344,307576
1519.87,0.250303,543983,305691
1522.99,0.247022,538764,305054
1526.1,0.244440,533692,303984
1529.21,0.242342,527902,302142
1532.32,0.238307,521886,301487
1535.42,0.236347,515888,299370
1538.51,0.233516,509987,297881
1541.6,0.230422,503936,296451
1545.72,0.226215,494694,293847
1548.8,0.223957,488378,291608
1551.88,0.221993,481832,289003
1554.95,0.219329,474989,286652
1558.02,0.218042,467818,283162
1561.08,0.217003,460730,279540
1564.15,0.216612,454170,275808
1568.22,0.215112,444181,270675
1571.27,0.214113,436947,266880
1574.32,0.213379,429598,262835
1577.36,0.211860,422039,259115
1580.4,0.211303,414375,254736
1583.43,0.209726,406354,250714
1586.46,0.208260,398475,246684
1590.49,0.206344,388982,241872
1593.51,0.204070,380708,237970
1596.53,0.202138,372727,234020
1599.54,0.200197,365060,230233
1602.55,0.198354,357543,226451
1605.55,0.196697,349495,222200
1608.55,0.194124,341154,218186
1612.54,0.192809,330877,212255
1615.53,0.190026,322904,208472
1618.51,0.190444,315116,203248
1621.49,0.189700,307217,198493
1624.47,0.187251,299481,194589
1627.44,0.187045,292112,189891
1630.41,0.186127,284245,185168
1634.36,0.184732,274079,179120
1637.32,0.183985,266916,174739
1640.27,0.182794,259612,170424
1643.22,0.181104,251804,165943
1646.16,0.180380,244348,161298
1649.1,0.179928,236703,156414
1652.04,0.179410,228171,150956
1655.95,0.176080,215408,143609
1658.88,0.172554,204937,137742
1661.8,0.166718,193395,131743
1664.72,0.159279,179728,124548
1667.63,0.148248,163642,116318
1670.54,0.133880,146312,107498
1673.44,0.117684,128451,97961
1677.31,0.098795,105080,83700
1680.21,0.084586,88906,73172
1683.1,0.083064,75033,61971
1685.99,0.082189,63520,52568
1688.87,0.084931,53714,44173
1691.75,0.089335,45653,37165
1694.62,0.095105,39137,31440
1697.49,0.103988,33776,26584
1701.31,0.102475,28175,22253

File: Column 1_050597_20150331_122158.csv
Method:,Column 1,,
Host Date-Time:,31/3/15 @ 12:21:58,,
Header Version:,1,,
System Temp (C):,33.91,,
Detector Temp (C):,34.69,,
Humidity (%):,1.76,,
Lamp PD:,3818,,
Shift Vector Coefficients:,-10.5391,0.0761263,-0.000134223,,
Pixel to Wavelength Coefficients:,1775.68,-0.916766,-0.000235065,,
Serial Number:,5510004,,
Scan Config Name:,Column 1,,
Scan Config Type:,Slew,,
Section 1,,
Start wavelength (nm):,900,,
End wavelength (nm):,1700,,
Pattern Pixel Width (nm):,   7.03,,,,
Exposure (ms):,  0.635,,,,
Digital Resolution:,228,,
Num Repeats:,6,,
PGA Gain:,64,,
Total Measurement Time in sec:,  2.666,,
Wavelength (nm),Absorbance (AU),Reference Signal (unitless),Sample Signal (unitless)
901.51,0.071209,108485,92079
905.376,0.076438,121306,101729
909.237,0.078026,131909,110217
913.095,0.077659,143299,119835
916.948,0.079940,156982,130590
922.079,0.081579,179937,149122
925.923,0.082295,200504,165893
929.762,0.082485,222660,184144
933.597,0.082104,244426,202322
937.427,0.082194,263972,218456
941.254,0.080717,281845,234042
945.076,0.079204,297271,247713
950.165,0.078441,315605,263453
953.978,0.078603,328029,273722
957.786,0.078702,340470,284038
961.59,0.078194,352317,294266
965.389,0.079065,363056,302628
969.185,0.078603,373162,311383
972.976,0.078954,382632,319027
976.763,0.079982,391202,325401
981.806,0.080121,400190,332771
985.583,0.081331,406088,336736
989.355,0.080572,410162,340709
993.124,0.081371,412868,342326
996.888,0.081867,414263,343091
1000.65,0.082129,415476,343888
1004.4,0.083881,415479,342506
1009.41,0.085195,414358,340550
1013.15,0.085625,412923,339035
1016.89,0.086485,411526,337219
1020.63,0.085764,409066,335760
1024.36,0.085472,406777,334106
1028.09,0.085512,404427,332145
1031.82,0.085724,401911,329918
1036.78,0.085179,398410,327455
1040.49,0.084908,396204,325845
1044.2,0.084243,394236,324723
1047.91,0.084131,392042,322999
1051.61,0.084049,389823,321232
1055.31,0.083988,388234,319967
1059,0.083688,387599,319665
1063.92,0.082341,386688,319904
1067.61,0.081604,386598,320373
1071.29,0.081164,387377,321344
1074.96,0.081031,388536,322404
1078.63,0.080109,389855,324186
1082.3,0.079943,391215,325441
1085.96,0.079156,393215,327698
1090.84,0.077652,396270,331390
1094.49,0.077637,398760,333484
1098.14,0.077424,400987,335511
1101.79,0.076291,403477,338476
1105.43,0.075660,406116,341185
1109.06,0.075183,407701,342893
1112.7,0.075346,409859,344579
1117.53,0.074735,412494,347282
1121.15,0.075150,414909,348982
1124.77,0.075246,416559,350292
1128.38,0.076664,418532,350804
1131.99,0.077805,419956,351074
1135.6,0.078939,421946,351818
1139.2,0.079719,423881,352797
1143.99,0.081522,426786,353743
1147.58,0.083100,428617,353972
1151.17,0.083923,431169,355406
1154.75,0.084684,433579,356767
1158.33,0.086566,436264,357424
1161.91,0.088278,439132,358358
1165.48,0.090021,442389,359570
1169.04,0.091861,446101,361054
1173.79,0.095507,451929,362713
1177.34,0.098209,456026,363731
1180.9,0.099985,461306,366441
1184.44,0.101419,467657,370261
1187.99,0.102457,473969,374363
1191.52,0.102539,479856,378941
1195.06,0.102877,487372,384577
1199.76,0.101891,497347,393340
1203.29,0.101131,504311,399547
1206.81,0.100561,511507,405780
1210.33,0.099855,519078,412456
1213.84,0.100127,527163,418618
1217.35,0.099159,534208,425159
1220.85,0.097942,540472,431351
1225.51,0.097276,549929,439573
1229.01,0.097069,556888,445347
1232.5,0.096381,562180,450292
1235.98,0.095916,567975,455421
1239.46,0.094772,574815,462121
1242.94,0.093753,582782,469627
1246.41,0.093307,591476,477123
1251.03,0.093163,604016,487400
1254.5,0.093294,612289,493927
1257.96,0.094024,619125,498602
1261.41,0.094178,624551,502794
1264.86,0.094879,629900,506282
1268.31,0.095334,634345,509321
1271.75,0.095600,638574,512403
1276.33,0.096133,642499,514920
1279.76,0.095713,645905,518150
1283.19,0.095240,648307,520644
1286.61,0.095300,650446,522289
1290.03,0.094743,652132,524315
1293.44,0.094611,653907,525902
1296.85,0.093965,655963,528341
1301.39,0.093896,657349,529542
1304.8,0.093728,657558,529915
1308.19,0.093952,658515,530413
1311.58,0.094090,658804,530476
1314.97,0.094759,659011,529827
1318.36,0.095516,658272,528311
1321.73,0.095340,658022,528324
1326.23,0.096119,657870,527255
1329.6,0.097097,656482,524960
1332.97,0.098195,654926,522393
1336.33,0.098931,653727,520554
1339.69,0.100341,652497,517890
1343.04,0.102096,649913,513759
1346.39,0.103726,647671,510068
1349.73,0.106021,645338,505553
1354.18,0.109048,641175,498803
1357.52,0.110774,638376,494655
1360.85,0.112996,635805,490149
1364.17,0.115108,633413,485936
1367.49,0.117215,631026,481762
1370.81,0.119390,628050,477094
1374.12,0.121530,625034,472469
1378.54,0.124331,620272,465855
1381.84,0.127330,616892,460128
1385.14,0.130808,613613,454032
1388.43,0.134339,611526,448824
1391.72,0.138346,610663,444074
1395.01,0.143013,610634,439307
1398.29,0.147911,611700,435138
1402.66,0.154121,614051,430609
1405.93,0.159118,616268,427220
1409.2,0.164242,617795,423255
1412.46,0.169233,618872,419148
1415.72,0.173560,619795,415612
1418.98,0.176706,620495,413078
1422.23,0.180252,621087,410110
1426.56,0.184145,621375,406639
1429.8,0.186078,621616,404990
1433.04,0.189333,622129,402298
1436.27,0.191125,621526,400253
1439.5,0.193240,621113,398044
1442.72,0.195542,620921,395817
1445.94,0.198256,620270,392939
1450.23,0.201317,618860,389292
1453.44,0.204402,617697,385810
1456.64,0.207239,616264,382409
1459.85,0.210105,614413,378752
1463.04,0.212838,612307,375086
1466.24,0.215994,610032,370987
1469.43,0.219549,607345,366342
1473.67,0.225399,603789,359324
1476.85,0.230766,601175,353374
1480.02,0.236497,597737,346747
1483.19,0.242335,594479,340253
1486.36,0.248187,591232,333865
1489.52,0.252915,587853,328363
1492.68,0.255736,583875,324029
1496.89,0.257774,578062,319301
1500.03,0.258628,574159,316522
1503.18,0.258023,570285,314825
1506.32,0.257850,565444,312277
1509.45,0.255620,560571,311179
1512.58,0.254342,555821,309452
1515.71,0.253017,550344,307339
1519.87,0.249501,543983,306256
1522.99,0.247536,538764,304693
1526.1,0.244746,533692,303770
1529.21,0.241953,527902,302413
1532.32,0.238799,521886,301146
1535.42,0.235840,515888,299720
1538.51,0.233089,509987,298174
1541.6,0.230636,503936,296305
1545.72,0.226147,494694,293893
1548.8,0.223562,488378,291873
1551.88,0.221364,481832,289422
1554.95,0.219468,474989,286560
1558.02,0.217866,467818,283277
1561.08,0.215726,460730,280363
1564.15,0.215798,454170,276325
1568.22,0.215404,444181,270493
1571.27,0.214111,436947,266881
1574.32,0.213199,429598,262944
1577.36,0.212194,422039,258916
1580.4,0.210933,414375,254953
1583.43,0.209155,406354,251044
1586.46,0.207079,398475,247356
1590.49,0.206256,388982,241921
1593.51,0.204121,380708,237942
1596.53,0.201539,372727,234343
1599.54,0.199737,365060,230477
1602.55,0.198168,357543,226548
1605.55,0.196507,349495,222297
1608.55,0.194223,341154,218136
1612.54,0.192087,330877,212608
1615.53,0.190674,322904,208161
1618.51,0.188623,315116,204102
1621.49,0.189077,307217,198778
1624.47,0.187280,299481,194576
1627.44,0.186106,292112,190302
1630.41,0.184787,284245,185740
1634.36,0.184373,274079,179268
1637.32,0.182836,266916,175202
1640.27,0.182272,259612,170629
1643.22,0.181897,251804,165640
1646.16,0.180407,244348,161288
1649.1,0.180014,236703,156383
1652.04,0.180242,228171,150667
1655.95,0.175421,215408,143827
1658.88,0.171968,204937,137928
1661.8,0.166751,193395,131733
1664.72,0.157932,179728,124935
1667.63,0.146192,163642,116870
1670.54,0.132951,146312,107728
1673.44,0.118425,128451,97794
1677.31,0.097660,105080,83919
1680.21,0.085133,88906,73080
1683.1,0.080932,75033,62276
1685.99,0.081619,63520,52637
1688.87,0.086971,53714,43966
1691.75,0.090330,45653,37080
1694.62,0.090078,39137,31806
1697.49,0.102113,33776,26699
1701.31,0.112165,28175,21762