Folder: textile_sorting_NIRSCAN_/samples/wool/wool-000811 (part 30)

File: Column 1_050547_20150331_115817.csv
Method:,Column 1,,
Host Date-Time:,31/3/15 @ 11:58:17,,
Header Version:,1,,
System Temp (C):,33.02,,
Detector Temp (C):,31.65,,
Humidity (%):,2.44,,
Lamp PD:,3823,,
Shift Vector Coefficients:,-10.5391,0.0761263,-0.000134223,,
Pixel to Wavelength Coefficients:,1775.68,-0.916766,-0.000235065,,
Serial Number:,5510004,,
Scan Config Name:,Column 1,,
Scan Config Type:,Slew,,
Section 1,,
Start wavelength (nm):,900,,
End wavelength (nm):,1700,,
Pattern Pixel Width (nm):,   7.03,,,,
Exposure (ms):,  0.635,,,,
Digital Resolution:,228,,
Num Repeats:,6,,
PGA Gain:,64,,
Total Measurement Time in sec:,  2.671,,
Wavelength (nm),Absorbance (AU),Reference Signal (unitless),Sample Signal (unitless)
901.51,0.047753,108485,97189
905.376,0.054048,121306,107111
909.237,0.055918,131909,115973
913.095,0.055824,143299,126014
916.948,0.056333,156982,137885
922.079,0.055716,179937,158272
925.923,0.056640,200504,175988
929.762,0.056778,222660,195373
933.597,0.058164,244426,213788
937.427,0.056761,263972,231631
941.254,0.057465,281845,246914
945.076,0.056913,297271,260759
950.165,0.056868,315605,276870
953.978,0.056443,328029,288051
957.786,0.057164,340470,298480
961.59,0.057484,352317,308638
965.389,0.057026,363056,318381
969.185,0.057712,373162,326727
972.976,0.058470,382632,334435
976.763,0.059085,391202,341441
981.806,0.059380,400190,349049
985.583,0.059972,406088,353711
989.355,0.060501,410162,356824
993.124,0.060872,412868,358872
996.888,0.061879,414263,359250
1000.65,0.062993,415476,359379
1004.4,0.063534,415479,358934
1009.41,0.065186,414358,356607
1013.15,0.065538,412923,355084
1016.89,0.066058,411526,353459
1020.63,0.065951,409066,351433
1024.36,0.065417,406777,349896
1028.09,0.065449,404427,347849
1031.82,0.065256,401911,345839
1036.78,0.063837,398410,343948
1040.49,0.063655,396204,342187
1044.2,0.063462,394236,340639
1047.91,0.062956,392042,339138
1051.61,0.061474,389823,338371
1055.31,0.061323,388234,337109
1059,0.060722,387599,337024
1063.92,0.059827,386688,336925
1067.61,0.058031,386598,338243
1071.29,0.057765,387377,339132
1074.96,0.057082,388536,340682
1078.63,0.056396,389855,342379
1082.3,0.055572,391215,344226
1085.96,0.054952,393215,346480
1090.84,0.054099,396270,349858
1094.49,0.053742,398760,352346
1098.14,0.052743,400987,355130
1101.79,0.052919,403477,357190
1105.43,0.052753,406116,359664
1109.06,0.052104,407701,361608
1112.7,0.052440,409859,363241
1117.53,0.051984,412494,365960
1121.15,0.052814,414909,367400
1124.77,0.053168,416559,368560
1128.38,0.054997,418532,368750
1131.99,0.056440,419956,368777
1135.6,0.058646,421946,368647
1139.2,0.060606,423881,368670
1143.99,0.063239,426786,368953
1147.58,0.064396,428617,369550
1151.17,0.065924,431169,370445
1154.75,0.067039,433579,371560
1158.33,0.069042,436264,372141
1161.91,0.071463,439132,372505
1165.48,0.074749,442389,372439
1169.04,0.077432,446101,373251
1173.79,0.081574,451929,374538
1177.34,0.084639,456026,375276
1180.9,0.086732,461306,377796
1184.44,0.088274,467657,381640
1187.99,0.089586,473969,385624
1191.52,0.089102,479856,390849
1195.06,0.088899,487372,397156
1199.76,0.087073,497347,406993
1203.29,0.085785,504311,413917
1206.81,0.084815,511507,420762
1210.33,0.083692,519078,428095
1213.84,0.082357,527163,436102
1217.35,0.081310,534208,442997
1220.85,0.080131,540472,449409
1225.51,0.078624,549929,458863
1229.01,0.078226,556888,465095
1232.5,0.077759,562180,470020
1235.98,0.076275,567975,476491
1239.46,0.075108,574815,483526
1242.94,0.074223,582782,491228
1246.41,0.073412,591476,499488
1251.03,0.072843,604016,510747
1254.5,0.072872,612289,517707
1257.96,0.073621,619125,522586
1261.41,0.073890,624551,526839
1264.86,0.074589,629900,530497
1268.31,0.074993,634345,533744
1271.75,0.075404,638574,536794
1276.33,0.076285,642499,538998
1279.76,0.076290,645905,541849
1283.19,0.075406,648307,544973
1286.61,0.075117,650446,547135
1290.03,0.074626,652132,549174
1293.44,0.074136,653907,551290
1296.85,0.074046,655963,553138
1301.39,0.073240,657349,555336
1304.8,0.073499,657558,555182
1308.19,0.074070,658515,555259
1311.58,0.073678,658804,556004
1314.97,0.074668,659011,554913
1318.36,0.075345,658272,553427
1321.73,0.075284,658022,553295
1326.23,0.076550,657870,551557
1329.6,0.077870,656482,548722
1332.97,0.078771,654926,546287
1336.33,0.079695,653727,544128
1339.69,0.081764,652497,540524
1343.04,0.083828,649913,535830
1346.39,0.086250,647671,531012
1349.73,0.088695,645338,526129
1354.18,0.092426,641175,518263
1357.52,0.094507,638376,513535
1360.85,0.097113,635805,508406
1364.17,0.099164,633413,504107
1367.49,0.101919,631026,499032
1370.81,0.104990,628050,493179
1374.12,0.107584,625034,487887
1378.54,0.111064,620272,480306
1381.84,0.115079,616892,473293
1385.14,0.119465,613613,466047
1388.43,0.125192,611526,458377
1391.72,0.130331,610663,452346
1395.01,0.135776,610634,446689
1398.29,0.142084,611700,441016
1402.66,0.150088,614051,434627
1405.93,0.156928,616268,429380
1409.2,0.163129,617795,424341
1412.46,0.168679,618872,419683
1415.72,0.173695,619795,415483
1418.98,0.178243,620495,411619
1422.23,0.182419,621087,408069
1426.56,0.186693,621375,404260
1429.8,0.189935,621616,401409
1433.04,0.193426,622129,398524
1436.27,0.195341,621526,396386
1439.5,0.197903,621113,393793
1442.72,0.200468,620921,391353
1445.94,0.202866,620270,388790
1450.23,0.206893,618860,384326
1453.44,0.209420,617697,381378
1456.64,0.212753,616264,377584
1459.85,0.215387,614413,374174
1463.04,0.218356,612307,370351
1466.24,0.221076,610032,366671
1469.43,0.224666,607345,362051
1473.67,0.230244,603789,355338
1476.85,0.235328,601175,349682
1480.02,0.241108,597737,343085
1483.19,0.248044,594479,335809
1486.36,0.254169,591232,329298
1489.52,0.259178,587853,323661
1492.68,0.262426,583875,319076
1496.89,0.266692,578062,312811
1500.03,0.267312,574159,310256
1503.18,0.267182,570285,308255
1506.32,0.266624,565444,306031
1509.45,0.264718,560571,304728
1512.58,0.263872,555821,302735
1515.71,0.261642,550344,301295
1519.87,0.258344,543983,300083
1522.99,0.256332,538764,298584
1526.1,0.253187,533692,297923
1529.21,0.249838,527902,296972
1532.32,0.246871,521886,295600
1535.42,0.243108,515888,294746
1538.51,0.240414,509987,293187
1541.6,0.236682,503936,292209
1545.72,0.231846,494694,290062
1548.8,0.228708,488378,288435
1551.88,0.226094,481832,286287
1554.95,0.223520,474989,283899
1558.02,0.221794,467818,280726
1561.08,0.220741,460730,277144
1564.15,0.219734,454170,273832
1568.22,0.218726,444181,268432
1571.27,0.217827,436947,264607
1574.32,0.216428,429598,260996
1577.36,0.215369,422039,257030
1580.4,0.213570,414375,253410
1583.43,0.211335,406354,249787
1586.46,0.209706,398475,245864
1590.49,0.207696,388982,241120
1593.51,0.205543,380708,237164
1596.53,0.202970,372727,233572
1599.54,0.200869,365060,229877
1602.55,0.198438,357543,226407
1605.55,0.196144,349495,222483
1608.55,0.192318,341154,219095
1612.54,0.190908,330877,213186
1615.53,0.188611,322904,209152
1618.51,0.186403,315116,205148
1621.49,0.186383,307217,200015
1624.47,0.183969,299481,196065
1627.44,0.183249,292112,191558
1630.41,0.180868,284245,187424
1634.36,0.179466,274079,181305
1637.32,0.177923,266916,177195
1640.27,0.178390,259612,172161
1643.22,0.176418,251804,167743
1646.16,0.176429,244348,162772
1649.1,0.174791,236703,158275
1652.04,0.173930,228171,152873
1655.95,0.171921,215408,144991
1658.88,0.169679,204937,138657
1661.8,0.167913,193395,131381
1664.72,0.163949,179728,123216
1667.63,0.156579,163642,114108
1670.54,0.148919,146312,103839
1673.44,0.142047,128451,92617
1677.31,0.133447,105080,77281
1680.21,0.129427,88906,65994
1683.1,0.131844,75033,55387
1685.99,0.133612,63520,46698
1688.87,0.140898,53714,38832
1691.75,0.151789,45653,32187
1694.62,0.154742,39137,27406
1697.49,0.152433,33776,23778
1701.31,0.161615,28175,19420

File: Column 1_050547_20150331_115834.csv
Method:,Column 1,,
Host Date-Time:,31/3/15 @ 11:58:34,,
Header Version:,1,,
System Temp (C):,33.06,,
Detector Temp (C):,31.75,,
Humidity (%):,2.34,,
Lamp PD:,3823,,
Shift Vector Coefficients:,-10.5391,0.0761263,-0.000134223,,
Pixel to Wavelength Coefficients:,1775.68,-0.916766,-0.000235065,,
Serial Number:,5510004,,
Scan Config Name:,Column 1,,
Scan Config Type:,Slew,,
Section 1,,
Start wavelength (nm):,900,,
End wavelength (nm):,1700,,
Pattern Pixel Width (nm):,   7.03,,,,
Exposure (ms):,  0.635,,,,
Digital Resolution:,228,,
Num Repeats:,6,,
PGA Gain:,64,,
Total Measurement Time in sec:,  2.730,,
Wavelength (nm),Absorbance (AU),Reference Signal (unitless),Sample Signal (unitless)
901.51,0.046347,108485,97504
905.376,0.051171,121306,107823
909.237,0.053751,131909,116553
913.095,0.054493,143299,126401
916.948,0.053892,156982,138662
922.079,0.055130,179937,158486
925.923,0.055450,200504,176471
929.762,0.055650,222660,195881
933.597,0.056576,244426,214571
937.427,0.055892,263972,232095
941.254,0.056690,281845,247355
945.076,0.055570,297271,261567
950.165,0.056016,315605,277414
953.978,0.055806,328029,288474
957.786,0.055683,340470,299499
961.59,0.055659,352317,309938
965.389,0.056187,363056,318997
969.185,0.056131,373162,327919
972.976,0.056839,382632,335693
976.763,0.057962,391202,342325
981.806,0.057970,400190,350184
985.583,0.058840,406088,354634
989.355,0.059656,410162,357519
993.124,0.060226,412868,359406
996.888,0.060726,414263,360205
1000.65,0.061301,415476,360782
1004.4,0.062005,415479,360200
1009.41,0.063978,414358,357600
1013.15,0.064461,412923,355966
1016.89,0.065096,411526,354243
1020.63,0.064661,409066,352478
1024.36,0.065221,406777,350054
1028.09,0.064340,404427,348739
1031.82,0.063913,401911,346910
1036.78,0.062839,398410,344740
1040.49,0.062422,396204,343160
1044.2,0.062465,394236,341422
1047.91,0.061628,392042,340177
1051.61,0.060634,389823,339026
1055.31,0.060496,388234,337752
1059,0.059091,387599,338292
1063.92,0.058472,386688,337978
1067.61,0.057250,386598,338852
1071.29,0.056716,387377,339952
1074.96,0.055822,388536,341672
1078.63,0.055090,389855,343410
1082.3,0.054600,391215,344997
1085.96,0.053513,393215,347630
1090.84,0.052950,396270,350785
1094.49,0.052091,398760,353688
1098.14,0.051791,400987,355909
1101.79,0.051988,403477,357957
1105.43,0.052140,406116,360172
1109.06,0.051127,407701,362422
1112.7,0.051240,409859,364246
1117.53,0.051161,412494,366654
1121.15,0.051761,414909,368292
1124.77,0.052471,416559,369152
1128.38,0.053576,418532,369958
1131.99,0.055283,419956,369761
1135.6,0.057503,421946,369619
1139.2,0.059480,423881,369627
1143.99,0.062718,426786,369396
1147.58,0.063280,428617,370501
1151.17,0.064999,431169,371235
1154.75,0.065950,433579,372493
1158.33,0.067925,436264,373099
1161.91,0.070911,439132,372979
1165.48,0.073708,442389,373333
1169.04,0.076336,446101,374194
1173.79,0.081018,451929,375018
1177.34,0.083475,456026,376283
1180.9,0.086018,461306,378417
1184.44,0.087910,467657,381960
1187.99,0.088704,473969,386408
1191.52,0.088531,479856,391363
1195.06,0.087575,487372,398369
1199.76,0.085946,497347,408050
1203.29,0.085316,504311,414364
1206.81,0.083976,511507,421576
1210.33,0.082869,519078,428907
1213.84,0.082071,527163,436389
1217.35,0.080500,534208,443824
1220.85,0.079181,540472,450394
1225.51,0.078107,549929,459409
1229.01,0.077402,556888,465979
1232.5,0.076368,562180,471528
1235.98,0.075582,567975,477251
1239.46,0.074536,574815,484164
1242.94,0.073172,582782,492418
1246.41,0.072648,591476,500368
1251.03,0.072039,604016,511693
1254.5,0.072303,612289,518386
1257.96,0.072516,619125,523917
1261.41,0.072728,624551,528251
1264.86,0.073772,629900,531495
1268.31,0.074561,634345,534274
1271.75,0.074956,638574,537348
1276.33,0.075088,642499,540486
1279.76,0.075210,645905,543199
1283.19,0.074302,648307,546360
1286.61,0.074041,650446,548492
1290.03,0.073903,652132,550089
1293.44,0.073244,653907,552423
1296.85,0.073113,655963,554328
1301.39,0.072737,657349,555980
1304.8,0.072631,657558,556292
1308.19,0.073134,658515,556457
1311.58,0.073006,658804,556866
1314.97,0.073955,659011,555825
1318.36,0.074380,658272,554658
1321.73,0.074664,658022,554085
1326.23,0.075583,657870,552786
1329.6,0.076802,656482,550074
1332.97,0.078237,654926,546960
1336.33,0.078970,653727,545038
1339.69,0.081230,652497,541189
1343.04,0.083160,649913,536655
1346.39,0.085360,647671,532101
1349.73,0.088202,645338,526726
1354.18,0.091271,641175,519644
1357.52,0.093473,638376,514759
1360.85,0.096439,635805,509196
1364.17,0.098933,633413,504376
1367.49,0.101042,631026,500041
1370.81,0.104426,628050,493819
1374.12,0.106843,625034,488721
1378.54,0.110715,620272,480692
1381.84,0.114406,616892,474027
1385.14,0.119002,613613,466544
1388.43,0.123693,611526,459962
1391.72,0.129114,610663,453615
1395.01,0.134631,610634,447868
1398.29,0.141004,611700,442114
1402.66,0.149459,614051,435257
1405.93,0.155651,616268,430644
1409.2,0.161254,617795,426177
1412.46,0.167648,618872,420681
1415.72,0.172715,619795,416421
1418.98,0.177135,620495,412670
1422.23,0.181503,621087,408930
1426.56,0.185730,621375,405157
1429.8,0.188879,621616,402386
1433.04,0.191461,622129,400331
1436.27,0.193774,621526,397819
1439.5,0.196430,621113,395131
1442.72,0.199280,620921,392425
1445.94,0.201781,620270,389762
1450.23,0.205410,618860,385640
1453.44,0.208709,617697,382003
1456.64,0.211338,616264,378816
1459.85,0.214286,614413,375124
1463.04,0.216605,612307,371847
1466.24,0.219637,610032,367888
1469.43,0.223372,607345,363131
1473.67,0.228962,603789,356388
1476.85,0.233785,601175,350926
1480.02,0.239953,597737,343999
1483.19,0.246058,594479,337348
1486.36,0.252607,591232,330484
1489.52,0.258187,587853,324401
1492.68,0.261475,583875,319775
1496.89,0.264453,578062,314428
1500.03,0.266009,574159,311188
1503.18,0.265497,570285,309453
1506.32,0.265442,565444,306865
1509.45,0.264352,560571,304985
1512.58,0.263416,555821,303053
1515.71,0.260351,550344,302192
1519.87,0.257323,543983,300789
1522.99,0.254083,538764,300134
1526.1,0.251415,533692,299141
1529.21,0.248044,527902,298201
1532.32,0.244765,521886,297037
1535.42,0.242560,515888,295118
1538.51,0.238397,509987,294552
1541.6,0.235659,503936,292898
1545.72,0.230341,494694,291069
1548.8,0.227490,488378,289245
1551.88,0.223935,481832,287714
1554.95,0.221720,474989,285078
1558.02,0.221304,467818,281043
1561.08,0.218790,460730,278392
1564.15,0.217766,454170,275076
1568.22,0.216689,444181,269694
1571.27,0.215875,436947,265799
1574.32,0.214367,429598,262238
1577.36,0.213649,422039,258050
1580.4,0.212141,414375,254245
1583.43,0.210586,406354,250218
1586.46,0.208160,398475,246741
1590.49,0.205689,388982,242237
1593.51,0.203530,380708,238266
1596.53,0.200974,372727,234648
1599.54,0.199104,365060,230813
1602.55,0.195849,357543,227761
1605.55,0.193649,349495,223765
1608.55,0.191674,341154,219420
1612.54,0.189184,330877,214034
1615.53,0.187489,322904,209693
1618.51,0.184846,315116,205885
1621.49,0.183763,307217,201225
1624.47,0.181932,299481,196987
1627.44,0.181180,292112,192473
1630.41,0.179424,284245,188048
1634.36,0.178561,274079,181683
1637.32,0.176778,266916,177663
1640.27,0.176816,259612,172786
1643.22,0.175033,251804,168279
1646.16,0.173695,244348,163800
1649.1,0.173463,236703,158760
1652.04,0.171688,228171,153664
1655.95,0.169647,215408,145752
1658.88,0.167675,204937,139298
1661.8,0.164866,193395,132306
1664.72,0.161713,179728,123852
1667.63,0.153231,163642,114991
1670.54,0.144944,146312,104794
1673.44,0.136623,128451,93781
1677.31,0.129103,105080,78058
1680.21,0.124968,88906,66675
1683.1,0.127856,75033,55898
1685.99,0.131090,63520,46970
1688.87,0.138033,53714,39089
1691.75,0.140140,45653,33062
1694.62,0.148808,39137,27783
1697.49,0.148270,33776,24007
1701.31,0.155552,28175,19693

File: Column 1_050547_20150331_115837.csv
Method:,Column 1,,
Host Date-Time:,31/3/15 @ 11:58:37,,
Header Version:,1,,
System Temp (C):,33.1,,
Detector Temp (C):,31.75,,
Humidity (%):,2.34,,
Lamp PD:,3823,,
Shift Vector Coefficients:,-10.5391,0.0761263,-0.000134223,,
Pixel to Wavelength Coefficients:,1775.68,-0.916766,-0.000235065,,
Serial Number:,5510004,,
Scan Config Name:,Column 1,,
Scan Config Type:,Slew,,
Section 1,,
Start wavelength (nm):,900,,
End wavelength (nm):,1700,,
Pattern Pixel Width (nm):,   7.03,,,,
Exposure (ms):,  0.635,,,,
Digital Resolution:,228,,
Num Repeats:,6,,
PGA Gain:,64,,
Total Measurement Time in sec:,  2.672,,
Wavelength (nm),Absorbance (AU),Reference Signal (unitless),Sample Signal (unitless)
901.51,0.044321,108485,97960
905.376,0.051292,121306,107793
909.237,0.052705,131909,116834
913.095,0.054135,143299,126505
916.948,0.053695,156982,138725
922.079,0.054979,179937,158541
925.923,0.055472,200504,176462
929.762,0.055761,222660,195831
933.597,0.056708,244426,214506
937.427,0.056295,263972,231880
941.254,0.055723,281845,247906
945.076,0.055634,297271,261528
950.165,0.055471,315605,277762
953.978,0.054724,328029,289193
957.786,0.055383,340470,299706
961.59,0.055691,352317,309915
965.389,0.056544,363056,318735
969.185,0.056722,373162,327473
972.976,0.057177,382632,335432
976.763,0.057130,391202,342982
981.806,0.058455,400190,349793
985.583,0.058192,406088,355163
989.355,0.059503,410162,357645
993.124,0.059383,412868,360104
996.888,0.060195,414263,360646
1000.65,0.060929,415476,361091
1004.4,0.062178,415479,360057
1009.41,0.063641,414358,357878
1013.15,0.063849,412923,356468
1016.89,0.064279,411526,354910
1020.63,0.063753,409066,353216
1024.36,0.063248,406777,351648
1028.09,0.063775,404427,349193
1031.82,0.063163,401911,347510
1036.78,0.062800,398410,344771
1040.49,0.062394,396204,343182
1044.2,0.061853,394236,341903
1047.91,0.061549,392042,340239
1051.61,0.060700,389823,338975
1055.31,0.059733,388234,338346
1059,0.058884,387599,338453
1063.92,0.057622,386688,338640
1067.61,0.056064,386598,339778
1071.29,0.056618,387377,340029
1074.96,0.055742,388536,341735
1078.63,0.054794,389855,343644
1082.3,0.054078,391215,345412
1085.96,0.053340,393215,347768
1090.84,0.052783,396270,350920
1094.49,0.052181,398760,353615
1098.14,0.051422,400987,356212
1101.79,0.051314,403477,358513
1105.43,0.051094,406116,361041
1109.06,0.051095,407701,362449
1112.7,0.050858,409859,364566
1117.53,0.050387,412494,367308
1121.15,0.051711,414909,368334
1124.77,0.052415,416559,369200
1128.38,0.053651,418532,369894
1131.99,0.054954,419956,370041
1135.6,0.057755,421946,369404
1139.2,0.058961,423881,370069
1143.99,0.062105,426786,369918
1147.58,0.063579,428617,370246
1151.17,0.064981,431169,371250
1154.75,0.066358,433579,372143
1158.33,0.068055,436264,372988
1161.91,0.070221,439132,373572
1165.48,0.072726,442389,374178
1169.04,0.075857,446101,374607
1173.79,0.080730,451929,375267
1177.34,0.083511,456026,376252
1180.9,0.085705,461306,378690
1184.44,0.087552,467657,382275
1187.99,0.088348,473969,386725
1191.52,0.087723,479856,392092
1195.06,0.087440,487372,398493
1199.76,0.085678,497347,408302
1203.29,0.085066,504311,414603
1206.81,0.083752,511507,421793
1210.33,0.082314,519078,429456
1213.84,0.081379,527163,437085
1217.35,0.080067,534208,444266
1220.85,0.078969,540472,450614
1225.51,0.077940,549929,459586
1229.01,0.077170,556888,466227
1232.5,0.076331,562180,471568
1235.98,0.075400,567975,477452
1239.46,0.074005,574815,484756
1242.94,0.073116,582782,492482
1246.41,0.072402,591476,500651
1251.03,0.071989,604016,511752
1254.5,0.072098,612289,518631
1257.96,0.072253,619125,524234
1261.41,0.072626,624551,528374
1264.86,0.073594,629900,531713
1268.31,0.074176,634345,534749
1271.75,0.074999,638574,537294
1276.33,0.075250,642499,540285
1279.76,0.074877,645905,543615
1283.19,0.074233,648307,546447
1286.61,0.074078,650446,548445
1290.03,0.073774,652132,550252
1293.44,0.073166,653907,552522
1296.85,0.073053,655963,554404
1301.39,0.072617,657349,556134
1304.8,0.072496,657558,556465
1308.19,0.072915,658515,556738
1311.58,0.073179,658804,556644
1314.97,0.073857,659011,555950
1318.36,0.074035,658272,555099
1321.73,0.074480,658022,554320
1326.23,0.075641,657870,552712
1329.6,0.076464,656482,550502
1332.97,0.077760,654926,547561
1336.33,0.079241,653727,544698
1339.69,0.080567,652497,542015
1343.04,0.082942,649913,536924
1346.39,0.084954,647671,532599
1349.73,0.087554,645338,527513
1354.18,0.091118,641175,519827
1357.52,0.093891,638376,514263
1360.85,0.096034,635805,509671
1364.17,0.098459,633413,504926
1367.49,0.101170,631026,499893
1370.81,0.103713,628050,494631
1374.12,0.106479,625034,489130
1378.54,0.110254,620272,481203
1381.84,0.114501,616892,473923
1385.14,0.118452,613613,467135
1388.43,0.123788,611526,459861
1391.72,0.128378,610663,454385
1395.01,0.134372,610634,448135
1398.29,0.140709,611700,442415
1402.66,0.148941,614051,435776
1405.93,0.155501,616268,430793
1409.2,0.161415,617795,426019
1412.46,0.167179,618872,421135
1415.72,0.172253,619795,416865
1418.98,0.176864,620495,412928
1422.23,0.181167,621087,409247
1426.56,0.185782,621375,405109
1429.8,0.188223,621616,402995
1433.04,0.191190,622129,400581
1436.27,0.193585,621526,397992
1439.5,0.195847,621113,395661
1442.72,0.198708,620921,392942
1445.94,0.201132,620270,390345
1450.23,0.205132,618860,385887
1453.44,0.207723,617697,382871
1456.64,0.211173,616264,378960
1459.85,0.213817,614413,375529
1463.04,0.216030,612307,372340
1466.24,0.219658,610032,367870
1469.43,0.223401,607345,363107
1473.67,0.228715,603789,356591
1476.85,0.233429,601175,351214
1480.02,0.239979,597737,343978
1483.19,0.246070,594479,337339
1486.36,0.252592,591232,330496
1489.52,0.258067,587853,324490
1492.68,0.261403,583875,319828
1496.89,0.264000,578062,314756
1500.03,0.265538,574159,311526
1503.18,0.265732,570285,309286
1506.32,0.264657,565444,307420
1509.45,0.263628,560571,305494
1512.58,0.262650,555821,303588
1515.71,0.260325,550344,302210
1519.87,0.257225,543983,300857
1522.99,0.254948,538764,299537
1526.1,0.251627,533692,298995
1529.21,0.249208,527902,297403
1532.32,0.245097,521886,296810
1535.42,0.241895,515888,295570
1538.51,0.238674,509987,294364
1541.6,0.235294,503936,293144
1545.72,0.230397,494694,291031
1548.8,0.227465,488378,289262
1551.88,0.224598,481832,287275
1554.95,0.222397,474989,284634
1558.02,0.220139,467818,281798
1561.08,0.218935,460730,278299
1564.15,0.217703,454170,275116
1568.22,0.216753,444181,269654
1571.27,0.215766,436947,265866
1574.32,0.214748,429598,262008
1577.36,0.213799,422039,257961
1580.4,0.211880,414375,254398
1583.43,0.209608,406354,250782
1586.46,0.208255,398475,246687
1590.49,0.205528,388982,242327
1593.51,0.203355,380708,238362
1596.53,0.200782,372727,234752
1599.54,0.198764,365060,230994
1602.55,0.195984,357543,227690
1605.55,0.193973,349495,223598
1608.55,0.191002,341154,219760
1612.54,0.188965,330877,214142
1615.53,0.186007,322904,210410
1618.51,0.185952,315116,205361
1621.49,0.183614,307217,201294
1624.47,0.182914,299481,196542
1627.44,0.180661,292112,192703
1630.41,0.179526,284245,188004
1634.36,0.178112,274079,181871
1637.32,0.178026,266916,177153
1640.27,0.175679,259612,173239
1643.22,0.174352,251804,168543
1646.16,0.172734,244348,164163
1649.1,0.171993,236703,159298
1652.04,0.170867,228171,153955
1655.95,0.169105,215408,145934
1658.88,0.166583,204937,139649
1661.8,0.163653,193395,132676
1664.72,0.160361,179728,124238
1667.63,0.153144,163642,115014
1670.54,0.146305,146312,104466
1673.44,0.136530,128451,93801
1677.31,0.127376,105080,78369
1680.21,0.125150,88906,66647
1683.1,0.125848,75033,56157
1685.99,0.128371,63520,47265
1688.87,0.134735,53714,39387
1691.75,0.140416,45653,33041
1694.62,0.143881,39137,28100
1697.49,0.157929,33776,23479
1701.31,0.150008,28175,19946