Folder: textile_sorting_NIRSCAN_/samples/wool/wool-000811 (part 57)

File: Column 1_050561_20150331_120510.csv
Method:,Column 1,,
Host Date-Time:,31/3/15 @ 12:5:10,,
Header Version:,1,,
System Temp (C):,33.72,,
Detector Temp (C):,33.3,,
Humidity (%):,2.05,,
Lamp PD:,3819,,
Shift Vector Coefficients:,-10.5391,0.0761263,-0.000134223,,
Pixel to Wavelength Coefficients:,1775.68,-0.916766,-0.000235065,,
Serial Number:,5510004,,
Scan Config Name:,Column 1,,
Scan Config Type:,Slew,,
Section 1,,
Start wavelength (nm):,900,,
End wavelength (nm):,1700,,
Pattern Pixel Width (nm):,   7.03,,,,
Exposure (ms):,  0.635,,,,
Digital Resolution:,228,,
Num Repeats:,6,,
PGA Gain:,64,,
Total Measurement Time in sec:,  2.731,,
Wavelength (nm),Absorbance (AU),Reference Signal (unitless),Sample Signal (unitless)
901.51,0.033160,108485,100510
905.376,0.037961,121306,111153
909.237,0.041303,131909,119942
913.095,0.042136,143299,130049
916.948,0.043247,156982,142103
922.079,0.043989,179937,162604
925.923,0.044956,200504,180787
929.762,0.046606,222660,200003
933.597,0.046669,244426,219522
937.427,0.046388,263972,237230
941.254,0.046864,281845,253015
945.076,0.046175,297271,267287
950.165,0.045676,315605,284098
953.978,0.045231,328029,295584
957.786,0.045378,340470,306691
961.59,0.046350,352317,316653
965.389,0.046436,363056,326240
969.185,0.046153,373162,335540
972.976,0.047172,382632,343249
976.763,0.047338,391202,350803
981.806,0.048199,400190,358152
985.583,0.048916,406088,362831
989.355,0.049226,410162,366209
993.124,0.049117,412868,368718
996.888,0.050254,414263,368996
1000.65,0.050968,415476,369469
1004.4,0.051684,415479,368863
1009.41,0.053113,414358,366659
1013.15,0.053857,412923,364764
1016.89,0.054147,411526,363287
1020.63,0.053451,409066,361695
1024.36,0.054598,406777,358722
1028.09,0.053941,404427,357190
1031.82,0.053916,401911,354988
1036.78,0.052986,398410,352650
1040.49,0.053017,396204,350673
1044.2,0.052354,394236,349464
1047.91,0.052495,392042,347406
1051.61,0.051839,389823,345962
1055.31,0.051446,388234,344864
1059,0.050706,387599,344887
1063.92,0.049495,386688,345037
1067.61,0.048866,386598,345457
1071.29,0.048827,387377,346184
1074.96,0.048075,388536,347821
1078.63,0.047447,389855,349507
1082.3,0.046708,391215,351324
1085.96,0.046157,393215,353568
1090.84,0.045229,396270,357077
1094.49,0.045242,398760,359310
1098.14,0.044974,400987,361540
1101.79,0.044001,403477,364601
1105.43,0.044557,406116,366516
1109.06,0.043358,407701,368964
1112.7,0.043483,409859,370810
1117.53,0.043737,412494,372976
1121.15,0.044837,414909,374210
1124.77,0.045126,416559,375449
1128.38,0.046644,418532,375911
1131.99,0.047374,419956,376556
1135.6,0.049780,421946,376250
1139.2,0.051274,423881,376678
1143.99,0.053832,426786,377032
1147.58,0.055051,428617,377588
1151.17,0.055675,431169,379291
1154.75,0.057104,433579,380158
1158.33,0.059047,436264,380805
1161.91,0.060634,439132,381910
1165.48,0.063703,442389,382033
1169.04,0.065900,446101,383295
1173.79,0.069879,451929,384761
1177.34,0.072541,456026,385877
1180.9,0.074730,461306,388382
1184.44,0.075982,467657,392596
1187.99,0.077259,473969,396726
1191.52,0.077319,479856,401598
1195.06,0.077039,487372,408152
1199.76,0.075888,497347,417611
1203.29,0.075000,504311,424325
1206.81,0.073691,511507,431679
1210.33,0.073446,519078,438315
1213.84,0.073300,527163,445292
1217.35,0.072131,534208,452459
1220.85,0.071047,540472,458909
1225.51,0.070453,549929,467577
1229.01,0.069803,556888,474204
1232.5,0.069187,562180,479389
1235.98,0.068461,567975,485141
1239.46,0.067364,574815,492226
1242.94,0.066402,582782,500155
1246.41,0.065879,591476,508228
1251.03,0.065368,604016,519613
1254.5,0.065570,612289,526486
1257.96,0.066168,619125,531631
1261.41,0.066456,624551,535935
1264.86,0.067348,629900,539416
1268.31,0.067819,634345,542633
1271.75,0.068536,638574,545350
1276.33,0.069392,642499,547621
1279.76,0.069124,645905,550864
1283.19,0.068617,648307,553559
1286.61,0.067990,650446,556188
1290.03,0.067804,652132,557868
1293.44,0.067149,653907,560231
1296.85,0.067128,655963,562019
1301.39,0.066826,657349,563599
1304.8,0.066874,657558,563716
1308.19,0.067105,658515,564236
1311.58,0.067390,658804,564113
1314.97,0.068004,659011,563493
1318.36,0.068497,658272,562223
1321.73,0.068572,658022,561912
1326.23,0.069472,657870,560619
1329.6,0.070643,656482,557930
1332.97,0.071726,654926,555221
1336.33,0.072595,653727,553097
1339.69,0.074237,652497,549973
1343.04,0.076592,649913,544833
1346.39,0.078373,647671,540731
1349.73,0.080645,645338,535972
1354.18,0.083922,641175,528512
1357.52,0.086214,638376,523435
1360.85,0.088254,635805,518883
1364.17,0.090734,633413,513988
1367.49,0.093370,631026,508952
1370.81,0.096100,628050,503378
1374.12,0.098088,625034,498673
1378.54,0.101604,620272,490883
1381.84,0.105001,616892,484405
1385.14,0.108948,613613,477471
1388.43,0.113448,611526,470941
1391.72,0.118336,610663,465014
1395.01,0.123397,610634,459604
1398.29,0.128775,611700,454740
1402.66,0.136375,614051,448569
1405.93,0.141993,616268,444403
1409.2,0.147668,617795,439720
1412.46,0.153266,618872,434845
1415.72,0.157957,619795,430815
1418.98,0.162063,620495,427243
1422.23,0.165579,621087,424203
1426.56,0.170071,621375,420032
1429.8,0.172931,621616,417437
1433.04,0.175736,622129,415092
1436.27,0.178359,621526,412193
1439.5,0.180073,621113,410296
1442.72,0.183079,620921,407340
1445.94,0.185688,620270,404476
1450.23,0.188914,618860,400570
1453.44,0.191978,617697,397006
1456.64,0.194534,616264,393761
1459.85,0.198076,614413,389390
1463.04,0.200512,612307,385884
1466.24,0.204088,610032,381298
1469.43,0.206897,607345,377171
1473.67,0.213500,603789,369305
1476.85,0.218779,601175,363264
1480.02,0.224017,597737,356856
1483.19,0.231485,594479,348860
1486.36,0.237406,591232,342257
1489.52,0.241591,587853,337037
1492.68,0.245629,583875,331658
1496.89,0.248270,578062,326366
1500.03,0.248986,574159,323628
1503.18,0.248669,570285,321679
1506.32,0.247860,565444,319543
1509.45,0.246559,560571,317740
1512.58,0.245417,555821,315877
1515.71,0.242520,550344,314858
1519.87,0.238925,543983,313805
1522.99,0.236339,538764,312651
1526.1,0.234515,533692,311011
1529.21,0.231025,527902,310119
1532.32,0.228100,521886,308657
1535.42,0.224757,515888,307467
1538.51,0.221184,509987,306461
1541.6,0.218087,503936,304992
1545.72,0.214097,494694,302162
1548.8,0.210255,488378,300955
1551.88,0.207992,481832,298472
1554.95,0.206781,474989,295055
1558.02,0.204128,467818,292381
1561.08,0.202943,460730,288738
1564.15,0.202057,454170,285208
1568.22,0.201495,444181,279296
1571.27,0.200640,436947,275289
1574.32,0.200000,429598,271058
1577.36,0.197795,422039,267644
1580.4,0.196260,414375,263714
1583.43,0.194294,406354,259783
1586.46,0.192793,398475,255628
1590.49,0.190313,388982,250967
1593.51,0.188611,380708,246593
1596.53,0.186344,372727,242687
1599.54,0.183921,365060,239025
1602.55,0.181411,357543,235460
1605.55,0.179889,349495,230968
1608.55,0.177744,341154,226572
1612.54,0.175353,330877,220960
1615.53,0.172864,322904,216875
1618.51,0.171637,315116,212243
1621.49,0.170729,307217,207356
1624.47,0.169391,299481,202758
1627.44,0.169068,292112,197916
1630.41,0.168356,284245,192902
1634.36,0.165839,274079,187084
1637.32,0.164921,266916,182580
1640.27,0.165021,259612,177543
1643.22,0.164102,251804,172568
1646.16,0.161504,244348,168463
1649.1,0.160166,236703,163696
1652.04,0.160206,228171,157781
1655.95,0.157327,215408,149946
1658.88,0.153910,204937,143784
1661.8,0.149522,193395,137064
1664.72,0.143679,179728,129103
1667.63,0.133221,163642,120413
1670.54,0.123157,146312,110185
1673.44,0.111443,128451,99379
1677.31,0.096652,105080,84114
1680.21,0.089697,88906,72316
1683.1,0.085369,75033,61643
1685.99,0.094039,63520,51153
1688.87,0.088138,53714,43848
1691.75,0.099335,45653,36319
1694.62,0.102559,39137,30905
1697.49,0.101951,33776,26709
1701.31,0.115089,28175,21616

File: Column 1_050561_20150331_120519.csv
Method:,Column 1,,
Host Date-Time:,31/3/15 @ 12:5:19,,
Header Version:,1,,
System Temp (C):,33.76,,
Detector Temp (C):,33.32,,
Humidity (%):,2.05,,
Lamp PD:,3819,,
Shift Vector Coefficients:,-10.5391,0.0761263,-0.000134223,,
Pixel to Wavelength Coefficients:,1775.68,-0.916766,-0.000235065,,
Serial Number:,5510004,,
Scan Config Name:,Column 1,,
Scan Config Type:,Slew,,
Section 1,,
Start wavelength (nm):,900,,
End wavelength (nm):,1700,,
Pattern Pixel Width (nm):,   7.03,,,,
Exposure (ms):,  0.635,,,,
Digital Resolution:,228,,
Num Repeats:,6,,
PGA Gain:,64,,
Total Measurement Time in sec:,  2.682,,
Wavelength (nm),Absorbance (AU),Reference Signal (unitless),Sample Signal (unitless)
901.51,0.032379,108485,100691
905.376,0.039158,121306,110847
909.237,0.040496,131909,120165
913.095,0.042410,143299,129967
916.948,0.042785,156982,142254
922.079,0.043130,179937,162926
925.923,0.046108,200504,180308
929.762,0.046382,222660,200106
933.597,0.047457,244426,219124
937.427,0.047149,263972,236815
941.254,0.046553,281845,253196
945.076,0.045070,297271,267968
950.165,0.045634,315605,284125
953.978,0.045021,328029,295727
957.786,0.045799,340470,306394
961.59,0.045817,352317,317042
965.389,0.045838,363056,326690
969.185,0.046543,373162,335239
972.976,0.046387,382632,343870
976.763,0.046735,391202,351290
981.806,0.047221,400190,358959
985.583,0.048812,406088,362918
989.355,0.048923,410162,366465
993.124,0.049277,412868,368582
996.888,0.050481,414263,368804
1000.65,0.050452,415476,369908
1004.4,0.051611,415479,368925
1009.41,0.053605,414358,366244
1013.15,0.053607,412923,364974
1016.89,0.053981,411526,363426
1020.63,0.054620,409066,360723
1024.36,0.054214,406777,359040
1028.09,0.054044,404427,357105
1031.82,0.053519,401911,355313
1036.78,0.053272,398410,352418
1040.49,0.052821,396204,350831
1044.2,0.052322,394236,349490
1047.91,0.052354,392042,347519
1051.61,0.051990,389823,345842
1055.31,0.051140,388234,345107
1059,0.050345,387599,345174
1063.92,0.049422,386688,345095
1067.61,0.048413,386598,345817
1071.29,0.048411,387377,346516
1074.96,0.047438,388536,348332
1078.63,0.047283,389855,349639
1082.3,0.046377,391215,351592
1085.96,0.045535,393215,354075
1090.84,0.045546,396270,356817
1094.49,0.045076,398760,359448
1098.14,0.044773,400987,361707
1101.79,0.044332,403477,364323
1105.43,0.044256,406116,366770
1109.06,0.044015,407701,368406
1112.7,0.043434,409859,370852
1117.53,0.043566,412494,373123
1121.15,0.044013,414909,374921
1124.77,0.044815,416559,375718
1128.38,0.046607,418532,375943
1131.99,0.047209,419956,376699
1135.6,0.049573,421946,376430
1139.2,0.051416,423881,376555
1143.99,0.053992,426786,376893
1147.58,0.054932,428617,377692
1151.17,0.055896,431169,379098
1154.75,0.057594,433579,379729
1158.33,0.059196,436264,380674
1161.91,0.061004,439132,381585
1165.48,0.063324,442389,382367
1169.04,0.066437,446101,382821
1173.79,0.069998,451929,384656
1177.34,0.072266,456026,386121
1180.9,0.074537,461306,388555
1184.44,0.076141,467657,392452
1187.99,0.077466,473969,396537
1191.52,0.076851,479856,402031
1195.06,0.076461,487372,408695
1199.76,0.075731,497347,417762
1203.29,0.074812,504311,424509
1206.81,0.073913,511507,431458
1210.33,0.073473,519078,438288
1213.84,0.072744,527163,445862
1217.35,0.071691,534208,452918
1220.85,0.071069,540472,458885
1225.51,0.069725,549929,468362
1229.01,0.069290,556888,474764
1232.5,0.069031,562180,479562
1235.98,0.068279,567975,485345
1239.46,0.067369,574815,492220
1242.94,0.066578,582782,499952
1246.41,0.065507,591476,508663
1251.03,0.065480,604016,519479
1254.5,0.065642,612289,526398
1257.96,0.066367,619125,531387
1261.41,0.066640,624551,535708
1264.86,0.067099,629900,539725
1268.31,0.068147,634345,542224
1271.75,0.068636,638574,545224
1276.33,0.068993,642499,548125
1279.76,0.069075,645905,550927
1283.19,0.068509,648307,553696
1286.61,0.068347,650446,555731
1290.03,0.067783,652132,557895
1293.44,0.067208,653907,560155
1296.85,0.066968,655963,562226
1301.39,0.066568,657349,563934
1304.8,0.067002,657558,563550
1308.19,0.066900,658515,564502
1311.58,0.067018,658804,564597
1314.97,0.068059,659011,563422
1318.36,0.068328,658272,562442
1321.73,0.068230,658022,562355
1326.23,0.069349,657870,560778
1329.6,0.070484,656482,558135
1332.97,0.071596,654926,555388
1336.33,0.072722,653727,552935
1339.69,0.074693,652497,549396
1343.04,0.076199,649913,545326
1346.39,0.078347,647671,540764
1349.73,0.080706,645338,535897
1354.18,0.083754,641175,528716
1357.52,0.086264,638376,523374
1360.85,0.087993,635805,519195
1364.17,0.090715,633413,514010
1367.49,0.093105,631026,509263
1370.81,0.095274,628050,504336
1374.12,0.098121,625034,498635
1378.54,0.101277,620272,491253
1381.84,0.104519,616892,484942
1385.14,0.108800,613613,477633
1388.43,0.113247,611526,471159
1391.72,0.118349,610663,465000
1395.01,0.123145,610634,459871
1398.29,0.128480,611700,455049
1402.66,0.136099,614051,448854
1405.93,0.142036,616268,444359
1409.2,0.147618,617795,439771
1412.46,0.152876,618872,435236
1415.72,0.157531,619795,431238
1418.98,0.161953,620495,427352
1422.23,0.165346,621087,424430
1426.56,0.169964,621375,420136
1429.8,0.172596,621616,417759
1433.04,0.175177,622129,415627
1436.27,0.177780,621526,412743
1439.5,0.179728,621113,410622
1442.72,0.182355,620921,408020
1445.94,0.184680,620270,405416
1450.23,0.188613,618860,400848
1453.44,0.191741,617697,397223
1456.64,0.194757,616264,393559
1459.85,0.197338,614413,390052
1463.04,0.199702,612307,386605
1466.24,0.203594,610032,381732
1469.43,0.206624,607345,377408
1473.67,0.212919,603789,369799
1476.85,0.218501,601175,363496
1480.02,0.224283,597737,356638
1483.19,0.231226,594479,349068
1486.36,0.236796,591232,342738
1489.52,0.242187,587853,336575
1492.68,0.244950,583875,332177
1496.89,0.247619,578062,326855
1500.03,0.248915,574159,323681
1503.18,0.248685,570285,321667
1506.32,0.247352,565444,319917
1509.45,0.246525,560571,317765
1512.58,0.244932,555821,316230
1515.71,0.242492,550344,314878
1519.87,0.239189,543983,313615
1522.99,0.236763,538764,312346
1526.1,0.233474,533692,311757
1529.21,0.231269,527902,309945
1532.32,0.227655,521886,308973
1535.42,0.225175,515888,307171
1538.51,0.221421,509987,306294
1541.6,0.218331,503936,304821
1545.72,0.213950,494694,302264
1548.8,0.210389,488378,300862
1551.88,0.207788,481832,298612
1554.95,0.205509,474989,295920
1558.02,0.204031,467818,292446
1561.08,0.202854,460730,288797
1564.15,0.201524,454170,285558
1568.22,0.201060,444181,279576
1571.27,0.200474,436947,275394
1574.32,0.198806,429598,271804
1577.36,0.198021,422039,267505
1580.4,0.196351,414375,263659
1583.43,0.194888,406354,259428
1586.46,0.193247,398475,255361
1590.49,0.190578,388982,250814
1593.51,0.188154,380708,246853
1596.53,0.185879,372727,242947
1599.54,0.183821,365060,239080
1602.55,0.182159,357543,235055
1605.55,0.179436,349495,231209
1608.55,0.177202,341154,226855
1612.54,0.175498,330877,220886
1615.53,0.173347,322904,216634
1618.51,0.170968,315116,212570
1621.49,0.170289,307217,207566
1624.47,0.169338,299481,202783
1627.44,0.168137,292112,198341
1630.41,0.167926,284245,193093
1634.36,0.164752,274079,187553
1637.32,0.164294,266916,182844
1640.27,0.164872,259612,177604
1643.22,0.162487,251804,173211
1646.16,0.161809,244348,168345
1649.1,0.160511,236703,163566
1652.04,0.159691,228171,157968
1655.95,0.157310,215408,149952
1658.88,0.153572,204937,143896
1661.8,0.149398,193395,137103
1664.72,0.143619,179728,129121
1667.63,0.134236,163642,120132
1670.54,0.122819,146312,110271
1673.44,0.112721,128451,99087
1677.31,0.096084,105080,84224
1680.21,0.089312,88906,72380
1683.1,0.085897,75033,61568
1685.99,0.089437,63520,51698
1688.87,0.090402,53714,43620
1691.75,0.103107,45653,36005
1694.62,0.105152,39137,30721
1697.49,0.109926,33776,26223
1701.31,0.118052,28175,21469

File: Column 1_050562_20150331_120533.csv
Method:,Column 1,,
Host Date-Time:,31/3/15 @ 12:5:33,,
Header Version:,1,,
System Temp (C):,33.78,,
Detector Temp (C):,33.38,,
Humidity (%):,2.05,,
Lamp PD:,3819,,
Shift Vector Coefficients:,-10.5391,0.0761263,-0.000134223,,
Pixel to Wavelength Coefficients:,1775.68,-0.916766,-0.000235065,,
Serial Number:,5510004,,
Scan Config Name:,Column 1,,
Scan Config Type:,Slew,,
Section 1,,
Start wavelength (nm):,900,,
End wavelength (nm):,1700,,
Pattern Pixel Width (nm):,   7.03,,,,
Exposure (ms):,  0.635,,,,
Digital Resolution:,228,,
Num Repeats:,6,,
PGA Gain:,64,,
Total Measurement Time in sec:,  2.667,,
Wavelength (nm),Absorbance (AU),Reference Signal (unitless),Sample Signal (unitless)
901.51,0.035161,108485,100048
905.376,0.040292,121306,110558
909.237,0.042227,131909,119687
913.095,0.043330,143299,129692
916.948,0.044238,156982,141779
922.079,0.045340,179937,162099
925.923,0.047560,200504,179706
929.762,0.047001,222660,199821
933.597,0.047838,244426,218932
937.427,0.047079,263972,236853
941.254,0.047421,281845,252691
945.076,0.046340,297271,267185
950.165,0.046105,315605,283817
953.978,0.045892,328029,295135
957.786,0.045735,340470,306439
961.59,0.046475,352317,316562
965.389,0.047037,363056,325789
969.185,0.046962,373162,334916
972.976,0.046584,382632,343714
976.763,0.047677,391202,350529
981.806,0.048346,400190,358031
985.583,0.048905,406088,362840
989.355,0.049351,410162,366104
993.124,0.049681,412868,368239
996.888,0.050403,414263,368870
1000.65,0.050873,415476,369550
1004.4,0.053054,415479,367701
1009.41,0.054057,414358,365863
1013.15,0.054336,412923,364362
1016.89,0.054718,411526,362810
1020.63,0.054824,409066,360553
1024.36,0.054620,406777,358704
1028.09,0.053929,404427,357200
1031.82,0.054200,401911,354756
1036.78,0.053689,398410,352080
1040.49,0.053750,396204,350081
1044.2,0.052849,394236,349066
1047.91,0.052552,392042,347361
1051.61,0.052413,389823,345505
1055.31,0.051481,388234,344836
1059,0.050815,387599,344800
1063.92,0.049895,386688,344719
1067.61,0.049057,386598,345305
1071.29,0.049308,387377,345801
1074.96,0.048425,388536,347541
1078.63,0.047411,389855,349536
1082.3,0.047659,391215,350555
1085.96,0.046532,393215,353263
1090.84,0.045589,396270,356781
1094.49,0.045164,398760,359375
1098.14,0.044539,400987,361902
1101.79,0.044431,403477,364240
1105.43,0.044295,406116,366737
1109.06,0.043967,407701,368447
1112.7,0.043908,409859,370447
1117.53,0.043778,412494,372941
1121.15,0.044818,414909,374227
1124.77,0.045357,416559,375249
1128.38,0.046656,418532,375900
1131.99,0.048163,419956,375873
1135.6,0.049791,421946,376241
1139.2,0.051694,423881,376314
1143.99,0.053819,426786,377043
1147.58,0.055357,428617,377322
1151.17,0.056483,431169,378586
1154.75,0.057871,433579,379487
1158.33,0.059621,436264,380302
1161.91,0.061589,439132,381071
1165.48,0.064058,442389,381721
1169.04,0.066351,446101,382897
1173.79,0.070965,451929,383800
1177.34,0.072549,456026,385870
1180.9,0.075037,461306,388108
1184.44,0.077107,467657,391580
1187.99,0.077740,473969,396287
1191.52,0.077368,479856,401553
1195.06,0.077145,487372,408052
1199.76,0.075869,497347,417629
1203.29,0.075219,504311,424111
1206.81,0.074590,511507,430786
1210.33,0.073439,519078,438322
1213.84,0.073049,527163,445549
1217.35,0.072422,534208,452156
1220.85,0.070936,540472,459026
1225.51,0.070543,549929,467481
1229.01,0.069810,556888,474196
1232.5,0.069155,562180,479425
1235.98,0.068634,567975,484948
1239.46,0.067218,574815,492391
1242.94,0.066345,582782,500220
1246.41,0.065453,591476,508726
1251.03,0.065841,604016,519048
1254.5,0.065928,612289,526052
1257.96,0.066220,619125,531568
1261.41,0.066362,624551,536051
1264.86,0.067481,629900,539251
1268.31,0.067974,634345,542440
1271.75,0.068636,638574,545224
1276.33,0.069130,642499,547952
1279.76,0.069123,645905,550865
1283.19,0.068772,648307,553361
1286.61,0.068203,650446,555915
1290.03,0.067993,652132,557625
1293.44,0.067240,653907,560114
1296.85,0.067118,655963,562033
1301.39,0.067008,657349,563363
1304.8,0.067073,657558,563458
1308.19,0.067629,658515,563555
1311.58,0.067424,658804,564069
1314.97,0.068157,659011,563295
1318.36,0.068490,658272,562232
1321.73,0.068943,658022,561432
1326.23,0.069968,657870,559980
1329.6,0.071090,656482,557356
1332.97,0.071676,654926,555285
1336.33,0.072806,653727,552828
1339.69,0.074834,652497,549218
1343.04,0.076298,649913,545202
1346.39,0.078740,647671,540275
1349.73,0.080649,645338,535967
1354.18,0.084248,641175,528115
1357.52,0.086085,638376,523590
1360.85,0.088700,635805,518351
1364.17,0.090836,633413,513867
1367.49,0.093107,631026,509261
1370.81,0.095859,628050,503657
1374.12,0.098362,625034,498358
1378.54,0.101753,620272,490715
1381.84,0.104834,616892,484591
1385.14,0.108904,613613,477519
1388.43,0.113388,611526,471007
1391.72,0.118575,610663,464758
1395.01,0.123550,610634,459442
1398.29,0.128668,611700,454852
1402.66,0.136096,614051,448857
1405.93,0.141950,616268,444447
1409.2,0.147549,617795,439841
1412.46,0.153166,618872,434945
1415.72,0.157571,619795,431198
1418.98,0.161663,620495,427637
1422.23,0.165801,621087,423986
1426.56,0.169483,621375,420601
1429.8,0.172870,621616,417496
1433.04,0.175410,622129,415404
1436.27,0.177730,621526,412790
1439.5,0.179834,621113,410522
1442.72,0.182655,620921,407738
1445.94,0.185029,620270,405090
1450.23,0.188588,618860,400871
1453.44,0.191714,617697,397248
1456.64,0.194599,616264,393702
1459.85,0.197463,614413,389940
1463.04,0.199867,612307,386458
1466.24,0.203835,610032,381520
1469.43,0.206974,607345,377104
1473.67,0.213538,603789,369273
1476.85,0.218755,601175,363284
1480.02,0.224772,597737,356236
1483.19,0.231231,594479,349064
1486.36,0.237275,591232,342360
1489.52,0.242140,587853,336611
1492.68,0.245652,583875,331641
1496.89,0.248163,578062,326446
1500.03,0.249111,574159,323535
1503.18,0.248923,570285,321491
1506.32,0.248436,565444,319120
1509.45,0.247226,560571,317252
1512.58,0.245677,555821,315688
1515.71,0.242903,550344,314580
1519.87,0.240373,543983,312761
1522.99,0.236504,538764,312532
1526.1,0.234495,533692,311025
1529.21,0.231243,527902,309963
1532.32,0.228426,521886,308425
1535.42,0.225457,515888,306972
1538.51,0.221273,509987,306398
1541.6,0.219139,503936,304254
1545.72,0.214534,494694,301858
1548.8,0.211353,488378,300195
1551.88,0.208430,481832,298171
1554.95,0.206683,474989,295121
1558.02,0.204853,467818,291893
1561.08,0.203158,460730,288595
1564.15,0.202929,454170,284636
1568.22,0.201883,444181,279047
1571.27,0.200927,436947,275107
1574.32,0.199264,429598,271518
1577.36,0.199178,422039,266793
1580.4,0.196437,414375,263607
1583.43,0.195412,406354,259115
1586.46,0.194190,398475,254807
1590.49,0.190325,388982,250960
1593.51,0.189119,380708,246305
1596.53,0.186882,372727,242387
1599.54,0.183679,365060,239158
1602.55,0.182207,357543,235029
1605.55,0.180318,349495,230740
1608.55,0.177854,341154,226515
1612.54,0.175941,330877,220661
1615.53,0.173650,322904,216483
1618.51,0.172090,315116,212022
1621.49,0.171540,307217,206969
1624.47,0.170296,299481,202336
1627.44,0.168970,292112,197961
1630.41,0.168120,284245,193007
1634.36,0.165962,274079,187031
1637.32,0.164841,266916,182614
1640.27,0.164178,259612,177888
1643.22,0.163087,251804,172972
1646.16,0.162707,244348,167997
1649.1,0.161085,236703,163350
1652.04,0.160597,228171,157639
1655.95,0.158737,215408,149460
1658.88,0.154294,204937,143657
1661.8,0.149753,193395,136991
1664.72,0.145105,179728,128680
1667.63,0.134587,163642,120035
1670.54,0.125208,146312,109666
1673.44,0.112103,128451,99228
1677.31,0.097205,105080,84007
1680.21,0.089799,88906,72299
1683.1,0.090300,75033,60947
1685.99,0.094974,63520,51043
1688.87,0.093901,53714,43270
1691.75,0.096867,45653,36526
1694.62,0.105746,39137,30679
1697.49,0.107828,33776,26350
1701.31,0.121158,28175,21316