Folder: textile_sorting_NIRSCAN_/samples/wool/wool-000811 (part 8)

File: Column 1_050535_20150331_115241.csv
Method:,Column 1,,
Host Date-Time:,31/3/15 @ 11:52:41,,
Header Version:,1,,
System Temp (C):,31.26,,
Detector Temp (C):,30.17,,
Humidity (%):,3.9,,
Lamp PD:,3828,,
Shift Vector Coefficients:,-10.5391,0.0761263,-0.000134223,,
Pixel to Wavelength Coefficients:,1775.68,-0.916766,-0.000235065,,
Serial Number:,5510004,,
Scan Config Name:,Column 1,,
Scan Config Type:,Slew,,
Section 1,,
Start wavelength (nm):,900,,
End wavelength (nm):,1700,,
Pattern Pixel Width (nm):,   7.03,,,,
Exposure (ms):,  0.635,,,,
Digital Resolution:,228,,
Num Repeats:,6,,
PGA Gain:,64,,
Total Measurement Time in sec:,  2.677,,
Wavelength (nm),Absorbance (AU),Reference Signal (unitless),Sample Signal (unitless)
901.51,0.043143,108485,98226
905.376,0.048136,121306,108579
909.237,0.050632,131909,117393
913.095,0.050638,143299,127528
916.948,0.051111,156982,139553
922.079,0.049272,179937,160638
925.923,0.050947,200504,178310
929.762,0.050839,222660,198063
933.597,0.052742,244426,216474
937.427,0.052931,263972,233683
941.254,0.052881,281845,249534
945.076,0.052502,297271,263421
950.165,0.053238,315605,279194
953.978,0.052617,328029,290600
957.786,0.053152,340470,301250
961.59,0.054369,352317,310860
965.389,0.053883,363056,320694
969.185,0.055037,373162,328746
972.976,0.055305,382632,336881
976.763,0.056088,391202,343806
981.806,0.057271,400190,350748
985.583,0.057884,406088,355415
989.355,0.057734,410162,359105
993.124,0.058374,412868,360942
996.888,0.059287,414263,361401
1000.65,0.059753,415476,362070
1004.4,0.061167,415479,360896
1009.41,0.062776,414358,358591
1013.15,0.063538,412923,356723
1016.89,0.063763,411526,355332
1020.63,0.063505,409066,353418
1024.36,0.063973,406777,351062
1028.09,0.062696,404427,350061
1031.82,0.062743,401911,347846
1036.78,0.061998,398410,345408
1040.49,0.061538,396204,343859
1044.2,0.060852,394236,342692
1047.91,0.060050,392042,341415
1051.61,0.059442,389823,339958
1055.31,0.059112,388234,338830
1059,0.058407,387599,338825
1063.92,0.056897,386688,339206
1067.61,0.055979,386598,339845
1071.29,0.055157,387377,341175
1074.96,0.054800,388536,342477
1078.63,0.054496,389855,343880
1082.3,0.053709,391215,345706
1085.96,0.052284,393215,348615
1090.84,0.051751,396270,351755
1094.49,0.051926,398760,353823
1098.14,0.051204,400987,356391
1101.79,0.050298,403477,359353
1105.43,0.050716,406116,361355
1109.06,0.049987,407701,363375
1112.7,0.050041,409859,365253
1117.53,0.050024,412494,367615
1121.15,0.051469,414909,368539
1124.77,0.051700,416559,369808
1128.38,0.053427,418532,370085
1131.99,0.054591,419956,370350
1135.6,0.056641,421946,370353
1139.2,0.058964,423881,370067
1143.99,0.061851,426786,370134
1147.58,0.062883,428617,370840
1151.17,0.064634,431169,371547
1154.75,0.065872,433579,372560
1158.33,0.067780,436264,373224
1161.91,0.070674,439132,373182
1165.48,0.073055,442389,373895
1169.04,0.075937,446101,374538
1173.79,0.080656,451929,375331
1177.34,0.083110,456026,376599
1180.9,0.086016,461306,378419
1184.44,0.087221,467657,382566
1187.99,0.088500,473969,386589
1191.52,0.088241,479856,391625
1195.06,0.087461,487372,398474
1199.76,0.086056,497347,407947
1203.29,0.084946,504311,414718
1206.81,0.083863,511507,421685
1210.33,0.082484,519078,429288
1213.84,0.081455,527163,437009
1217.35,0.080550,534208,443773
1220.85,0.079291,540472,450280
1225.51,0.077859,549929,459672
1229.01,0.077658,556888,465704
1232.5,0.076158,562180,471756
1235.98,0.075447,567975,477400
1239.46,0.074198,574815,484541
1242.94,0.072951,582782,492669
1246.41,0.072177,591476,500911
1251.03,0.071958,604016,511788
1254.5,0.071629,612289,519191
1257.96,0.072040,619125,524491
1261.41,0.072843,624551,528111
1264.86,0.073281,629900,532097
1268.31,0.074158,634345,534770
1271.75,0.074983,638574,537314
1276.33,0.075462,642499,540021
1279.76,0.075047,645905,543402
1283.19,0.074233,648307,546447
1286.61,0.073864,650446,548716
1290.03,0.073908,652132,550082
1293.44,0.073224,653907,552449
1296.85,0.072909,655963,554588
1301.39,0.072686,657349,556045
1304.8,0.072891,657558,555960
1308.19,0.073307,658515,556236
1311.58,0.073216,658804,556596
1314.97,0.074161,659011,555561
1318.36,0.074775,658272,554154
1321.73,0.075182,658022,553425
1326.23,0.076591,657870,551504
1329.6,0.077253,656482,549503
1332.97,0.078334,654926,546837
1336.33,0.079988,653727,543762
1339.69,0.081913,652497,540338
1343.04,0.084054,649913,535552
1346.39,0.086410,647671,530816
1349.73,0.089094,645338,525646
1354.18,0.092250,641175,518474
1357.52,0.094495,638376,513549
1360.85,0.097388,635805,508084
1364.17,0.099739,633413,503440
1367.49,0.102782,631026,498041
1370.81,0.105254,628050,492879
1374.12,0.107913,625034,487518
1378.54,0.112246,620272,479001
1381.84,0.115823,616892,472483
1385.14,0.120935,613613,464472
1388.43,0.126171,611526,457345
1391.72,0.132225,610663,450377
1395.01,0.138482,610634,443914
1398.29,0.144330,611700,438741
1402.66,0.153802,614051,430926
1405.93,0.161095,616268,425280
1409.2,0.167692,617795,419906
1412.46,0.173936,618872,414634
1415.72,0.179719,619795,409760
1418.98,0.184259,620495,405956
1422.23,0.188594,621087,402308
1426.56,0.193738,621375,397755
1429.8,0.196940,621616,394986
1433.04,0.199708,622129,392801
1436.27,0.202658,621526,389764
1439.5,0.205165,621113,387263
1442.72,0.207399,620921,385157
1445.94,0.210449,620270,382060
1450.23,0.213551,618860,378479
1453.44,0.216580,617697,375142
1456.64,0.219442,616264,371813
1459.85,0.222412,614413,368170
1463.04,0.224882,612307,364827
1466.24,0.227701,610032,361120
1469.43,0.230856,607345,356927
1473.67,0.235103,603789,351384
1476.85,0.239967,601175,345966
1480.02,0.245439,597737,339681
1483.19,0.251833,594479,332892
1486.36,0.257222,591232,326991
1489.52,0.261325,587853,322065
1492.68,0.265631,583875,316730
1496.89,0.268410,578062,311576
1500.03,0.269477,574159,308713
1503.18,0.269548,570285,306580
1506.32,0.269129,565444,304271
1509.45,0.267518,560571,302770
1512.58,0.266019,555821,301242
1515.71,0.264042,550344,299635
1519.87,0.261510,543983,297903
1522.99,0.258287,538764,297243
1526.1,0.254776,533692,296835
1529.21,0.252881,527902,294898
1532.32,0.249855,521886,293576
1535.42,0.246066,515888,292745
1538.51,0.242711,509987,291641
1541.6,0.239849,503936,290086
1545.72,0.234575,494694,288245
1548.8,0.231522,488378,286572
1551.88,0.228914,481832,284434
1554.95,0.226701,474989,281827
1558.02,0.224207,467818,279171
1561.08,0.222736,460730,275874
1564.15,0.222053,454170,272374
1568.22,0.220857,444181,267118
1571.27,0.220199,436947,263166
1574.32,0.218809,429598,259569
1577.36,0.217199,422039,255949
1580.4,0.215666,414375,252190
1583.43,0.213924,406354,248302
1586.46,0.212030,398475,244552
1590.49,0.208554,388982,240644
1593.51,0.206619,380708,236577
1596.53,0.204469,372727,232767
1599.54,0.202241,365060,229152
1602.55,0.200078,357543,225554
1605.55,0.197338,349495,221872
1608.55,0.195066,341154,217713
1612.54,0.192567,330877,212373
1615.53,0.190022,322904,208474
1618.51,0.188289,315116,204259
1621.49,0.187128,307217,199672
1624.47,0.186268,299481,195030
1627.44,0.183519,292112,191439
1630.41,0.182900,284245,186549
1634.36,0.181083,274079,180631
1637.32,0.180457,266916,176164
1640.27,0.179542,259612,171705
1643.22,0.177977,251804,167142
1646.16,0.177653,244348,162314
1649.1,0.176984,236703,157478
1652.04,0.175381,228171,152363
1655.95,0.173893,215408,144334
1658.88,0.173615,204937,137406
1661.8,0.172626,193395,129963
1664.72,0.170934,179728,121250
1667.63,0.168259,163642,111080
1670.54,0.163806,146312,100340
1673.44,0.162590,128451,88338
1677.31,0.159401,105080,72798
1680.21,0.158618,88906,61704
1683.1,0.163605,75033,51481
1685.99,0.166965,63520,43246
1688.87,0.174642,53714,35929
1691.75,0.181249,45653,30076
1694.62,0.185571,39137,25528
1697.49,0.183215,33776,22151
1701.31,0.181380,28175,18556

File: Column 1_050535_20150331_115255.csv
Method:,Column 1,,
Host Date-Time:,31/3/15 @ 11:52:55,,
Header Version:,1,,
System Temp (C):,31.36,,
Detector Temp (C):,30.14,,
Humidity (%):,3.8,,
Lamp PD:,3827,,
Shift Vector Coefficients:,-10.5391,0.0761263,-0.000134223,,
Pixel to Wavelength Coefficients:,1775.68,-0.916766,-0.000235065,,
Serial Number:,5510004,,
Scan Config Name:,Column 1,,
Scan Config Type:,Slew,,
Section 1,,
Start wavelength (nm):,900,,
End wavelength (nm):,1700,,
Pattern Pixel Width (nm):,   7.03,,,,
Exposure (ms):,  0.635,,,,
Digital Resolution:,228,,
Num Repeats:,6,,
PGA Gain:,64,,
Total Measurement Time in sec:,  2.686,,
Wavelength (nm),Absorbance (AU),Reference Signal (unitless),Sample Signal (unitless)
901.51,0.042330,108485,98410
905.376,0.048937,121306,108379
909.237,0.047238,131909,118314
913.095,0.049359,143299,127904
916.948,0.048687,156982,140334
922.079,0.048419,179937,160954
925.923,0.048722,200504,179226
929.762,0.050006,222660,198443
933.597,0.050664,244426,217512
937.427,0.050536,263972,234975
941.254,0.051360,281845,250409
945.076,0.051397,297271,264092
950.165,0.052053,315605,279957
953.978,0.051625,328029,291264
957.786,0.052083,340470,301992
961.59,0.052641,352317,312099
965.389,0.053062,363056,321301
969.185,0.053095,373162,330219
972.976,0.053913,382632,337962
976.763,0.055269,391202,344455
981.806,0.055389,400190,352271
985.583,0.056175,406088,356817
989.355,0.056573,410162,360066
993.124,0.057350,412868,361794
996.888,0.057962,414263,362505
1000.65,0.059013,415476,362688
1004.4,0.060210,415479,361692
1009.41,0.061141,414358,359944
1013.15,0.062286,412923,357753
1016.89,0.062054,411526,356733
1020.63,0.062308,409066,354393
1024.36,0.062357,406777,352370
1028.09,0.061984,404427,350636
1031.82,0.061461,401911,348874
1036.78,0.060485,398410,346613
1040.49,0.060131,396204,344975
1044.2,0.059755,394236,343559
1047.91,0.059220,392042,342068
1051.61,0.058523,389823,340678
1055.31,0.057731,388234,339909
1059,0.057253,387599,339727
1063.92,0.056209,386688,339744
1067.61,0.054608,386598,340919
1071.29,0.054964,387377,341326
1074.96,0.054088,388536,343039
1078.63,0.053304,389855,344825
1082.3,0.052201,391215,346908
1085.96,0.051450,393215,349285
1090.84,0.050932,396270,352419
1094.49,0.050525,398760,354966
1098.14,0.050136,400987,357268
1101.79,0.049901,403477,359681
1105.43,0.049587,406116,362296
1109.06,0.048988,407701,364212
1112.7,0.049232,409859,365934
1117.53,0.049240,412494,368280
1121.15,0.050541,414909,369328
1124.77,0.050258,416559,371038
1128.38,0.052007,418532,371297
1131.99,0.053388,419956,371378
1135.6,0.055963,421946,370932
1139.2,0.058105,423881,370799
1143.99,0.060513,426786,371276
1147.58,0.061554,428617,371976
1151.17,0.063540,431169,372484
1154.75,0.064609,433579,373645
1158.33,0.067338,436264,373604
1161.91,0.069590,439132,374115
1165.48,0.072540,442389,374338
1169.04,0.075086,446101,375273
1173.79,0.079090,451929,376687
1177.34,0.082265,456026,377333
1180.9,0.084583,461306,379670
1184.44,0.086552,467657,383156
1187.99,0.087637,473969,387358
1191.52,0.087069,479856,392683
1195.06,0.086192,487372,399640
1199.76,0.084539,497347,409374
1203.29,0.083423,504311,416174
1206.81,0.082782,511507,422736
1210.33,0.080839,519078,430917
1213.84,0.079991,527163,438484
1217.35,0.079489,534208,444858
1220.85,0.077721,540472,451910
1225.51,0.076967,549929,460617
1229.01,0.075904,556888,467589
1232.5,0.074957,562180,473062
1235.98,0.073905,567975,479098
1239.46,0.073046,574815,485828
1242.94,0.071850,582782,493920
1246.41,0.071537,591476,501649
1251.03,0.070600,604016,513391
1254.5,0.071106,612289,519817
1257.96,0.071241,619125,525457
1261.41,0.072272,624551,528805
1264.86,0.072658,629900,532860
1268.31,0.073022,634345,536171
1271.75,0.073922,638574,538628
1276.33,0.074325,642499,541437
1279.76,0.074132,645905,544549
1283.19,0.073643,648307,547189
1286.61,0.073176,650446,549585
1290.03,0.072686,652132,551632
1293.44,0.072271,653907,553662
1296.85,0.072295,655963,555373
1301.39,0.071981,657349,556948
1304.8,0.072048,657558,557040
1308.19,0.072469,658515,557310
1311.58,0.072492,658804,557525
1314.97,0.073377,659011,556565
1318.36,0.074045,658272,555086
1321.73,0.074080,658022,554830
1326.23,0.075614,657870,552746
1329.6,0.076208,656482,550827
1332.97,0.077584,654926,547782
1336.33,0.079218,653727,544726
1339.69,0.081195,652497,541232
1343.04,0.082747,649913,537166
1346.39,0.085647,647671,531750
1349.73,0.088126,645338,526819
1354.18,0.091317,641175,519588
1357.52,0.093645,638376,514555
1360.85,0.096416,635805,509223
1364.17,0.098924,633413,504386
1367.49,0.101652,631026,499339
1370.81,0.104125,628050,494162
1374.12,0.106920,625034,488634
1378.54,0.110865,620272,480526
1381.84,0.115567,616892,472762
1385.14,0.119962,613613,465514
1388.43,0.125126,611526,458447
1391.72,0.131488,610663,451142
1395.01,0.137332,610634,445091
1398.29,0.143395,611700,439687
1402.66,0.152638,614051,432082
1405.93,0.159260,616268,427080
1409.2,0.166003,617795,421543
1412.46,0.172580,618872,415931
1415.72,0.178279,619795,411120
1418.98,0.182948,620495,407184
1422.23,0.187497,621087,403325
1426.56,0.192578,621375,398819
1429.8,0.195330,621616,396453
1433.04,0.198765,622129,393655
1436.27,0.201228,621526,391049
1439.5,0.203473,621113,388774
1442.72,0.206109,620921,386302
1445.94,0.208587,620270,383702
1450.23,0.212200,618860,379658
1453.44,0.215117,617697,376408
1456.64,0.218498,616264,372622
1459.85,0.220849,614413,369497
1463.04,0.223152,612307,366283
1466.24,0.226591,610032,362044
1469.43,0.229499,607345,358044
1473.67,0.234475,603789,351893
1476.85,0.239075,601175,346678
1480.02,0.244074,597737,340750
1483.19,0.249766,594479,334480
1486.36,0.255416,591232,328354
1489.52,0.260812,587853,322446
1492.68,0.263864,583875,318021
1496.89,0.267377,578062,312318
1500.03,0.267962,574159,309792
1503.18,0.267977,570285,307691
1506.32,0.267256,565444,305586
1509.45,0.266503,560571,303478
1512.58,0.265646,555821,301501
1515.71,0.262339,550344,300812
1519.87,0.260180,543983,298817
1522.99,0.257575,538764,297731
1526.1,0.254515,533692,297013
1529.21,0.251232,527902,296020
1532.32,0.248588,521886,294434
1535.42,0.244958,515888,293493
1538.51,0.241714,509987,292311
1541.6,0.238372,503936,291074
1545.72,0.234027,494694,288609
1548.8,0.230442,488378,287286
1551.88,0.227560,481832,285322
1554.95,0.225594,474989,282546
1558.02,0.222858,467818,280039
1561.08,0.221306,460730,276784
1564.15,0.220859,454170,273124
1568.22,0.219783,444181,267779
1571.27,0.218121,436947,264428
1574.32,0.217476,429598,260367
1577.36,0.215411,422039,257005
1580.4,0.213107,414375,253680
1583.43,0.212588,406354,249067
1586.46,0.210495,398475,245418
1590.49,0.207579,388982,241185
1593.51,0.205591,380708,237138
1596.53,0.203741,372727,233158
1599.54,0.200512,365060,230066
1602.55,0.198337,357543,226460
1605.55,0.196248,349495,222430
1608.55,0.193897,341154,218300
1612.54,0.191195,330877,213045
1615.53,0.189066,322904,208933
1618.51,0.187522,315116,204620
1621.49,0.185697,307217,200331
1624.47,0.184597,299481,195782
1627.44,0.182794,292112,191759
1630.41,0.181535,284245,187136
1634.36,0.179267,274079,181388
1637.32,0.178836,266916,176823
1640.27,0.178486,259612,172123
1643.22,0.175808,251804,167979
1646.16,0.175526,244348,163111
1649.1,0.175396,236703,158055
1652.04,0.172888,228171,153240
1655.95,0.173752,215408,144381
1658.88,0.171899,204937,137950
1661.8,0.171734,193395,130230
1664.72,0.169279,179728,121713
1667.63,0.166040,163642,111649
1670.54,0.162565,146312,100627
1673.44,0.158076,128451,89261
1677.31,0.156173,105080,73341
1680.21,0.156119,88906,62060
1683.1,0.160085,75033,51900
1685.99,0.168524,63520,43091
1688.87,0.170672,53714,36259
1691.75,0.172105,45653,30716
1694.62,0.178902,39137,25923
1697.49,0.175327,33776,22557
1701.31,0.181731,28175,18541

File: Column 1_050536_20150331_115301.csv
Method:,Column 1,,
Host Date-Time:,31/3/15 @ 11:53:1,,
Header Version:,1,,
System Temp (C):,31.42,,
Detector Temp (C):,30.17,,
Humidity (%):,3.71,,
Lamp PD:,3827,,
Shift Vector Coefficients:,-10.5391,0.0761263,-0.000134223,,
Pixel to Wavelength Coefficients:,1775.68,-0.916766,-0.000235065,,
Serial Number:,5510004,,
Scan Config Name:,Column 1,,
Scan Config Type:,Slew,,
Section 1,,
Start wavelength (nm):,900,,
End wavelength (nm):,1700,,
Pattern Pixel Width (nm):,   7.03,,,,
Exposure (ms):,  0.635,,,,
Digital Resolution:,228,,
Num Repeats:,6,,
PGA Gain:,64,,
Total Measurement Time in sec:,  2.661,,
Wavelength (nm),Absorbance (AU),Reference Signal (unitless),Sample Signal (unitless)
901.51,0.043931,108485,98048
905.376,0.049796,121306,108165
909.237,0.051591,131909,117134
913.095,0.051176,143299,127370
916.948,0.051039,156982,139576
922.079,0.050062,179937,160346
925.923,0.050064,200504,178673
929.762,0.050990,222660,197994
933.597,0.051638,244426,217025
937.427,0.052476,263972,233928
941.254,0.052161,281845,249948
945.076,0.052735,297271,263280
950.165,0.053622,315605,278947
953.978,0.053071,328029,290296
957.786,0.053580,340470,300953
961.59,0.054352,352317,310872
965.389,0.054853,363056,319978
969.185,0.054845,373162,328891
972.976,0.055389,382632,336816
976.763,0.056907,391202,343158
981.806,0.056341,400190,351500
985.583,0.057723,406088,355547
989.355,0.057903,410162,358965
993.124,0.058487,412868,360848
996.888,0.059099,414263,361557
1000.65,0.060495,415476,361452
1004.4,0.061285,415479,360798
1009.41,0.062428,414358,358879
1013.15,0.062332,412923,357715
1016.89,0.063475,411526,355568
1020.63,0.063117,409066,353734
1024.36,0.063435,406777,351497
1028.09,0.062798,404427,349979
1031.82,0.062362,401911,348151
1036.78,0.061826,398410,345545
1040.49,0.060921,396204,344348
1044.2,0.060992,394236,342582
1047.91,0.060366,392042,341167
1051.61,0.059286,389823,340080
1055.31,0.058995,388234,338921
1059,0.058521,387599,338736
1063.92,0.057267,386688,338917
1067.61,0.055772,386598,340007
1071.29,0.055563,387377,340856
1074.96,0.054560,388536,342666
1078.63,0.054401,389855,343955
1082.3,0.053538,391215,345842
1085.96,0.052559,393215,348394
1090.84,0.051392,396270,352046
1094.49,0.051595,398760,354092
1098.14,0.050836,400987,356693
1101.79,0.051028,403477,358749
1105.43,0.050565,406116,361481
1109.06,0.049518,407701,363767
1112.7,0.050230,409859,365094
1117.53,0.050677,412494,367063
1121.15,0.051433,414909,368570
1124.77,0.052189,416559,369392
1128.38,0.053114,418532,370352
1131.99,0.055036,419956,369971
1135.6,0.056715,421946,370290
1139.2,0.059097,423881,369953
1143.99,0.061722,426786,370244
1147.58,0.062413,428617,371241
1151.17,0.064226,431169,371896
1154.75,0.065896,433579,372539
1158.33,0.067768,436264,373234
1161.91,0.070295,439132,373508
1165.48,0.073532,442389,373484
1169.04,0.076102,446101,374396
1173.79,0.080613,451929,375368
1177.34,0.083465,456026,376292
1180.9,0.085505,461306,378865
1184.44,0.087449,467657,382365
1187.99,0.088306,473969,386762
1191.52,0.087856,479856,391972
1195.06,0.087528,487372,398412
1199.76,0.085815,497347,408173
1203.29,0.084546,504311,415100
1206.81,0.083570,511507,421970
1210.33,0.081918,519078,429848
1213.84,0.081237,527163,437228
1217.35,0.079837,534208,444502
1220.85,0.078864,540472,450722
1225.51,0.077590,549929,459956
1229.01,0.076974,556888,466438
1232.5,0.076055,562180,471868
1235.98,0.075163,567975,477712
1239.46,0.073812,574815,484971
1242.94,0.072561,582782,493111
1246.41,0.072451,591476,500595
1251.03,0.072166,604016,511543
1254.5,0.071373,612289,519498
1257.96,0.072045,619125,524485
1261.41,0.072352,624551,528708
1264.86,0.073417,629900,531930
1268.31,0.073958,634345,535017
1271.75,0.074628,638574,537754
1276.33,0.075221,642499,540320
1279.76,0.075333,645905,543045
1283.19,0.074215,648307,546469
1286.61,0.073837,650446,548750
1290.03,0.073752,652132,550280
1293.44,0.073580,653907,551996
1296.85,0.072698,655963,554857
1301.39,0.072586,657349,556173
1304.8,0.072645,657558,556274
1308.19,0.073222,658515,556344
1311.58,0.073116,658804,556724
1314.97,0.073916,659011,555874
1318.36,0.074642,658272,554324
1321.73,0.074851,658022,553847
1326.23,0.076066,657870,552171
1329.6,0.077201,656482,549569
1332.97,0.078241,654926,546954
1336.33,0.079725,653727,544091
1339.69,0.081772,652497,540513
1343.04,0.083631,649913,536073
1346.39,0.086154,647671,531129
1349.73,0.088695,645338,526129
1354.18,0.092266,641175,518454
1357.52,0.094411,638376,513648
1360.85,0.097337,635805,508144
1364.17,0.099316,633413,503931
1367.49,0.102607,631026,498242
1370.81,0.105015,628050,493150
1374.12,0.107979,625034,487444
1378.54,0.111688,620272,479617
1381.84,0.115796,616892,472512
1385.14,0.120706,613613,464717
1388.43,0.126087,611526,457433
1391.72,0.132139,610663,450467
1395.01,0.137752,610634,444661
1398.29,0.144256,611700,438816
1402.66,0.153814,614051,430914
1405.93,0.159925,616268,426427
1409.2,0.166973,617795,420602
1412.46,0.173300,618872,415242
1415.72,0.179081,619795,410362
1418.98,0.183403,620495,406757
1422.23,0.188020,621087,402840
1426.56,0.193128,621375,398314
1429.8,0.196600,621616,395296
1433.04,0.199396,622129,393083
1436.27,0.202065,621526,390296
1439.5,0.203976,621113,388324
1442.72,0.206889,620921,385609
1445.94,0.209719,620270,382703
1450.23,0.212984,618860,378973
1453.44,0.216012,617697,375633
1456.64,0.218967,616264,372220
1459.85,0.221254,614413,369153
1463.04,0.224503,612307,365146
1466.24,0.227882,610032,360970
1469.43,0.230353,607345,357341
1473.67,0.235239,603789,351274
1476.85,0.239614,601175,346248
1480.02,0.245210,597737,339860
1483.19,0.251284,594479,333313
1486.36,0.256259,591232,327717
1489.52,0.261472,587853,321956
1492.68,0.264831,583875,317314
1496.89,0.267983,578062,311883
1500.03,0.268759,574159,309224
1503.18,0.269211,570285,306818
1506.32,0.268489,565444,304720
1509.45,0.266982,560571,303144
1512.58,0.266175,555821,301134
1515.71,0.263824,550344,299785
1519.87,0.260497,543983,298599
1522.99,0.258004,538764,297437
1526.1,0.255519,533692,296327
1529.21,0.252183,527902,295373
1532.32,0.249440,521886,293857
1535.42,0.245789,515888,292932
1538.51,0.242084,509987,292062
1541.6,0.239196,503936,290522
1545.72,0.234463,494694,288319
1548.8,0.231038,488378,286892
1551.88,0.228505,481832,284702
1554.95,0.225684,474989,282488
1558.02,0.223851,467818,279400
1561.08,0.222298,460730,276152
1564.15,0.221376,454170,272799
1568.22,0.220158,444181,267548
1571.27,0.219230,436947,263754
1574.32,0.218368,429598,259833
1577.36,0.216928,422039,256109
1580.4,0.215640,414375,252205
1583.43,0.213065,406354,248794
1586.46,0.211969,398475,244586
1590.49,0.209494,388982,240124
1593.51,0.206258,380708,236774
1596.53,0.203703,372727,233178
1599.54,0.201648,365060,229465
1602.55,0.199347,357543,225934
1605.55,0.196484,349495,222309
1608.55,0.194739,341154,217877
1612.54,0.192678,330877,212319
1615.53,0.189077,322904,208928
1618.51,0.188119,315116,204339
1621.49,0.186448,307217,199985
1624.47,0.185620,299481,195321
1627.44,0.183676,292112,191370
1630.41,0.182942,284245,186531
1634.36,0.180937,274079,180692
1637.32,0.178016,266916,177157
1640.27,0.179213,259612,171835
1643.22,0.176543,251804,167695
1646.16,0.176675,244348,162680
1649.1,0.176460,236703,157668
1652.04,0.174874,228171,152541
1655.95,0.175123,215408,143926
1658.88,0.172440,204937,137778
1661.8,0.172342,193395,130048
1664.72,0.170805,179728,121286
1667.63,0.168036,163642,111137
1670.54,0.163187,146312,100483
1673.44,0.160007,128451,88865
1677.31,0.159902,105080,72714
1680.21,0.160678,88906,61412
1683.1,0.160177,75033,51889
1685.99,0.167296,63520,43213
1688.87,0.174558,53714,35936
1691.75,0.174018,45653,30581
1694.62,0.182046,39137,25736
1697.49,0.186482,33776,21985
1701.31,0.186962,28175,18319