Folder: textile_sorting_NIRSCAN_/samples/wool/wool-000811 (part 96)

File: Column 1_050583_20150331_121531.csv
Method:,Column 1,,
Host Date-Time:,31/3/15 @ 12:15:31,,
Header Version:,1,,
System Temp (C):,33.75,,
Detector Temp (C):,34.49,,
Humidity (%):,1.91,,
Lamp PD:,3819,,
Shift Vector Coefficients:,-10.5391,0.0761263,-0.000134223,,
Pixel to Wavelength Coefficients:,1775.68,-0.916766,-0.000235065,,
Serial Number:,5510004,,
Scan Config Name:,Column 1,,
Scan Config Type:,Slew,,
Section 1,,
Start wavelength (nm):,900,,
End wavelength (nm):,1700,,
Pattern Pixel Width (nm):,   7.03,,,,
Exposure (ms):,  0.635,,,,
Digital Resolution:,228,,
Num Repeats:,6,,
PGA Gain:,64,,
Total Measurement Time in sec:,  2.666,,
Wavelength (nm),Absorbance (AU),Reference Signal (unitless),Sample Signal (unitless)
901.51,0.069782,108485,92382
905.376,0.075035,121306,102058
909.237,0.076566,131909,110588
913.095,0.077272,143299,119942
916.948,0.078612,156982,130990
922.079,0.079461,179937,149851
925.923,0.081450,200504,166216
929.762,0.082117,222660,184300
933.597,0.083076,244426,201870
937.427,0.081719,263972,218695
941.254,0.081257,281845,233751
945.076,0.080229,297271,247129
950.165,0.078761,315605,263259
953.978,0.078985,328029,273481
957.786,0.079082,340470,283790
961.59,0.079382,352317,293462
965.389,0.079433,363056,302371
969.185,0.080142,373162,310281
972.976,0.079829,382632,318385
976.763,0.080650,391202,324901
981.806,0.080607,400190,332399
985.583,0.081729,406088,336427
989.355,0.082048,410162,339553
993.124,0.082485,412868,341449
996.888,0.082883,414263,342289
1000.65,0.083495,415476,342808
1004.4,0.084956,415479,341659
1009.41,0.085893,414358,340003
1013.15,0.086364,412923,338458
1016.89,0.086901,411526,336896
1020.63,0.087160,409066,334683
1024.36,0.086735,406777,333136
1028.09,0.086134,404427,331670
1031.82,0.086018,401911,329695
1036.78,0.085781,398410,327001
1040.49,0.085973,396204,325047
1044.2,0.085940,394236,323457
1047.91,0.085589,392042,321917
1051.61,0.085100,389823,320455
1055.31,0.084870,388234,319318
1059,0.084521,387599,319052
1063.92,0.082834,386688,319541
1067.61,0.082551,386598,319675
1071.29,0.082731,387377,320186
1074.96,0.081706,388536,321903
1078.63,0.081890,389855,322859
1082.3,0.080686,391215,324885
1085.96,0.079781,393215,327227
1090.84,0.079308,396270,330129
1094.49,0.079035,398760,332412
1098.14,0.078569,400987,334627
1101.79,0.077542,403477,337502
1105.43,0.077587,406116,339675
1109.06,0.076753,407701,341656
1112.7,0.075870,409859,344163
1117.53,0.076044,412494,346237
1121.15,0.076729,414909,347715
1124.77,0.076397,416559,349365
1128.38,0.077155,418532,350408
1131.99,0.079055,419956,350065
1135.6,0.080108,421946,350872
1139.2,0.081667,423881,351218
1143.99,0.083258,426786,352332
1147.58,0.083907,428617,353315
1151.17,0.085370,431169,354224
1154.75,0.086130,433579,355581
1158.33,0.087823,436264,356391
1161.91,0.090066,439132,356886
1165.48,0.091491,442389,358355
1169.04,0.094454,446101,358905
1173.79,0.097200,451929,361302
1177.34,0.099722,456026,362466
1180.9,0.101101,461306,365501
1184.44,0.102993,467657,368922
1187.99,0.103976,473969,373056
1191.52,0.104540,479856,377199
1195.06,0.103908,487372,383665
1199.76,0.103619,497347,391778
1203.29,0.102784,504311,398029
1206.81,0.102283,511507,404174
1210.33,0.101612,519078,410791
1213.84,0.101104,527163,417677
1217.35,0.099963,534208,424373
1220.85,0.100049,540472,429264
1225.51,0.099044,549929,437787
1229.01,0.098925,556888,443448
1232.5,0.098279,562180,448329
1235.98,0.097427,567975,453839
1239.46,0.096268,574815,460532
1242.94,0.095833,582782,467383
1246.41,0.095625,591476,474583
1251.03,0.094845,604016,485516
1254.5,0.094975,612289,492018
1257.96,0.095671,619125,496715
1261.41,0.096890,624551,499664
1264.86,0.096489,629900,504409
1268.31,0.097078,634345,507280
1271.75,0.097881,638574,509718
1276.33,0.097737,642499,513021
1279.76,0.097903,645905,515544
1283.19,0.097040,648307,518490
1286.61,0.097082,650446,520151
1290.03,0.096921,652132,521692
1293.44,0.096177,653907,524009
1296.85,0.095912,655963,525978
1301.39,0.095732,657349,527308
1304.8,0.095767,657558,527433
1308.19,0.096206,658515,527667
1311.58,0.096003,658804,528145
1314.97,0.096806,659011,527335
1318.36,0.097581,658272,525804
1321.73,0.097626,658022,525550
1326.23,0.098532,657870,524334
1329.6,0.099559,656482,521992
1332.97,0.100462,654926,519673
1336.33,0.101536,653727,517440
1339.69,0.103170,652497,514528
1343.04,0.104951,649913,510393
1346.39,0.106355,647671,506990
1349.73,0.108608,645338,502550
1354.18,0.111610,641175,495869
1357.52,0.113662,638376,491377
1360.85,0.115892,635805,486891
1364.17,0.118014,633413,482695
1367.49,0.119920,631026,478770
1370.81,0.121902,628050,474343
1374.12,0.124331,625034,469432
1378.54,0.127863,620272,462082
1381.84,0.130770,616892,456498
1385.14,0.134702,613613,449979
1388.43,0.138749,611526,444289
1391.72,0.143485,610663,438851
1395.01,0.147803,610634,434488
1398.29,0.153610,611700,429466
1402.66,0.160472,614051,424358
1405.93,0.166231,616268,420280
1409.2,0.171967,617795,415793
1412.46,0.177538,618872,411209
1415.72,0.181423,619795,408155
1418.98,0.184881,620495,405375
1422.23,0.188700,621087,402210
1426.56,0.192512,621375,398880
1429.8,0.195510,621616,396289
1433.04,0.198340,622129,394040
1436.27,0.200660,621526,391561
1439.5,0.203122,621113,389089
1442.72,0.204904,620921,387376
1445.94,0.207480,620270,384681
1450.23,0.210391,618860,381243
1453.44,0.213231,617697,378046
1456.64,0.215923,616264,374838
1459.85,0.218789,614413,371254
1463.04,0.220950,612307,368145
1466.24,0.224089,610032,364136
1469.43,0.227293,607345,359867
1473.67,0.232525,603789,353476
1476.85,0.237638,601175,347827
1480.02,0.242163,597737,342253
1483.19,0.247928,594479,335899
1486.36,0.253061,591232,330139
1489.52,0.257162,587853,325167
1492.68,0.260824,583875,320255
1496.89,0.262243,578062,316032
1500.03,0.263091,574159,313286
1503.18,0.263288,570285,311031
1506.32,0.261956,565444,309338
1509.45,0.261171,560571,307227
1512.58,0.259205,555821,306006
1515.71,0.257171,550344,304413
1519.87,0.254369,543983,302842
1522.99,0.251669,538764,301807
1526.1,0.249326,533692,300583
1529.21,0.246435,527902,299308
1532.32,0.243639,521886,297808
1535.42,0.241475,515888,295856
1538.51,0.237958,509987,294850
1541.6,0.235056,503936,293305
1545.72,0.230845,494694,290731
1548.8,0.227812,488378,289031
1551.88,0.225915,481832,286405
1554.95,0.223633,474989,283825
1558.02,0.221652,467818,280818
1561.08,0.220722,460730,277156
1564.15,0.219877,454170,273742
1568.22,0.218439,444181,268609
1571.27,0.218189,436947,264387
1574.32,0.217376,429598,260427
1577.36,0.216409,422039,256415
1580.4,0.214776,414375,252707
1583.43,0.212824,406354,248932
1586.46,0.211560,398475,244817
1590.49,0.209149,388982,240315
1593.51,0.207776,380708,235948
1596.53,0.204972,372727,232498
1599.54,0.203280,365060,228604
1602.55,0.200789,357543,225185
1605.55,0.200294,349495,220367
1608.55,0.197218,341154,216637
1612.54,0.197011,330877,210211
1615.53,0.194705,322904,206238
1618.51,0.193978,315116,201601
1621.49,0.191900,307217,197490
1624.47,0.190099,299481,193317
1627.44,0.189794,292112,188693
1630.41,0.187393,284245,184629
1634.36,0.186544,274079,178374
1637.32,0.187235,266916,173436
1640.27,0.184766,259612,169652
1643.22,0.184140,251804,164787
1646.16,0.184791,244348,159668
1649.1,0.183295,236703,155206
1652.04,0.181802,228171,150127
1655.95,0.179042,215408,142633
1658.88,0.175112,204937,136933
1661.8,0.168912,193395,131079
1664.72,0.162025,179728,123763
1667.63,0.148136,163642,116348
1670.54,0.134547,146312,107333
1673.44,0.120656,128451,97293
1677.31,0.100349,105080,83401
1680.21,0.090821,88906,72129
1683.1,0.082196,75033,62095
1685.99,0.087074,63520,51980
1688.87,0.088782,53714,43783
1691.75,0.085600,45653,37486
1694.62,0.096960,39137,31306
1697.49,0.097759,33776,26968
1701.31,0.111089,28175,21816

File: Column 1_050583_20150331_121539.csv
Method:,Column 1,,
Host Date-Time:,31/3/15 @ 12:15:39,,
Header Version:,1,,
System Temp (C):,33.76,,
Detector Temp (C):,34.51,,
Humidity (%):,1.91,,
Lamp PD:,3818,,
Shift Vector Coefficients:,-10.5391,0.0761263,-0.000134223,,
Pixel to Wavelength Coefficients:,1775.68,-0.916766,-0.000235065,,
Serial Number:,5510004,,
Scan Config Name:,Column 1,,
Scan Config Type:,Slew,,
Section 1,,
Start wavelength (nm):,900,,
End wavelength (nm):,1700,,
Pattern Pixel Width (nm):,   7.03,,,,
Exposure (ms):,  0.635,,,,
Digital Resolution:,228,,
Num Repeats:,6,,
PGA Gain:,64,,
Total Measurement Time in sec:,  2.670,,
Wavelength (nm),Absorbance (AU),Reference Signal (unitless),Sample Signal (unitless)
901.51,0.069651,108485,92410
905.376,0.077036,121306,101589
909.237,0.078696,131909,110047
913.095,0.080113,143299,119160
916.948,0.080263,156982,130493
922.079,0.081547,179937,149133
925.923,0.083806,200504,165317
929.762,0.083386,222660,183762
933.597,0.083775,244426,201545
937.427,0.083101,263972,218000
941.254,0.082474,281845,233097
945.076,0.081420,297271,246452
950.165,0.080780,315605,262038
953.978,0.080276,328029,272669
957.786,0.079881,340470,283268
961.59,0.080453,352317,292739
965.389,0.080096,363056,301910
969.185,0.080260,373162,310197
972.976,0.080114,382632,318176
976.763,0.081014,391202,324629
981.806,0.081230,400190,331922
985.583,0.081880,406088,336310
989.355,0.082450,410162,339239
993.124,0.082795,412868,341206
996.888,0.083682,414263,341660
1000.65,0.083860,415476,342520
1004.4,0.085090,415479,341554
1009.41,0.087118,414358,339045
1013.15,0.086387,412923,338440
1016.89,0.087596,411526,336358
1020.63,0.087339,409066,334545
1024.36,0.087676,406777,332415
1028.09,0.087437,404427,330676
1031.82,0.086985,401911,328961
1036.78,0.087110,398410,326002
1040.49,0.086586,396204,324588
1044.2,0.086329,394236,323167
1047.91,0.086314,392042,321380
1051.61,0.085650,389823,320050
1055.31,0.084676,388234,319461
1059,0.084913,387599,318764
1063.92,0.083296,386688,319201
1067.61,0.083387,386598,319060
1071.29,0.083128,387377,319894
1074.96,0.082722,388536,321151
1078.63,0.082118,389855,322690
1082.3,0.081633,391215,324177
1085.96,0.080407,393215,326756
1090.84,0.079539,396270,329953
1094.49,0.079099,398760,332363
1098.14,0.079162,400987,334171
1101.79,0.078489,403477,336767
1105.43,0.077631,406116,339640
1109.06,0.077354,407701,341183
1112.7,0.077150,409859,343150
1117.53,0.076933,412494,345529
1121.15,0.077633,414909,346992
1124.77,0.076830,416559,349017
1128.38,0.078295,418532,349489
1131.99,0.079532,419956,349681
1135.6,0.080429,421946,350613
1139.2,0.081916,423881,351017
1143.99,0.083526,426786,352115
1147.58,0.085130,428617,352322
1151.17,0.085814,431169,353862
1154.75,0.087025,433579,354849
1158.33,0.088451,436264,355876
1161.91,0.090242,439132,356741
1165.48,0.091878,442389,358036
1169.04,0.094747,446101,358663
1173.79,0.097695,451929,360890
1177.34,0.100162,456026,362099
1180.9,0.101812,461306,364903
1184.44,0.103162,467657,368778
1187.99,0.104708,473969,372428
1191.52,0.104360,479856,377356
1195.06,0.104517,487372,383128
1199.76,0.104331,497347,391137
1203.29,0.102750,504311,398060
1206.81,0.102527,511507,403947
1210.33,0.102237,519078,410200
1213.84,0.101404,527163,417389
1217.35,0.100714,534208,423639
1220.85,0.100079,540472,429234
1225.51,0.099007,549929,437824
1229.01,0.099128,556888,443241
1232.5,0.098534,562180,448065
1235.98,0.097896,567975,453350
1239.46,0.097162,574815,459585
1242.94,0.095865,582782,467349
1246.41,0.095544,591476,474671
1251.03,0.094854,604016,485506
1254.5,0.095003,612289,491987
1257.96,0.095506,619125,496904
1261.41,0.096150,624551,500516
1264.86,0.096813,629900,504032
1268.31,0.097273,634345,507052
1271.75,0.098505,638574,508986
1276.33,0.097977,642499,512738
1279.76,0.098017,645905,515408
1283.19,0.097357,648307,518112
1286.61,0.097357,650446,519822
1290.03,0.097225,652132,521327
1293.44,0.096176,653907,524010
1296.85,0.096254,655963,525564
1301.39,0.096112,657349,526846
1304.8,0.096031,657558,527112
1308.19,0.096127,658515,527763
1311.58,0.096172,658804,527939
1314.97,0.097032,659011,527061
1318.36,0.097132,658272,526349
1321.73,0.097923,658022,525191
1326.23,0.098741,657870,524082
1329.6,0.099368,656482,522221
1332.97,0.100710,654926,519377
1336.33,0.101495,653727,517489
1339.69,0.103319,652497,514351
1343.04,0.104933,649913,510414
1346.39,0.106743,647671,506537
1349.73,0.108741,645338,502396
1354.18,0.112020,641175,495401
1357.52,0.114288,638376,490669
1360.85,0.116111,635805,486646
1364.17,0.118125,633413,482572
1367.49,0.119951,631026,478736
1370.81,0.122443,628050,473752
1374.12,0.124805,625034,468920
1378.54,0.127411,620272,462563
1381.84,0.130722,616892,456549
1385.14,0.135324,613613,449335
1388.43,0.138741,611526,444298
1391.72,0.143725,610663,438608
1395.01,0.148449,610634,433842
1398.29,0.153720,611700,429357
1402.66,0.161397,614051,423455
1405.93,0.166803,616268,419727
1409.2,0.171698,617795,416051
1412.46,0.177178,618872,411550
1415.72,0.181520,619795,408064
1418.98,0.185453,620495,404842
1422.23,0.189017,621087,401916
1426.56,0.193196,621375,398252
1429.8,0.196445,621616,395437
1433.04,0.198307,622129,394070
1436.27,0.201047,621526,391212
1439.5,0.202904,621113,389284
1442.72,0.205842,620921,386540
1445.94,0.207769,620270,384425
1450.23,0.210869,618860,380823
1453.44,0.213625,617697,377703
1456.64,0.215857,616264,374895
1459.85,0.218792,614413,371252
1463.04,0.221363,612307,367795
1466.24,0.224322,610032,363941
1469.43,0.227959,607345,359316
1473.67,0.232957,603789,353125
1476.85,0.237614,601175,347846
1480.02,0.242711,597737,341821
1483.19,0.248892,594479,335154
1486.36,0.253996,591232,329429
1489.52,0.258405,587853,324238
1492.68,0.260966,583875,320150
1496.89,0.262687,578062,315709
1500.03,0.263663,574159,312874
1503.18,0.263227,570285,311075
1506.32,0.262767,565444,308761
1509.45,0.261221,560571,307192
1512.58,0.259561,555821,305755
1515.71,0.257601,550344,304112
1519.87,0.254533,543983,302728
1522.99,0.252536,538764,301205
1526.1,0.249973,533692,300136
1529.21,0.247288,527902,298721
1532.32,0.243970,521886,297581
1535.42,0.241025,515888,296163
1538.51,0.238085,509987,294764
1541.6,0.236175,503936,292550
1545.72,0.231469,494694,290314
1548.8,0.228948,488378,288276
1551.88,0.226935,481832,285733
1554.95,0.224288,474989,283397
1558.02,0.223048,467818,279917
1561.08,0.221398,460730,276725
1564.15,0.221145,454170,272944
1568.22,0.219543,444181,267927
1571.27,0.218904,436947,263952
1574.32,0.218169,429598,259952
1577.36,0.216731,422039,256225
1580.4,0.215294,414375,252406
1583.43,0.213853,406354,248343
1586.46,0.212259,398475,244423
1590.49,0.210954,388982,239318
1593.51,0.207535,380708,236079
1596.53,0.207003,372727,231413
1599.54,0.204405,365060,228013
1602.55,0.203109,357543,223985
1605.55,0.200734,349495,220144
1608.55,0.198334,341154,216081
1612.54,0.196904,330877,210263
1615.53,0.194953,322904,206120
1618.51,0.194109,315116,201540
1621.49,0.192774,307217,197093
1624.47,0.191562,299481,192667
1627.44,0.189837,292112,188674
1630.41,0.188889,284245,183994
1634.36,0.188049,274079,177757
1637.32,0.186832,266916,173597
1640.27,0.186837,259612,168845
1643.22,0.184572,251804,164623
1646.16,0.185433,244348,159432
1649.1,0.184169,236703,154894
1652.04,0.183146,228171,149663
1655.95,0.179212,215408,142577
1658.88,0.177415,204937,136209
1661.8,0.171251,193395,130375
1664.72,0.164093,179728,123175
1667.63,0.150881,163642,115615
1670.54,0.136729,146312,106795
1673.44,0.121979,128451,96997
1677.31,0.103338,105080,82829
1680.21,0.091743,88906,71976
1683.1,0.088458,75033,61206
1685.99,0.087710,63520,51904
1688.87,0.094916,53714,43169
1691.75,0.098559,45653,36384
1694.62,0.100820,39137,31029
1697.49,0.097647,33776,26975
1701.31,0.118396,28175,21452

File: Column 1_050583_20150331_121545.csv
Method:,Column 1,,
Host Date-Time:,31/3/15 @ 12:15:45,,
Header Version:,1,,
System Temp (C):,33.76,,
Detector Temp (C):,34.48,,
Humidity (%):,1.86,,
Lamp PD:,3819,,
Shift Vector Coefficients:,-10.5391,0.0761263,-0.000134223,,
Pixel to Wavelength Coefficients:,1775.68,-0.916766,-0.000235065,,
Serial Number:,5510004,,
Scan Config Name:,Column 1,,
Scan Config Type:,Slew,,
Section 1,,
Start wavelength (nm):,900,,
End wavelength (nm):,1700,,
Pattern Pixel Width (nm):,   7.03,,,,
Exposure (ms):,  0.635,,,,
Digital Resolution:,228,,
Num Repeats:,6,,
PGA Gain:,64,,
Total Measurement Time in sec:,  2.673,,
Wavelength (nm),Absorbance (AU),Reference Signal (unitless),Sample Signal (unitless)
901.51,0.071119,108485,92098
905.376,0.076976,121306,101603
909.237,0.078412,131909,110119
913.095,0.081547,143299,118767
916.948,0.079940,156982,130590
922.079,0.082520,179937,148799
925.923,0.083244,200504,165531
929.762,0.084425,222660,183323
933.597,0.084069,244426,201409
937.427,0.082703,263972,218200
941.254,0.081625,281845,233553
945.076,0.081052,297271,246661
950.165,0.079953,315605,262537
953.978,0.080366,328029,272613
957.786,0.080481,340470,282877
961.59,0.080294,352317,292846
965.389,0.079310,363056,302457
969.185,0.079270,373162,310905
972.976,0.080545,382632,317860
976.763,0.080982,391202,324653
981.806,0.081102,400190,332020
985.583,0.081822,406088,336355
989.355,0.082328,410162,339334
993.124,0.082688,412868,341290
996.888,0.083574,414263,341745
1000.65,0.084104,415476,342328
1004.4,0.085245,415479,341432
1009.41,0.086108,414358,339835
1013.15,0.086473,412923,338373
1016.89,0.087140,411526,336711
1020.63,0.086953,409066,334842
1024.36,0.087398,406777,332628
1028.09,0.086881,404427,331100
1031.82,0.087178,401911,328815
1036.78,0.086778,398410,326251
1040.49,0.086348,396204,324766
1044.2,0.086703,394236,322889
1047.91,0.086296,392042,321393
1051.61,0.085916,389823,319854
1055.31,0.085069,388234,319172
1059,0.084868,387599,318797
1063.92,0.083868,386688,318781
1067.61,0.083737,386598,318803
1071.29,0.083221,387377,319825
1074.96,0.082088,388536,321620
1078.63,0.082036,389855,322751
1082.3,0.081268,391215,324450
1085.96,0.080497,393215,326688
1090.84,0.079835,396270,329728
1094.49,0.079036,398760,332411
1098.14,0.078310,400987,334827
1101.79,0.077872,403477,337246
1105.43,0.077905,406116,339426
1109.06,0.076993,407701,341467
1112.7,0.076196,409859,343905
1117.53,0.076020,412494,346256
1121.15,0.077128,414909,347396
1124.77,0.076939,416559,348929
1128.38,0.078533,418532,349298
1131.99,0.078957,419956,350144
1135.6,0.080573,421946,350497
1139.2,0.081866,423881,351057
1143.99,0.084032,426786,351705
1147.58,0.084431,428617,352889
1151.17,0.085773,431169,353895
1154.75,0.086972,433579,354892
1158.33,0.088659,436264,355705
1161.91,0.090449,439132,356571
1165.48,0.092215,442389,357758
1169.04,0.093877,446101,359382
1173.79,0.097644,451929,360933
1177.34,0.099549,456026,362611
1180.9,0.102050,461306,364703
1184.44,0.103571,467657,368431
1187.99,0.104723,473969,372415
1191.52,0.104643,479856,377110
1195.06,0.104658,487372,383003
1199.76,0.103143,497347,392208
1203.29,0.103300,504311,397556
1206.81,0.103102,511507,403413
1210.33,0.102479,519078,409971
1213.84,0.101687,527163,417117
1217.35,0.101324,534208,423045
1220.85,0.100117,540472,429197
1225.51,0.099572,549929,437255
1229.01,0.098673,556888,443706
1232.5,0.098400,562180,448204
1235.98,0.097947,567975,453296
1239.46,0.097125,574815,459624
1242.94,0.095495,582782,467747
1246.41,0.095146,591476,475107
1251.03,0.094805,604016,485561
1254.5,0.095484,612289,491442
1257.96,0.095703,619125,496678
1261.41,0.096355,624551,500280
1264.86,0.096367,629900,504550
1268.31,0.097501,634345,506786
1271.75,0.097970,638574,509614
1276.33,0.098113,642499,512577
1279.76,0.097969,645905,515465
1283.19,0.097625,648307,517792
1286.61,0.097192,650446,520019
1290.03,0.096900,652132,521718
1293.44,0.096619,653907,523476
1296.85,0.096586,655963,525162
1301.39,0.095743,657349,527294
1304.8,0.096181,657558,526930
1308.19,0.096100,658515,527795
1311.58,0.096414,658804,527646
1314.97,0.096682,659011,527486
1318.36,0.097170,658272,526302
1321.73,0.097881,658022,525242
1326.23,0.098820,657870,523986
1329.6,0.099976,656482,521491
1332.97,0.100671,654926,519423
1336.33,0.101365,653727,517644
1339.69,0.103181,652497,514514
1343.04,0.104744,649913,510636
1346.39,0.106533,647671,506782
1349.73,0.109130,645338,501946
1354.18,0.111915,641175,495520
1357.52,0.113815,638376,491204
1360.85,0.115855,635805,486933
1364.17,0.118022,633413,482686
1367.49,0.120119,631026,478551
1370.81,0.121986,628050,474251
1374.12,0.124727,625034,469004
1378.54,0.127728,620272,462226
1381.84,0.130858,616892,456406
1385.14,0.134553,613613,450134
1388.43,0.138836,611526,444200
1391.72,0.143410,610663,438926
1395.01,0.147891,610634,434400
1398.29,0.153386,611700,429687
1402.66,0.160657,614051,424177
1405.93,0.166563,616268,419959
1409.2,0.171939,617795,415820
1412.46,0.176233,618872,412447
1415.72,0.181596,619795,407992
1418.98,0.185275,620495,405008
1422.23,0.188869,621087,402053
1426.56,0.192451,621375,398936
1429.8,0.195835,621616,395993
1433.04,0.198556,622129,393844
1436.27,0.200898,621526,391346
1439.5,0.202924,621113,389266
1442.72,0.204982,620921,387306
1445.94,0.207718,620270,384470
1450.23,0.210778,618860,380903
1453.44,0.213225,617697,378051
1456.64,0.215891,616264,374866
1459.85,0.218211,614413,371749
1463.04,0.221082,612307,368033
1466.24,0.224248,610032,364003
1469.43,0.227069,607345,360053
1473.67,0.232715,603789,353322
1476.85,0.237232,601175,348152
1480.02,0.242620,597737,341893
1483.19,0.248127,594479,335745
1486.36,0.252995,591232,330189
1489.52,0.258284,587853,324328
1492.68,0.260873,583875,320219
1496.89,0.262959,578062,315512
1500.03,0.263137,574159,313253
1503.18,0.263191,570285,311101
1506.32,0.261869,565444,309400
1509.45,0.261613,560571,306915
1512.58,0.258927,555821,306202
1515.71,0.257518,550344,304170
1519.87,0.254450,543983,302786
1522.99,0.251989,538764,301585
1526.1,0.249521,533692,300448
1529.21,0.247004,527902,298916
1532.32,0.243953,521886,297593
1535.42,0.242288,515888,295303
1538.51,0.238021,509987,294807
1541.6,0.235126,503936,293258
1545.72,0.231095,494694,290564
1548.8,0.228925,488378,288291
1551.88,0.226738,481832,285863
1554.95,0.223818,474989,283704
1558.02,0.223100,467818,279883
1561.08,0.221288,460730,276795
1564.15,0.220940,454170,273073
1568.22,0.219377,444181,268030
1571.27,0.219464,436947,263612
1574.32,0.217515,429598,260344
1577.36,0.216795,422039,256187
1580.4,0.215218,414375,252450
1583.43,0.213592,406354,248492
1586.46,0.212113,398475,244505
1590.49,0.210258,388982,239702
1593.51,0.208450,380708,235582
1596.53,0.205759,372727,232077
1599.54,0.204028,365060,228211
1602.55,0.202139,357543,224486
1605.55,0.200243,349495,220393
1608.55,0.198748,341154,215875
1612.54,0.196344,330877,210534
1615.53,0.194608,322904,206284
1618.51,0.193429,315116,201856
1621.49,0.192371,307217,197276
1624.47,0.191765,299481,192577
1627.44,0.190771,292112,188269
1630.41,0.189702,284245,183650
1634.36,0.188477,274079,177582
1637.32,0.187807,266916,173208
1640.27,0.186143,259612,169115
1643.22,0.185037,251804,164447
1646.16,0.185158,244348,159533
1649.1,0.184136,236703,154906
1652.04,0.183181,228171,149651
1655.95,0.179999,215408,142319
1658.88,0.175100,204937,136937
1661.8,0.170718,193395,130535
1664.72,0.162615,179728,123595
1667.63,0.150498,163642,115717
1670.54,0.137535,146312,106597
1673.44,0.122979,128451,96774
1677.31,0.103290,105080,82838
1680.21,0.091189,88906,72068
1683.1,0.088231,75033,61238
1685.99,0.087484,63520,51931
1688.87,0.086161,53714,44048
1691.75,0.094425,45653,36732
1694.62,0.096794,39137,31318
1697.49,0.102699,33776,26663
1701.31,0.108647,28175,21939