Folder: textile_sorting_NIRSCAN_/samples/wool/wool-000811 (part 29)

File: Column 1_050546_20150331_115809.csv
Method:,Column 1,,
Host Date-Time:,31/3/15 @ 11:58:9,,
Header Version:,1,,
System Temp (C):,32.99,,
Detector Temp (C):,31.62,,
Humidity (%):,2.44,,
Lamp PD:,3823,,
Shift Vector Coefficients:,-10.5391,0.0761263,-0.000134223,,
Pixel to Wavelength Coefficients:,1775.68,-0.916766,-0.000235065,,
Serial Number:,5510004,,
Scan Config Name:,Column 1,,
Scan Config Type:,Slew,,
Section 1,,
Start wavelength (nm):,900,,
End wavelength (nm):,1700,,
Pattern Pixel Width (nm):,   7.03,,,,
Exposure (ms):,  0.635,,,,
Digital Resolution:,228,,
Num Repeats:,6,,
PGA Gain:,64,,
Total Measurement Time in sec:,  2.681,,
Wavelength (nm),Absorbance (AU),Reference Signal (unitless),Sample Signal (unitless)
901.51,0.045186,108485,97765
905.376,0.050326,121306,108033
909.237,0.053423,131909,116641
913.095,0.054177,143299,126493
916.948,0.054036,156982,138616
922.079,0.054905,179937,158568
925.923,0.054805,200504,176733
929.762,0.056269,222660,195602
933.597,0.055978,244426,214867
937.427,0.056534,263972,231752
941.254,0.056869,281845,247253
945.076,0.055820,297271,261416
950.165,0.055143,315605,277972
953.978,0.056471,328029,288032
957.786,0.055728,340470,299468
961.59,0.056607,352317,309262
965.389,0.056676,363056,318638
969.185,0.056889,373162,327347
972.976,0.057304,382632,335334
976.763,0.057803,391202,342451
981.806,0.058504,400190,349754
985.583,0.059300,406088,354258
989.355,0.059781,410162,357416
993.124,0.060485,412868,359192
996.888,0.061018,414263,359963
1000.65,0.061856,415476,360321
1004.4,0.062741,415479,359590
1009.41,0.064287,414358,357346
1013.15,0.064887,412923,355617
1016.89,0.065290,411526,354085
1020.63,0.065580,409066,351733
1024.36,0.064621,406777,350538
1028.09,0.064615,404427,348518
1031.82,0.064503,401911,346439
1036.78,0.063988,398410,343829
1040.49,0.063294,396204,342472
1044.2,0.063220,394236,340829
1047.91,0.062178,392042,339746
1051.61,0.061632,389823,338248
1055.31,0.060363,388234,337855
1059,0.059880,387599,337678
1063.92,0.059154,386688,337448
1067.61,0.057959,386598,338299
1071.29,0.056410,387377,340192
1074.96,0.056958,388536,340779
1078.63,0.056130,389855,342589
1082.3,0.055021,391215,344663
1085.96,0.054442,393215,346887
1090.84,0.053635,396270,350232
1094.49,0.053057,398760,352902
1098.14,0.052778,400987,355101
1101.79,0.053008,403477,357117
1105.43,0.052625,406116,359770
1109.06,0.051499,407701,362112
1112.7,0.051926,409859,363671
1117.53,0.051785,412494,366128
1121.15,0.052576,414909,367601
1124.77,0.053212,416559,368523
1128.38,0.054786,418532,368929
1131.99,0.056724,419956,368536
1135.6,0.058484,421946,368785
1139.2,0.060646,423881,368636
1143.99,0.063377,426786,368836
1147.58,0.064160,428617,369751
1151.17,0.065182,431169,371078
1154.75,0.067052,433579,371549
1158.33,0.069598,436264,371665
1161.91,0.071715,439132,372289
1165.48,0.074151,442389,372952
1169.04,0.077620,446101,373090
1173.79,0.081320,451929,374757
1177.34,0.083848,456026,375960
1180.9,0.086704,461306,377820
1184.44,0.087960,467657,381916
1187.99,0.089524,473969,385679
1191.52,0.088890,479856,391040
1195.06,0.088278,487372,397725
1199.76,0.086999,497347,407062
1203.29,0.085436,504311,414250
1206.81,0.084800,511507,420777
1210.33,0.083520,519078,428265
1213.84,0.082458,527163,436000
1217.35,0.081472,534208,442831
1220.85,0.079970,540472,449576
1225.51,0.078919,549929,458551
1229.01,0.078041,556888,465293
1232.5,0.076955,562180,470891
1235.98,0.076610,567975,476123
1239.46,0.075230,574815,483390
1242.94,0.073989,582782,491493
1246.41,0.073276,591476,499644
1251.03,0.072606,604016,511025
1254.5,0.072579,612289,518057
1257.96,0.073084,619125,523232
1261.41,0.073533,624551,527272
1264.86,0.074508,629900,530596
1268.31,0.074910,634345,533845
1271.75,0.075738,638574,536381
1276.33,0.076165,642499,539147
1279.76,0.076058,645905,542139
1283.19,0.075357,648307,545034
1286.61,0.074896,650446,547413
1290.03,0.074356,652132,549515
1293.44,0.074019,653907,551439
1296.85,0.073697,655963,553583
1301.39,0.073491,657349,555016
1304.8,0.073571,657558,555090
1308.19,0.073927,658515,555442
1311.58,0.073947,658804,555660
1314.97,0.074759,659011,554797
1318.36,0.075195,658272,553618
1321.73,0.075033,658022,553614
1326.23,0.076206,657870,551994
1329.6,0.077442,656482,549263
1332.97,0.078872,654926,546161
1336.33,0.079513,653727,544356
1339.69,0.081540,652497,540802
1343.04,0.083900,649913,535742
1346.39,0.086152,647671,531132
1349.73,0.088485,645338,526383
1354.18,0.092294,641175,518421
1357.52,0.094503,638376,513539
1360.85,0.096613,635805,508992
1364.17,0.099550,633413,503659
1367.49,0.101938,631026,499010
1370.81,0.104316,628050,493945
1374.12,0.107314,625034,488191
1378.54,0.110998,620272,480379
1381.84,0.114982,616892,473399
1385.14,0.119058,613613,466484
1388.43,0.124394,611526,459220
1391.72,0.130001,610663,452690
1395.01,0.135339,610634,447138
1398.29,0.141772,611700,441333
1402.66,0.149524,614051,435192
1405.93,0.156696,616268,429609
1409.2,0.162413,617795,425042
1412.46,0.168874,618872,419495
1415.72,0.173214,619795,415943
1418.98,0.177324,620495,412491
1422.23,0.181758,621087,408690
1426.56,0.186177,621375,404741
1429.8,0.189599,621616,401720
1433.04,0.192653,622129,399234
1436.27,0.194625,621526,397040
1439.5,0.196998,621113,394614
1442.72,0.199739,620921,392010
1445.94,0.202477,620270,389138
1450.23,0.206118,618860,385012
1453.44,0.209018,617697,381731
1456.64,0.211806,616264,378408
1459.85,0.214563,614413,374884
1463.04,0.217818,612307,370810
1466.24,0.220338,610032,367295
1469.43,0.224000,607345,362606
1473.67,0.229230,603789,356168
1476.85,0.234112,601175,350662
1480.02,0.239978,597737,343979
1483.19,0.247332,594479,336360
1486.36,0.252692,591232,330420
1489.52,0.258113,587853,324456
1492.68,0.262620,583875,318933
1496.89,0.265395,578062,313747
1500.03,0.265820,574159,311324
1503.18,0.266379,570285,308825
1506.32,0.266013,565444,306462
1509.45,0.264730,560571,304720
1512.58,0.262520,555821,303679
1515.71,0.260325,550344,302210
1519.87,0.257878,543983,300405
1522.99,0.254477,538764,299862
1526.1,0.252233,533692,298578
1529.21,0.249098,527902,297478
1532.32,0.245725,521886,296381
1535.42,0.242345,515888,295264
1538.51,0.238916,509987,294200
1541.6,0.236282,503936,292478
1545.72,0.230841,494694,290734
1548.8,0.227861,488378,288998
1551.88,0.225388,481832,286753
1554.95,0.222540,474989,284540
1558.02,0.220645,467818,281470
1561.08,0.218997,460730,278259
1564.15,0.218578,454170,274562
1568.22,0.216489,444181,269818
1571.27,0.216926,436947,265157
1574.32,0.214743,429598,262011
1577.36,0.213662,422039,258042
1580.4,0.212133,414375,254250
1583.43,0.210753,406354,250122
1586.46,0.208512,398475,246541
1590.49,0.206254,388982,241922
1593.51,0.203836,380708,238098
1596.53,0.200850,372727,234715
1599.54,0.198673,365060,231042
1602.55,0.195862,357543,227754
1605.55,0.194716,349495,223216
1608.55,0.191241,341154,219639
1612.54,0.188478,330877,214382
1615.53,0.187260,322904,209804
1618.51,0.184875,315116,205871
1621.49,0.183718,307217,201246
1624.47,0.182285,299481,196827
1627.44,0.180485,292112,192781
1630.41,0.179563,284245,187988
1634.36,0.177711,274079,182039
1637.32,0.176511,266916,177772
1640.27,0.174710,259612,173626
1643.22,0.174112,251804,168636
1646.16,0.173488,244348,163878
1649.1,0.172749,236703,159021
1652.04,0.170850,228171,153961
1655.95,0.169981,215408,145640
1658.88,0.166987,204937,139519
1661.8,0.165115,193395,132230
1664.72,0.160159,179728,124296
1667.63,0.153114,163642,115022
1670.54,0.146700,146312,104371
1673.44,0.137220,128451,93652
1677.31,0.129403,105080,78004
1680.21,0.126390,88906,66457
1683.1,0.123796,75033,56423
1685.99,0.131349,63520,46942
1688.87,0.135032,53714,39360
1691.75,0.140035,45653,33070
1694.62,0.144856,39137,28037
1697.49,0.149067,33776,23963
1701.31,0.156369,28175,19656

File: Column 1_050546_20150331_115811.csv
Method:,Column 1,,
Host Date-Time:,31/3/15 @ 11:58:11,,
Header Version:,1,,
System Temp (C):,33.03,,
Detector Temp (C):,31.6,,
Humidity (%):,2.44,,
Lamp PD:,3823,,
Shift Vector Coefficients:,-10.5391,0.0761263,-0.000134223,,
Pixel to Wavelength Coefficients:,1775.68,-0.916766,-0.000235065,,
Serial Number:,5510004,,
Scan Config Name:,Column 1,,
Scan Config Type:,Slew,,
Section 1,,
Start wavelength (nm):,900,,
End wavelength (nm):,1700,,
Pattern Pixel Width (nm):,   7.03,,,,
Exposure (ms):,  0.635,,,,
Digital Resolution:,228,,
Num Repeats:,6,,
PGA Gain:,64,,
Total Measurement Time in sec:,  2.670,,
Wavelength (nm),Absorbance (AU),Reference Signal (unitless),Sample Signal (unitless)
901.51,0.046214,108485,97534
905.376,0.051195,121306,107817
909.237,0.054706,131909,116297
913.095,0.054836,143299,126301
916.948,0.054547,156982,138453
922.079,0.055193,179937,158463
925.923,0.055373,200504,176502
929.762,0.056787,222660,195369
933.597,0.055687,244426,215011
937.427,0.056180,263972,231941
941.254,0.056769,281845,247310
945.076,0.056426,297271,261052
950.165,0.055871,315605,277506
953.978,0.055787,328029,288486
957.786,0.056694,340470,298803
961.59,0.056549,352317,309303
965.389,0.056434,363056,318816
969.185,0.057024,373162,327245
972.976,0.056362,382632,336062
976.763,0.058191,391202,342145
981.806,0.058136,400190,350050
985.583,0.059080,406088,354438
989.355,0.059658,410162,357518
993.124,0.060208,412868,359421
996.888,0.060769,414263,360170
1000.65,0.061456,415476,360653
1004.4,0.062907,415479,359453
1009.41,0.064427,414358,357231
1013.15,0.064308,412923,356091
1016.89,0.064908,411526,354396
1020.63,0.064581,409066,352543
1024.36,0.064405,406777,350713
1028.09,0.064459,404427,348643
1031.82,0.064081,401911,346776
1036.78,0.063077,398410,344551
1040.49,0.062572,396204,343042
1044.2,0.062876,394236,341099
1047.91,0.061591,392042,340206
1051.61,0.061010,389823,338733
1055.31,0.059962,388234,338167
1059,0.059926,387599,337642
1063.92,0.058691,386688,337808
1067.61,0.057275,386598,338832
1071.29,0.056360,387377,340231
1074.96,0.055763,388536,341718
1078.63,0.055482,389855,343100
1082.3,0.054123,391215,345376
1085.96,0.053893,393215,347326
1090.84,0.053028,396270,350722
1094.49,0.052912,398760,353020
1098.14,0.052513,400987,355318
1101.79,0.052121,403477,357847
1105.43,0.052115,406116,360193
1109.06,0.051125,407701,362424
1112.7,0.050976,409859,364467
1117.53,0.051309,412494,366529
1121.15,0.052076,414909,368025
1124.77,0.052208,416559,369376
1128.38,0.054171,418532,369452
1131.99,0.055124,419956,369896
1135.6,0.057672,421946,369475
1139.2,0.059358,423881,369731
1143.99,0.062316,426786,369738
1147.58,0.063732,428617,370116
1151.17,0.065008,431169,371227
1154.75,0.066532,433579,371994
1158.33,0.068036,436264,373004
1161.91,0.070559,439132,373281
1165.48,0.074021,442389,373064
1169.04,0.076451,446101,374095
1173.79,0.080988,451929,375044
1177.34,0.083627,456026,376151
1180.9,0.086097,461306,378349
1184.44,0.087752,467657,382099
1187.99,0.089122,473969,386036
1191.52,0.088191,479856,391670
1195.06,0.087560,487372,398383
1199.76,0.086423,497347,407602
1203.29,0.084668,504311,414983
1206.81,0.083470,511507,422067
1210.33,0.082619,519078,429154
1213.84,0.081686,527163,436776
1217.35,0.080808,534208,443509
1220.85,0.079343,540472,450226
1225.51,0.077673,549929,459868
1229.01,0.077156,556888,466242
1232.5,0.076206,562180,471704
1235.98,0.075463,567975,477382
1239.46,0.074124,574815,484623
1242.94,0.072971,582782,492646
1246.41,0.072263,591476,500811
1251.03,0.072043,604016,511688
1254.5,0.071847,612289,518931
1257.96,0.072484,619125,523955
1261.41,0.072921,624551,528016
1264.86,0.073619,629900,531683
1268.31,0.074208,634345,534709
1271.75,0.075042,638574,537241
1276.33,0.075612,642499,539834
1279.76,0.075650,645905,542648
1283.19,0.074581,648307,546009
1286.61,0.074010,650446,548531
1290.03,0.074166,652132,549756
1293.44,0.073259,653907,552404
1296.85,0.073142,655963,554291
1301.39,0.072827,657349,555865
1304.8,0.072407,657558,556579
1308.19,0.073213,658515,556356
1311.58,0.073123,658804,556716
1314.97,0.073807,659011,556014
1318.36,0.074206,658272,554880
1321.73,0.074572,658022,554202
1326.23,0.075693,657870,552646
1329.6,0.076712,656482,550188
1332.97,0.078005,654926,547252
1336.33,0.079199,653727,544750
1339.69,0.081046,652497,541418
1343.04,0.082978,649913,536880
1346.39,0.085374,647671,532084
1349.73,0.087689,645338,527349
1354.18,0.091482,641175,519391
1357.52,0.093929,638376,514218
1360.85,0.096346,635805,509305
1364.17,0.098436,633413,504953
1367.49,0.101541,631026,499466
1370.81,0.104382,628050,493869
1374.12,0.106874,625034,488686
1378.54,0.110174,620272,481291
1381.84,0.114419,616892,474013
1385.14,0.118400,613613,467191
1388.43,0.123710,611526,459944
1391.72,0.129063,610663,453669
1395.01,0.135194,610634,447288
1398.29,0.141206,611700,441909
1402.66,0.149260,614051,435456
1405.93,0.156095,616268,430204
1409.2,0.161965,617795,425480
1412.46,0.167484,618872,420840
1415.72,0.172502,619795,416626
1418.98,0.177208,620495,412601
1422.23,0.181309,621087,409113
1426.56,0.186125,621375,404789
1429.8,0.189240,621616,402052
1433.04,0.192051,622129,399788
1436.27,0.194406,621526,397240
1439.5,0.196491,621113,395075
1442.72,0.199679,620921,392064
1445.94,0.201748,620270,389792
1450.23,0.205784,618860,385308
1453.44,0.208586,617697,382111
1456.64,0.211501,616264,378674
1459.85,0.214752,614413,374721
1463.04,0.217355,612307,371205
1466.24,0.220213,610032,367400
1469.43,0.223802,607345,362772
1473.67,0.228986,603789,356368
1476.85,0.233949,601175,350794
1480.02,0.240679,597737,343424
1483.19,0.245923,594479,337453
1486.36,0.253083,591232,330122
1489.52,0.257940,587853,324585
1492.68,0.261978,583875,319405
1496.89,0.264663,578062,314276
1500.03,0.265789,574159,311346
1503.18,0.266038,570285,309068
1506.32,0.266060,565444,306429
1509.45,0.264648,560571,304777
1512.58,0.262607,555821,303618
1515.71,0.260111,550344,302359
1519.87,0.257185,543983,300885
1522.99,0.254086,538764,300132
1526.1,0.251621,533692,298999
1529.21,0.248847,527902,297650
1532.32,0.245756,521886,296360
1535.42,0.241628,515888,295752
1538.51,0.239006,509987,294139
1541.6,0.235663,503936,292895
1545.72,0.230860,494694,290721
1548.8,0.227700,488378,289105
1551.88,0.224682,481832,287219
1554.95,0.222540,474989,284540
1558.02,0.220617,467818,281488
1561.08,0.218734,460730,278428
1564.15,0.218028,454170,274910
1568.22,0.216954,444181,269529
1571.27,0.216531,436947,265398
1574.32,0.215001,429598,261855
1577.36,0.214181,422039,257734
1580.4,0.212387,414375,254101
1583.43,0.210366,406354,250345
1586.46,0.208167,398475,246737
1590.49,0.206373,388982,241856
1593.51,0.203663,380708,238193
1596.53,0.201137,372727,234560
1599.54,0.199019,365060,230858
1602.55,0.196696,357543,227317
1605.55,0.194548,349495,223302
1608.55,0.192078,341154,219216
1612.54,0.189450,330877,213903
1615.53,0.186090,322904,210370
1618.51,0.185200,315116,205717
1621.49,0.184496,307217,200886
1624.47,0.182252,299481,196842
1627.44,0.180787,292112,192647
1630.41,0.180111,284245,187751
1634.36,0.177749,274079,182023
1637.32,0.176475,266916,177787
1640.27,0.176316,259612,172985
1643.22,0.174553,251804,168465
1646.16,0.172726,244348,164166
1649.1,0.172179,236703,159230
1652.04,0.171502,228171,153730
1655.95,0.169859,215408,145681
1658.88,0.167258,204937,139432
1661.8,0.164292,193395,132481
1664.72,0.161373,179728,123949
1667.63,0.154691,163642,114605
1670.54,0.145823,146312,104582
1673.44,0.138623,128451,93350
1677.31,0.130256,105080,77851
1680.21,0.127123,88906,66345
1683.1,0.128136,75033,55862
1685.99,0.132757,63520,46790
1688.87,0.137134,53714,39170
1691.75,0.136373,45653,33350
1694.62,0.149434,39137,27743
1697.49,0.149847,33776,23920
1701.31,0.157963,28175,19584

File: Column 1_050547_20150331_115814.csv
Method:,Column 1,,
Host Date-Time:,31/3/15 @ 11:58:14,,
Header Version:,1,,
System Temp (C):,32.98,,
Detector Temp (C):,31.63,,
Humidity (%):,2.44,,
Lamp PD:,3823,,
Shift Vector Coefficients:,-10.5391,0.0761263,-0.000134223,,
Pixel to Wavelength Coefficients:,1775.68,-0.916766,-0.000235065,,
Serial Number:,5510004,,
Scan Config Name:,Column 1,,
Scan Config Type:,Slew,,
Section 1,,
Start wavelength (nm):,900,,
End wavelength (nm):,1700,,
Pattern Pixel Width (nm):,   7.03,,,,
Exposure (ms):,  0.635,,,,
Digital Resolution:,228,,
Num Repeats:,6,,
PGA Gain:,64,,
Total Measurement Time in sec:,  2.721,,
Wavelength (nm),Absorbance (AU),Reference Signal (unitless),Sample Signal (unitless)
901.51,0.047185,108485,97316
905.376,0.052147,121306,107581
909.237,0.054213,131909,116429
913.095,0.054084,143299,126520
916.948,0.056147,156982,137944
922.079,0.055434,179937,158375
925.923,0.055817,200504,176322
929.762,0.056844,222660,195343
933.597,0.057366,244426,214181
937.427,0.056504,263972,231768
941.254,0.057296,281845,247010
945.076,0.056579,297271,260960
950.165,0.056055,315605,277389
953.978,0.056226,328029,288195
957.786,0.056068,340470,299234
961.59,0.056597,352317,309269
965.389,0.057059,363056,318357
969.185,0.057158,373162,327144
972.976,0.057442,382632,335227
976.763,0.058141,391202,342184
981.806,0.058902,400190,349433
985.583,0.059473,406088,354117
989.355,0.060016,410162,357223
993.124,0.061028,412868,358743
996.888,0.061463,414263,359595
1000.65,0.061895,415476,360289
1004.4,0.063039,415479,359344
1009.41,0.064259,414358,357369
1013.15,0.064873,412923,355628
1016.89,0.065463,411526,353944
1020.63,0.065167,409066,352068
1024.36,0.065321,406777,349974
1028.09,0.064492,404427,348617
1031.82,0.064586,401911,346373
1036.78,0.063585,398410,344148
1040.49,0.062741,396204,342908
1044.2,0.062394,394236,341478
1047.91,0.061686,392042,340131
1051.61,0.060891,389823,338826
1055.31,0.060393,388234,337832
1059,0.059952,387599,337622
1063.92,0.059147,386688,337453
1067.61,0.057974,386598,338287
1071.29,0.056965,387377,339757
1074.96,0.055774,388536,341710
1078.63,0.055210,389855,343315
1082.3,0.055015,391215,344668
1085.96,0.053439,393215,347689
1090.84,0.052897,396270,350828
1094.49,0.052449,398760,353397
1098.14,0.052621,400987,355230
1101.79,0.052058,403477,357899
1105.43,0.052040,406116,360255
1109.06,0.051472,407701,362134
1112.7,0.051264,409859,364226
1117.53,0.051148,412494,366665
1121.15,0.052380,414909,367767
1124.77,0.052676,416559,368978
1128.38,0.054068,418532,369539
1131.99,0.055962,419956,369183
1135.6,0.058121,421946,369093
1139.2,0.059560,423881,369559
1143.99,0.062300,426786,369752
1147.58,0.063932,428617,369945
1151.17,0.064877,431169,371339
1154.75,0.066237,433579,372247
1158.33,0.067838,436264,373174
1161.91,0.070882,439132,373004
1165.48,0.073742,442389,373304
1169.04,0.076661,446101,373914
1173.79,0.081314,451929,374763
1177.34,0.084029,456026,375803
1180.9,0.086700,461306,377824
1184.44,0.088192,467657,381712
1187.99,0.089146,473969,386015
1191.52,0.088365,479856,391513
1195.06,0.087967,487372,398010
1199.76,0.086907,497347,407148
1203.29,0.085024,504311,414643
1206.81,0.083927,511507,421623
1210.33,0.082602,519078,429171
1213.84,0.081726,527163,436736
1217.35,0.080839,534208,443477
1220.85,0.079372,540472,450196
1225.51,0.078317,549929,459187
1229.01,0.077568,556888,465800
1232.5,0.076655,562180,471216
1235.98,0.075858,567975,476948
1239.46,0.075095,574815,483541
1242.94,0.073696,582782,491824
1246.41,0.073174,591476,499762
1251.03,0.072315,604016,511368
1254.5,0.072582,612289,518053
1257.96,0.072278,619125,524204
1261.41,0.073082,624551,527820
1264.86,0.073647,629900,531649
1268.31,0.074632,634345,534187
1271.75,0.075021,638574,537267
1276.33,0.075286,642499,540240
1279.76,0.075452,645905,542896
1283.19,0.074779,648307,545760
1286.61,0.074566,650446,547829
1290.03,0.073873,652132,550127
1293.44,0.073247,653907,552419
1296.85,0.073368,655963,554002
1301.39,0.073001,657349,555642
1304.8,0.072955,657558,555877
1308.19,0.073407,658515,556107
1311.58,0.073459,658804,556285
1314.97,0.074332,659011,555342
1318.36,0.074758,658272,554175
1321.73,0.075008,658022,553646
1326.23,0.076248,657870,551940
1329.6,0.077076,656482,549727
1332.97,0.078039,654926,547209
1336.33,0.079422,653727,544470
1339.69,0.080871,652497,541636
1343.04,0.083190,649913,536618
1346.39,0.085643,647671,531755
1349.73,0.088019,645338,526949
1354.18,0.091919,641175,518869
1357.52,0.093985,638376,514152
1360.85,0.096672,635805,508923
1364.17,0.098985,633413,504315
1367.49,0.101843,631026,499119
1370.81,0.104622,628050,493597
1374.12,0.107007,625034,488536
1378.54,0.111002,620272,480375
1381.84,0.114796,616892,473602
1385.14,0.119496,613613,466014
1388.43,0.124353,611526,459263
1391.72,0.129660,610663,453045
1395.01,0.135315,610634,447163
1398.29,0.141475,611700,441635
1402.66,0.149453,614051,435263
1405.93,0.156475,616268,429828
1409.2,0.162865,617795,424599
1412.46,0.168185,618872,420161
1415.72,0.173093,619795,416059
1418.98,0.178231,620495,411630
1422.23,0.182094,621087,408374
1426.56,0.186448,621375,404488
1429.8,0.189083,621616,402197
1433.04,0.192302,622129,399557
1436.27,0.194849,621526,396835
1439.5,0.197137,621113,394488
1442.72,0.199977,620921,391795
1445.94,0.202312,620270,389286
1450.23,0.206486,618860,384686
1453.44,0.208967,617697,381776
1456.64,0.212222,616264,378046
1459.85,0.214729,614413,374741
1463.04,0.217824,612307,370805
1466.24,0.220165,610032,367441
1469.43,0.223806,607345,362768
1473.67,0.229639,603789,355833
1476.85,0.234381,601175,350445
1480.02,0.240643,597737,343453
1483.19,0.247123,594479,336522
1486.36,0.253126,591232,330090
1489.52,0.258818,587853,323930
1492.68,0.262103,583875,319313
1496.89,0.264922,578062,314089
1500.03,0.266215,574159,311041
1503.18,0.266892,570285,308461
1506.32,0.265578,565444,306769
1509.45,0.264476,560571,304898
1512.58,0.262852,555821,303447
1515.71,0.260981,550344,301754
1519.87,0.257684,543983,300539
1522.99,0.255222,538764,299348
1526.1,0.251868,533692,298829
1529.21,0.248837,527902,297657
1532.32,0.245897,521886,296264
1535.42,0.242928,515888,294868
1538.51,0.239198,509987,294009
1541.6,0.236707,503936,292192
1545.72,0.231226,494694,290476
1548.8,0.227789,488378,289046
1551.88,0.225332,481832,286790
1554.95,0.222609,474989,284495
1558.02,0.220289,467818,281701
1561.08,0.219208,460730,278124
1564.15,0.218398,454170,274676
1568.22,0.217740,444181,269042
1571.27,0.216428,436947,265461
1574.32,0.215873,429598,261330
1577.36,0.214489,422039,257551
1580.4,0.212249,414375,254182
1583.43,0.210890,406354,250043
1586.46,0.209212,398475,246144
1590.49,0.206136,388982,241988
1593.51,0.204079,380708,237965
1596.53,0.201963,372727,234114
1599.54,0.199330,365060,230693
1602.55,0.197473,357543,226911
1605.55,0.194675,349495,223237
1608.55,0.191198,341154,219661
1612.54,0.189736,330877,213762
1615.53,0.187643,322904,209619
1618.51,0.186073,315116,205304
1621.49,0.183830,307217,201194
1624.47,0.183084,299481,196465
1627.44,0.180206,292112,192905
1630.41,0.179949,284245,187821
1634.36,0.178098,274079,181877
1637.32,0.177470,266916,177380
1640.27,0.175937,259612,173136
1643.22,0.175226,251804,168204
1646.16,0.173329,244348,163938
1649.1,0.173208,236703,158853
1652.04,0.172243,228171,153468
1655.95,0.171143,215408,145251
1658.88,0.168022,204937,139187
1661.8,0.166484,193395,131814
1664.72,0.160805,179728,124111
1667.63,0.153870,163642,114822
1670.54,0.145329,146312,104701
1673.44,0.138823,128451,93307
1677.31,0.130540,105080,77800
1680.21,0.126077,88906,66505
1683.1,0.129576,75033,55677
1685.99,0.132238,63520,46846
1688.87,0.140127,53714,38901
1691.75,0.145214,45653,32678
1694.62,0.148621,39137,27795
1697.49,0.160452,33776,23343
1701.31,0.165366,28175,19253