Folder: textile_sorting_NIRSCAN_/samples/wool/wool-000811 (part 167)

File: Column 1_050624_20150331_123448.csv
Method:,Column 1,,
Host Date-Time:,31/3/15 @ 12:34:48,,
Header Version:,1,,
System Temp (C):,34.09,,
Detector Temp (C):,35.06,,
Humidity (%):,1.56,,
Lamp PD:,3818,,
Shift Vector Coefficients:,-10.5391,0.0761263,-0.000134223,,
Pixel to Wavelength Coefficients:,1775.68,-0.916766,-0.000235065,,
Serial Number:,5510004,,
Scan Config Name:,Column 1,,
Scan Config Type:,Slew,,
Section 1,,
Start wavelength (nm):,900,,
End wavelength (nm):,1700,,
Pattern Pixel Width (nm):,   7.03,,,,
Exposure (ms):,  0.635,,,,
Digital Resolution:,228,,
Num Repeats:,6,,
PGA Gain:,64,,
Total Measurement Time in sec:,  2.668,,
Wavelength (nm),Absorbance (AU),Reference Signal (unitless),Sample Signal (unitless)
901.51,0.071256,108485,92069
905.376,0.075866,121306,101863
909.237,0.077183,131909,110431
913.095,0.078225,143299,119679
916.948,0.080306,156982,130480
922.079,0.080863,179937,149368
925.923,0.082287,200504,165896
929.762,0.084406,222660,183331
933.597,0.083039,244426,201887
937.427,0.081451,263972,218830
941.254,0.081101,281845,233835
945.076,0.079284,297271,247667
950.165,0.078057,315605,263686
953.978,0.077835,328029,274206
957.786,0.077762,340470,284654
961.59,0.077850,352317,294499
965.389,0.077350,363056,303825
969.185,0.077652,373162,312065
972.976,0.078175,382632,319600
976.763,0.078630,391202,326416
981.806,0.078939,400190,333678
985.583,0.079445,406088,338201
989.355,0.080076,410162,341098
993.124,0.080784,412868,342789
996.888,0.081004,414263,343773
1000.65,0.081904,415476,344066
1004.4,0.082976,415479,343220
1009.41,0.083900,414358,341567
1013.15,0.084665,412923,339785
1016.89,0.085276,411526,338159
1020.63,0.084891,409066,336436
1024.36,0.084239,406777,335056
1028.09,0.084830,404427,332667
1031.82,0.084467,401911,330874
1036.78,0.084018,398410,328331
1040.49,0.083746,396204,326718
1044.2,0.083771,394236,325076
1047.91,0.084052,392042,323058
1051.61,0.083377,389823,321729
1055.31,0.082926,388234,320751
1059,0.082446,387599,320580
1063.92,0.081389,386688,320606
1067.61,0.080683,386598,321053
1071.29,0.080814,387377,321603
1074.96,0.080114,388536,323085
1078.63,0.079403,389855,324713
1082.3,0.078421,391215,326584
1085.96,0.077754,393215,328758
1090.84,0.076803,396270,332038
1094.49,0.076312,398760,334503
1098.14,0.075759,400987,336799
1101.79,0.075608,403477,339009
1105.43,0.074746,406116,341904
1109.06,0.074172,407701,343692
1112.7,0.073858,409859,345761
1117.53,0.072816,412494,348820
1121.15,0.073530,414909,350286
1124.77,0.073942,416559,351346
1128.38,0.074379,418532,352655
1131.99,0.075556,419956,352897
1135.6,0.077296,421946,353151
1139.2,0.078678,423881,353644
1143.99,0.080941,426786,354217
1147.58,0.081523,428617,355260
1151.17,0.082361,431169,356686
1154.75,0.082825,433579,358297
1158.33,0.084794,436264,358885
1161.91,0.085757,439132,360444
1165.48,0.088806,442389,360577
1169.04,0.090096,446101,362524
1173.79,0.093770,451929,364167
1177.34,0.096058,456026,365537
1180.9,0.097781,461306,368305
1184.44,0.099825,467657,371623
1187.99,0.100847,473969,375753
1191.52,0.100387,479856,380824
1195.06,0.100519,487372,386671
1199.76,0.100390,497347,394702
1203.29,0.099502,504311,401048
1206.81,0.099181,511507,407071
1210.33,0.098587,519078,413662
1213.84,0.097868,527163,420801
1217.35,0.097758,534208,426533
1220.85,0.096432,540472,432854
1225.51,0.095773,549929,441097
1229.01,0.095137,556888,447333
1232.5,0.094807,562180,451927
1235.98,0.094090,567975,457340
1239.46,0.093197,574815,463800
1242.94,0.092117,582782,471399
1246.41,0.091714,591476,478876
1251.03,0.091341,604016,489449
1254.5,0.091442,612289,496038
1257.96,0.091701,619125,501276
1261.41,0.092835,624551,504351
1264.86,0.092954,629900,508531
1268.31,0.093309,634345,511701
1271.75,0.094372,638574,513853
1276.33,0.094368,642499,517017
1279.76,0.094395,645905,519725
1283.19,0.093699,648307,522495
1286.61,0.093593,650446,524346
1290.03,0.092975,652132,526454
1293.44,0.092741,653907,528171
1296.85,0.092415,655963,530230
1301.39,0.092202,657349,531611
1304.8,0.091562,657558,532564
1308.19,0.091926,658515,532893
1311.58,0.092016,658804,533016
1314.97,0.092337,659011,532790
1318.36,0.092838,658272,531579
1321.73,0.092913,658022,531285
1326.23,0.093858,657870,530008
1329.6,0.094958,656482,527551
1332.97,0.095765,654926,525324
1336.33,0.096346,653727,523661
1339.69,0.097313,652497,521513
1343.04,0.099349,649913,517019
1346.39,0.101202,647671,513042
1349.73,0.103064,645338,509006
1354.18,0.106062,641175,502244
1357.52,0.107631,638376,498248
1360.85,0.110069,635805,493463
1364.17,0.111601,633413,489876
1367.49,0.114164,631026,485158
1370.81,0.116063,628050,480763
1374.12,0.118144,625034,476167
1378.54,0.121009,620272,469433
1381.84,0.123764,616892,463922
1385.14,0.126609,613613,458443
1388.43,0.130395,611526,452918
1391.72,0.133942,610663,448600
1395.01,0.137886,610634,444524
1398.29,0.141793,611700,441312
1402.66,0.147653,614051,437070
1405.93,0.152410,616268,433870
1409.2,0.157331,617795,430044
1412.46,0.161635,618872,426546
1415.72,0.165078,619795,423809
1418.98,0.168226,620495,421223
1422.23,0.172122,621087,417860
1426.56,0.175207,621375,415094
1429.8,0.177684,621616,412894
1433.04,0.179984,622129,411052
1436.27,0.182635,621526,408154
1439.5,0.184682,621113,405965
1442.72,0.187123,620921,403565
1445.94,0.189522,620270,400921
1450.23,0.193339,618860,396509
1453.44,0.196247,617697,393123
1456.64,0.198589,616264,390102
1459.85,0.202149,614413,385755
1463.04,0.204166,612307,382651
1466.24,0.208148,610032,377750
1469.43,0.212170,607345,372619
1473.67,0.218308,603789,365239
1476.85,0.224563,601175,358458
1480.02,0.230813,597737,351315
1483.19,0.237733,594479,343877
1486.36,0.243241,591232,337689
1489.52,0.248026,587853,332080
1492.68,0.251625,583875,327111
1496.89,0.254062,578062,322042
1500.03,0.255007,574159,319172
1503.18,0.254725,570285,317225
1506.32,0.253419,565444,315479
1509.45,0.252122,560571,313696
1512.58,0.250566,555821,312154
1515.71,0.247836,550344,311027
1519.87,0.244880,543983,309532
1522.99,0.243570,538764,307488
1526.1,0.240754,533692,306575
1529.21,0.237103,527902,305809
1532.32,0.233983,521886,304504
1535.42,0.231315,515888,302859
1538.51,0.228727,509987,301184
1541.6,0.226177,503936,299363
1545.72,0.222368,494694,296462
1548.8,0.218516,488378,295284
1551.88,0.216360,481832,292776
1554.95,0.214094,474989,290128
1558.02,0.212919,467818,286522
1561.08,0.211930,460730,282824
1564.15,0.211933,454170,278795
1568.22,0.210403,444181,273626
1571.27,0.210097,436947,269359
1574.32,0.209536,429598,265171
1577.36,0.208354,422039,261215
1580.4,0.207310,414375,257089
1583.43,0.205712,406354,253042
1586.46,0.204005,398475,249113
1590.49,0.202330,388982,244118
1593.51,0.200299,380708,240045
1596.53,0.198674,372727,235894
1599.54,0.196349,365060,232282
1602.55,0.194444,357543,228499
1605.55,0.191855,349495,224691
1608.55,0.190717,341154,219904
1612.54,0.189773,330877,213744
1615.53,0.186999,322904,209930
1618.51,0.185403,315116,205621
1621.49,0.185376,307217,200479
1624.47,0.183398,299481,196323
1627.44,0.182843,292112,191737
1630.41,0.182005,284245,186934
1634.36,0.180444,274079,180897
1637.32,0.181148,266916,175884
1640.27,0.180611,259612,171283
1643.22,0.178859,251804,166803
1646.16,0.178068,244348,162159
1649.1,0.177031,236703,157461
1652.04,0.175911,228171,152177
1655.95,0.172718,215408,144725
1658.88,0.168159,204937,139143
1661.8,0.163548,193395,132708
1664.72,0.155049,179728,125767
1667.63,0.143159,163642,117689
1670.54,0.128819,146312,108758
1673.44,0.112410,128451,99158
1677.31,0.090663,105080,85282
1680.21,0.080616,88906,73844
1683.1,0.072335,75033,63521
1685.99,0.075442,63520,53391
1688.87,0.079159,53714,44764
1691.75,0.087772,45653,37299
1694.62,0.084300,39137,32232
1697.49,0.092637,33776,27288
1701.31,0.103961,28175,22177

File: Column 1_050624_20150331_123451.csv
Method:,Column 1,,
Host Date-Time:,31/3/15 @ 12:34:51,,
Header Version:,1,,
System Temp (C):,34.11,,
Detector Temp (C):,35.05,,
Humidity (%):,1.56,,
Lamp PD:,3818,,
Shift Vector Coefficients:,-10.5391,0.0761263,-0.000134223,,
Pixel to Wavelength Coefficients:,1775.68,-0.916766,-0.000235065,,
Serial Number:,5510004,,
Scan Config Name:,Column 1,,
Scan Config Type:,Slew,,
Section 1,,
Start wavelength (nm):,900,,
End wavelength (nm):,1700,,
Pattern Pixel Width (nm):,   7.03,,,,
Exposure (ms):,  0.635,,,,
Digital Resolution:,228,,
Num Repeats:,6,,
PGA Gain:,64,,
Total Measurement Time in sec:,  2.718,,
Wavelength (nm),Absorbance (AU),Reference Signal (unitless),Sample Signal (unitless)
901.51,0.068914,108485,92567
905.376,0.075687,121306,101905
909.237,0.076186,131909,110685
913.095,0.077855,143299,119781
916.948,0.077496,156982,131327
922.079,0.079606,179937,149801
925.923,0.081748,200504,166102
929.762,0.082780,222660,184019
933.597,0.081885,244426,202424
937.427,0.080113,263972,219505
941.254,0.080722,281845,234039
945.076,0.078297,297271,248231
950.165,0.077625,315605,263948
953.978,0.076482,328029,275062
957.786,0.076695,340470,285354
961.59,0.077353,352317,294836
965.389,0.076931,363056,304118
969.185,0.076939,373162,312578
972.976,0.077747,382632,319915
976.763,0.077561,391202,327220
981.806,0.078408,400190,334086
985.583,0.079141,406088,338438
989.355,0.080307,410162,340917
993.124,0.079752,412868,343605
996.888,0.080588,414263,344103
1000.65,0.080782,415476,344956
1004.4,0.082266,415479,343782
1009.41,0.084055,414358,341445
1013.15,0.083616,412923,340607
1016.89,0.084149,411526,339038
1020.63,0.084111,409066,337041
1024.36,0.084150,406777,335125
1028.09,0.084242,404427,333118
1031.82,0.083784,401911,331395
1036.78,0.083767,398410,328521
1040.49,0.084131,396204,326428
1044.2,0.083762,394236,325083
1047.91,0.083449,392042,323507
1051.61,0.082564,389823,322332
1055.31,0.082373,388234,321159
1059,0.081590,387599,321213
1063.92,0.081163,386688,320773
1067.61,0.080358,386598,321293
1071.29,0.079704,387377,322426
1074.96,0.079185,388536,323777
1078.63,0.078873,389855,325110
1082.3,0.077654,391215,327161
1085.96,0.076858,393215,329437
1090.84,0.075927,396270,332709
1094.49,0.075943,398760,334787
1098.14,0.075366,400987,337104
1101.79,0.074863,403477,339591
1105.43,0.074620,406116,342003
1109.06,0.073560,407701,344177
1112.7,0.072778,409859,346622
1117.53,0.072208,412494,349309
1121.15,0.073409,414909,350384
1124.77,0.073607,416559,351617
1128.38,0.074232,418532,352774
1131.99,0.075237,419956,353156
1135.6,0.076456,421946,353835
1139.2,0.077758,423881,354394
1143.99,0.080104,426786,354900
1147.58,0.081310,428617,355434
1151.17,0.081365,431169,357505
1154.75,0.082327,433579,358708
1158.33,0.084272,436264,359317
1161.91,0.086034,439132,360214
1165.48,0.087590,442389,361588
1169.04,0.089930,446101,362663
1173.79,0.093376,451929,364497
1177.34,0.095512,456026,365997
1180.9,0.097638,461306,368427
1184.44,0.099246,467657,372119
1187.99,0.100815,473969,375781
1191.52,0.100154,479856,381028
1195.06,0.100111,487372,387034
1199.76,0.099555,497347,395462
1203.29,0.099133,504311,401389
1206.81,0.098449,511507,407758
1210.33,0.097905,519078,414312
1213.84,0.097399,527163,421256
1217.35,0.097115,534208,427165
1220.85,0.096406,540472,432880
1225.51,0.095237,549929,441641
1229.01,0.094430,556888,448062
1232.5,0.094495,562180,452252
1235.98,0.093503,567975,457959
1239.46,0.092621,574815,464416
1242.94,0.091584,582782,471978
1246.41,0.091080,591476,479576
1251.03,0.090782,604016,490079
1254.5,0.091252,612289,496254
1257.96,0.091717,619125,501258
1261.41,0.092085,624551,505223
1264.86,0.092748,629900,508772
1268.31,0.093148,634345,511891
1271.75,0.094037,638574,514250
1276.33,0.094099,642499,517337
1279.76,0.093684,645905,520577
1283.19,0.093055,648307,523270
1286.61,0.093178,650446,524848
1290.03,0.092578,652132,526935
1293.44,0.091890,653907,529208
1296.85,0.092062,655963,530661
1301.39,0.091731,657349,532188
1304.8,0.091513,657558,532625
1308.19,0.091827,658515,533014
1311.58,0.091646,658804,533470
1314.97,0.092209,659011,532946
1318.36,0.092473,658272,532025
1321.73,0.092586,658022,531685
1326.23,0.093374,657870,530598
1329.6,0.094052,656482,528653
1332.97,0.094551,654926,526794
1336.33,0.096010,653727,524067
1339.69,0.097401,652497,521408
1343.04,0.098858,649913,517603
1346.39,0.100721,647671,513610
1349.73,0.102585,645338,509568
1354.18,0.105454,641175,502947
1357.52,0.107732,638376,498132
1360.85,0.109442,635805,494176
1364.17,0.111634,633413,489838
1367.49,0.113727,631026,485647
1370.81,0.115863,628050,480985
1374.12,0.117652,625034,476707
1378.54,0.120246,620272,470258
1381.84,0.123223,616892,464500
1385.14,0.126028,613613,459057
1388.43,0.129742,611526,453600
1391.72,0.133617,610663,448936
1395.01,0.137573,610634,444844
1398.29,0.141752,611700,441353
1402.66,0.147627,614051,437097
1405.93,0.152288,616268,433992
1409.2,0.156559,617795,430810
1412.46,0.161002,618872,427168
1415.72,0.164481,619795,424392
1418.98,0.167749,620495,421686
1422.23,0.171366,621087,418588
1426.56,0.174977,621375,415314
1429.8,0.177562,621616,413010
1433.04,0.180136,622129,410908
1436.27,0.182700,621526,408093
1439.5,0.184100,621113,406509
1442.72,0.186429,620921,404210
1445.94,0.188648,620270,401729
1450.23,0.192662,618860,397128
1453.44,0.195301,617697,393980
1456.64,0.198155,616264,390492
1459.85,0.201496,614413,386335
1463.04,0.204192,612307,382628
1466.24,0.207437,610032,378369
1469.43,0.211751,607345,372979
1473.67,0.218000,603789,365498
1476.85,0.224151,601175,358798
1480.02,0.230522,597737,351551
1483.19,0.237053,594479,344416
1486.36,0.242658,591232,338143
1489.52,0.247923,587853,332159
1492.68,0.251618,583875,327116
1496.89,0.253326,578062,322588
1500.03,0.253943,574159,319955
1503.18,0.253698,570285,317976
1506.32,0.253151,565444,315674
1509.45,0.251449,560571,314182
1512.58,0.250192,555821,312423
1515.71,0.247810,550344,311046
1519.87,0.244270,543983,309967
1522.99,0.242639,538764,308148
1526.1,0.239944,533692,307147
1529.21,0.236629,527902,306143
1532.32,0.234157,521886,304382
1535.42,0.230964,515888,303104
1538.51,0.228178,509987,301565
1541.6,0.225257,503936,299998
1545.72,0.220872,494694,297485
1548.8,0.218735,488378,295135
1551.88,0.216108,481832,292946
1554.95,0.214359,474989,289951
1558.02,0.212580,467818,286746
1561.08,0.210815,460730,283551
1564.15,0.210837,454170,279500
1568.22,0.209548,444181,274165
1571.27,0.208996,436947,270043
1574.32,0.207644,429598,266329
1577.36,0.206515,422039,262324
1580.4,0.205969,414375,257884
1583.43,0.204670,406354,253650
1586.46,0.202421,398475,250023
1590.49,0.201699,388982,244473
1593.51,0.199639,380708,240410
1596.53,0.196917,372727,236850
1599.54,0.195450,365060,232763
1602.55,0.193366,357543,229067
1605.55,0.192056,349495,224587
1608.55,0.189942,341154,220297
1612.54,0.188116,330877,214561
1615.53,0.185524,322904,210644
1618.51,0.184890,315116,205864
1621.49,0.183009,307217,201575
1624.47,0.182338,299481,196803
1627.44,0.182226,292112,192010
1630.41,0.181863,284245,186995
1634.36,0.179488,274079,181296
1637.32,0.180046,266916,176331
1640.27,0.178155,259612,172254
1643.22,0.177037,251804,167504
1646.16,0.177300,244348,162446
1649.1,0.176347,236703,157709
1652.04,0.174137,228171,152800
1655.95,0.171349,215408,145182
1658.88,0.167557,204937,139336
1661.8,0.161987,193395,133186
1664.72,0.154856,179728,125823
1667.63,0.141358,163642,118178
1670.54,0.125707,146312,109540
1673.44,0.110116,128451,99683
1677.31,0.089427,105080,85525
1680.21,0.076582,88906,74533
1683.1,0.072780,75033,63456
1685.99,0.069761,63520,54094
1688.87,0.077512,53714,44934
1691.75,0.079252,45653,38038
1694.62,0.082968,39137,32331
1697.49,0.086803,33776,27657
1701.31,0.089782,28175,22913

File: Column 1_050624_20150331_123454.csv
Method:,Column 1,,
Host Date-Time:,31/3/15 @ 12:34:54,,
Header Version:,1,,
System Temp (C):,34.11,,
Detector Temp (C):,35.05,,
Humidity (%):,1.56,,
Lamp PD:,3818,,
Shift Vector Coefficients:,-10.5391,0.0761263,-0.000134223,,
Pixel to Wavelength Coefficients:,1775.68,-0.916766,-0.000235065,,
Serial Number:,5510004,,
Scan Config Name:,Column 1,,
Scan Config Type:,Slew,,
Section 1,,
Start wavelength (nm):,900,,
End wavelength (nm):,1700,,
Pattern Pixel Width (nm):,   7.03,,,,
Exposure (ms):,  0.635,,,,
Digital Resolution:,228,,
Num Repeats:,6,,
PGA Gain:,64,,
Total Measurement Time in sec:,  2.671,,
Wavelength (nm),Absorbance (AU),Reference Signal (unitless),Sample Signal (unitless)
901.51,0.067761,108485,92813
905.376,0.073125,121306,102508
909.237,0.073409,131909,111395
913.095,0.076378,143299,120189
916.948,0.077870,156982,131214
922.079,0.080099,179937,149631
925.923,0.081510,200504,166193
929.762,0.081356,222660,184623
933.597,0.080810,244426,202926
937.427,0.079973,263972,219576
941.254,0.079662,281845,234611
945.076,0.078704,297271,247998
950.165,0.077762,315605,263865
953.978,0.076401,328029,275113
957.786,0.076486,340470,285491
961.59,0.077031,352317,295055
965.389,0.076421,363056,304476
969.185,0.077659,373162,312060
972.976,0.076510,382632,320827
976.763,0.078146,391202,326780
981.806,0.078291,400190,334176
985.583,0.078881,406088,338641
989.355,0.079094,410162,341870
993.124,0.079288,412868,343972
996.888,0.079846,414263,344691
1000.65,0.081168,415476,344650
1004.4,0.082078,415479,343931
1009.41,0.083200,414358,342118
1013.15,0.083616,412923,340607
1016.89,0.084237,411526,338969
1020.63,0.083979,409066,337143
1024.36,0.083962,406777,335270
1028.09,0.083979,404427,333320
1031.82,0.083673,401911,331480
1036.78,0.083199,398410,328951
1040.49,0.083019,396204,327265
1044.2,0.083033,394236,325629
1047.91,0.082624,392042,324122
1051.61,0.082280,389823,322543
1055.31,0.081882,388234,321523
1059,0.081395,387599,321357
1063.92,0.080276,386688,321429
1067.61,0.079890,386598,321640
1071.29,0.079958,387377,322237
1074.96,0.078802,388536,324063
1078.63,0.078431,389855,325441
1082.3,0.077390,391215,327360
1085.96,0.076323,393215,329843
1090.84,0.075616,396270,332947
1094.49,0.075606,398760,335047
1098.14,0.075080,400987,337326
1101.79,0.073968,403477,340291
1105.43,0.073670,406116,342752
1109.06,0.073030,407701,344597
1112.7,0.072406,409859,346919
1117.53,0.072161,412494,349347
1121.15,0.072803,414909,350873
1124.77,0.073442,416559,351750
1128.38,0.074223,418532,352781
1131.99,0.075050,419956,353308
1135.6,0.076486,421946,353811
1139.2,0.077819,423881,354344
1143.99,0.080109,426786,354896
1147.58,0.080443,428617,356145
1151.17,0.081210,431169,357633
1154.75,0.082167,433579,358840
1158.33,0.083831,436264,359682
1161.91,0.085513,439132,360647
1165.48,0.087768,442389,361440
1169.04,0.089506,446101,363017
1173.79,0.093028,451929,364789
1177.34,0.094970,456026,366454
1180.9,0.097871,461306,368229
1184.44,0.098679,467657,372605
1187.99,0.100095,473969,376405
1191.52,0.100379,479856,380831
1195.06,0.100124,487372,387023
1199.76,0.099540,497347,395475
1203.29,0.098566,504311,401913
1206.81,0.097858,511507,408313
1210.33,0.097417,519078,414778
1213.84,0.097054,527163,421591
1217.35,0.096741,534208,427533
1220.85,0.095793,540472,433491
1225.51,0.095317,549929,441560
1229.01,0.094317,556888,448178
1232.5,0.094202,562180,452557
1235.98,0.093298,567975,458175
1239.46,0.092220,574815,464845
1242.94,0.091457,582782,472116
1246.41,0.090599,591476,480107
1251.03,0.090454,604016,490450
1254.5,0.090992,612289,496552
1257.96,0.091168,619125,501892
1261.41,0.091551,624551,505844
1264.86,0.092144,629900,509480
1268.31,0.092688,634345,512433
1271.75,0.093471,638574,514921
1276.33,0.094052,642499,517393
1279.76,0.093589,645905,520691
1283.19,0.092706,648307,523690
1286.61,0.092567,650446,525587
1290.03,0.092455,652132,527085
1293.44,0.091702,653907,529437
1296.85,0.091841,655963,530931
1301.39,0.091773,657349,532137
1304.8,0.091259,657558,532936
1308.19,0.091820,658515,533023
1311.58,0.091557,658804,533580
1314.97,0.091702,659011,533569
1318.36,0.092122,658272,532455
1321.73,0.092782,658022,531445
1326.23,0.093449,657870,530507
1329.6,0.093861,656482,528886
1332.97,0.094420,654926,526953
1336.33,0.095736,653727,524397
1339.69,0.097164,652497,521693
1343.04,0.098427,649913,518118
1346.39,0.100680,647671,513658
1349.73,0.102805,645338,509310
1354.18,0.105231,641175,503206
1357.52,0.107080,638376,498881
1360.85,0.109325,635805,494309
1364.17,0.111380,633413,490125
1367.49,0.113097,631026,486351
1370.81,0.115665,628050,481204
1374.12,0.117408,625034,476975
1378.54,0.120055,620272,470465
1381.84,0.123063,616892,464672
1385.14,0.125883,613613,459210
1388.43,0.129416,611526,453940
1391.72,0.133295,610663,449269
1395.01,0.137188,610634,445239
1398.29,0.141279,611700,441834
1402.66,0.147124,614051,437603
1405.93,0.151550,616268,434730
1409.2,0.156767,617795,430603
1412.46,0.160705,618872,427460
1415.72,0.163903,619795,424957
1418.98,0.167654,620495,421778
1422.23,0.170847,621087,419088
1426.56,0.174704,621375,415575
1429.8,0.177448,621616,413118
1433.04,0.180151,622129,410894
1436.27,0.181963,621526,408786
1439.5,0.183617,621113,406962
1442.72,0.186712,620921,403947
1445.94,0.188281,620270,402068
1450.23,0.192365,618860,397400
1453.44,0.195286,617697,393994
1456.64,0.197980,616264,390649
1459.85,0.201106,614413,386682
1463.04,0.204158,612307,382658
1466.24,0.207567,610032,378256
1469.43,0.211244,607345,373415
1473.67,0.217757,603789,365703
1476.85,0.223440,601175,359386
1480.02,0.230500,597737,351569
1483.19,0.236908,594479,344531
1486.36,0.242527,591232,338245
1489.52,0.247528,587853,332461
1492.68,0.250785,583875,327744
1496.89,0.252600,578062,323128
1500.03,0.255470,574159,318832
1503.18,0.253364,570285,318220
1506.32,0.252715,565444,315991
1509.45,0.251101,560571,314434
1512.58,0.249582,555821,312862
1515.71,0.247077,550344,311571
1519.87,0.244528,543983,309783
1522.99,0.242169,538764,308482
1526.1,0.239552,533692,307425
1529.21,0.236439,527902,306277
1532.32,0.233956,521886,304523
1535.42,0.230405,515888,303494
1538.51,0.228089,509987,301627
1541.6,0.224631,503936,300431
1545.72,0.220457,494694,297769
1548.8,0.217461,488378,296002
1551.88,0.215473,481832,293375
1554.95,0.213421,474989,290578
1558.02,0.212552,467818,286764
1561.08,0.210746,460730,283596
1564.15,0.210691,454170,279594
1568.22,0.209268,444181,274342
1571.27,0.208782,436947,270176
1574.32,0.208473,429598,265821
1577.36,0.206306,422039,262450
1580.4,0.206303,414375,257686
1583.43,0.204156,406354,253950
1586.46,0.202873,398475,249763
1590.49,0.200879,388982,244935
1593.51,0.199257,380708,240622
1596.53,0.196888,372727,236866
1599.54,0.194500,365060,233273
1602.55,0.192536,357543,229505
1605.55,0.190834,349495,225220
1608.55,0.188389,341154,221086
1612.54,0.187458,330877,214886
1615.53,0.185368,322904,210720
1618.51,0.184222,315116,206181
1621.49,0.183904,307217,201160
1624.47,0.182397,299481,196776
1627.44,0.181776,292112,192209
1630.41,0.181016,284245,187360
1634.36,0.179377,274079,181342
1637.32,0.178372,266916,177012
1640.27,0.178958,259612,171936
1643.22,0.176449,251804,167731
1646.16,0.176434,244348,162770
1649.1,0.175607,236703,157978
1652.04,0.173277,228171,153103
1655.95,0.171101,215408,145265
1658.88,0.167367,204937,139397
1661.8,0.160415,193395,133669
1664.72,0.153746,179728,126145
1667.63,0.140319,163642,118461
1670.54,0.127364,146312,109123
1673.44,0.109677,128451,99784
1677.31,0.089600,105080,85491
1680.21,0.074246,88906,74935
1683.1,0.071563,75033,63634
1685.99,0.067751,63520,54345
1688.87,0.068303,53714,45897
1691.75,0.075715,45653,38349
1694.62,0.079317,39137,32604
1697.49,0.086442,33776,27680
1701.31,0.088382,28175,22987