Folder: textile_sorting_NIRSCAN_/samples/wool/wool-000811 (part 98)

File: Column 1_050584_20150331_121611.csv
Method:,Column 1,,
Host Date-Time:,31/3/15 @ 12:16:11,,
Header Version:,1,,
System Temp (C):,33.76,,
Detector Temp (C):,34.52,,
Humidity (%):,1.86,,
Lamp PD:,3819,,
Shift Vector Coefficients:,-10.5391,0.0761263,-0.000134223,,
Pixel to Wavelength Coefficients:,1775.68,-0.916766,-0.000235065,,
Serial Number:,5510004,,
Scan Config Name:,Column 1,,
Scan Config Type:,Slew,,
Section 1,,
Start wavelength (nm):,900,,
End wavelength (nm):,1700,,
Pattern Pixel Width (nm):,   7.03,,,,
Exposure (ms):,  0.635,,,,
Digital Resolution:,228,,
Num Repeats:,6,,
PGA Gain:,64,,
Total Measurement Time in sec:,  2.733,,
Wavelength (nm),Absorbance (AU),Reference Signal (unitless),Sample Signal (unitless)
901.51,0.069745,108485,92390
905.376,0.075670,121306,101909
909.237,0.078582,131909,110076
913.095,0.078476,143299,119610
916.948,0.080359,156982,130464
922.079,0.081585,179937,149120
925.923,0.083225,200504,165538
929.762,0.083590,222660,183676
933.597,0.082975,244426,201917
937.427,0.081985,263972,218561
941.254,0.081274,281845,233742
945.076,0.080985,297271,246699
950.165,0.080692,315605,262091
953.978,0.079603,328029,273092
957.786,0.078894,340470,283913
961.59,0.079536,352317,293358
965.389,0.079514,363056,302315
969.185,0.080536,373162,310000
972.976,0.080270,382632,318062
976.763,0.080828,391202,324768
981.806,0.081361,400190,331822
985.583,0.082010,406088,336210
989.355,0.082329,410162,339333
993.124,0.082886,412868,341134
996.888,0.083330,414263,341937
1000.65,0.083766,415476,342594
1004.4,0.084254,415479,342212
1009.41,0.086459,414358,339560
1013.15,0.086418,412923,338416
1016.89,0.087130,411526,336719
1020.63,0.086711,409066,335029
1024.36,0.086990,406777,332940
1028.09,0.086733,404427,331213
1031.82,0.086945,401911,328992
1036.78,0.085913,398410,326902
1040.49,0.086641,396204,324547
1044.2,0.086304,394236,323186
1047.91,0.085671,392042,321856
1051.61,0.085483,389823,320173
1055.31,0.085504,388234,318852
1059,0.085005,387599,318697
1063.92,0.084079,386688,318626
1067.61,0.082817,386598,319479
1071.29,0.082672,387377,320230
1074.96,0.082442,388536,321358
1078.63,0.081558,389855,323106
1082.3,0.080921,391215,324709
1085.96,0.080149,393215,326950
1090.84,0.079459,396270,330014
1094.49,0.078957,398760,332472
1098.14,0.078069,400987,335013
1101.79,0.077766,403477,337328
1105.43,0.077574,406116,339685
1109.06,0.076368,407701,341959
1112.7,0.076767,409859,343453
1117.53,0.076846,412494,345598
1121.15,0.075896,414909,348383
1124.77,0.077064,416559,348829
1128.38,0.077612,418532,350039
1131.99,0.078519,419956,350497
1135.6,0.080456,421946,350591
1139.2,0.081544,423881,351318
1143.99,0.083993,426786,351736
1147.58,0.084036,428617,353210
1151.17,0.085439,431169,354167
1154.75,0.086365,433579,355388
1158.33,0.088063,436264,356194
1161.91,0.089978,439132,356958
1165.48,0.091627,442389,358243
1169.04,0.094148,446101,359158
1173.79,0.097386,451929,361147
1177.34,0.099383,456026,362749
1180.9,0.101483,461306,365179
1184.44,0.103144,467657,368794
1187.99,0.104139,473969,372916
1191.52,0.104422,479856,377302
1195.06,0.104300,487372,383319
1199.76,0.103853,497347,391567
1203.29,0.102874,504311,397946
1206.81,0.102290,511507,404168
1210.33,0.101735,519078,410674
1213.84,0.101635,527163,417167
1217.35,0.100284,534208,424059
1220.85,0.099608,540472,429700
1225.51,0.099146,549929,437684
1229.01,0.098926,556888,443447
1232.5,0.098076,562180,448538
1235.98,0.097439,567975,453827
1239.46,0.096257,574815,460544
1242.94,0.095495,582782,467747
1246.41,0.095045,591476,475217
1251.03,0.094876,604016,485481
1254.5,0.095018,612289,491970
1257.96,0.095744,619125,496632
1261.41,0.095707,624551,501027
1264.86,0.096208,629900,504735
1268.31,0.096874,634345,507518
1271.75,0.097771,638574,509847
1276.33,0.097585,642499,513201
1279.76,0.097814,645905,515650
1283.19,0.097216,648307,518280
1286.61,0.097261,650446,519936
1290.03,0.096381,652132,522341
1293.44,0.096282,653907,523883
1296.85,0.096098,655963,525752
1301.39,0.095789,657349,527238
1304.8,0.095747,657558,527457
1308.19,0.095928,658515,528005
1311.58,0.096222,658804,527879
1314.97,0.096755,659011,527397
1318.36,0.097051,658272,526447
1321.73,0.097350,658022,525884
1326.23,0.098263,657870,524659
1329.6,0.099547,656482,522006
1332.97,0.100294,654926,519874
1336.33,0.101358,653727,517653
1339.69,0.103060,652497,514658
1343.04,0.104472,649913,510956
1346.39,0.106886,647671,506371
1349.73,0.109016,645338,502078
1354.18,0.111495,641175,496000
1357.52,0.113665,638376,491373
1360.85,0.115759,635805,487040
1364.17,0.117461,633413,483310
1367.49,0.120083,631026,478591
1370.81,0.122223,628050,473992
1374.12,0.124078,625034,469706
1378.54,0.127222,620272,462765
1381.84,0.130515,616892,456766
1385.14,0.134263,613613,450434
1388.43,0.138182,611526,444870
1391.72,0.142990,610663,439351
1395.01,0.147895,610634,434396
1398.29,0.152690,611700,430376
1402.66,0.159743,614051,425071
1405.93,0.165863,616268,420636
1409.2,0.171399,617795,416337
1412.46,0.176144,618872,412531
1415.72,0.180273,619795,409237
1418.98,0.184363,620495,405859
1422.23,0.188241,621087,402635
1426.56,0.192331,621375,399046
1429.8,0.194789,621616,396948
1433.04,0.197727,622129,394597
1436.27,0.199560,621526,392554
1439.5,0.201397,621113,390637
1442.72,0.204569,620921,387675
1445.94,0.206431,620270,385611
1450.23,0.209588,618860,381948
1453.44,0.212034,617697,379089
1456.64,0.214986,616264,375648
1459.85,0.217832,614413,372073
1463.04,0.220255,612307,368735
1466.24,0.223537,610032,364599
1469.43,0.226522,607345,360507
1473.67,0.231812,603789,354057
1476.85,0.236710,601175,348571
1480.02,0.242389,597737,342075
1483.19,0.247645,594479,336118
1486.36,0.252625,591232,330471
1489.52,0.257300,587853,325064
1492.68,0.260694,583875,320351
1496.89,0.262536,578062,315819
1500.03,0.262782,574159,313509
1503.18,0.263122,570285,311150
1506.32,0.261638,565444,309565
1509.45,0.260159,560571,307944
1512.58,0.258891,555821,306227
1515.71,0.256688,550344,304752
1519.87,0.253656,543983,303340
1522.99,0.251256,538764,302094
1526.1,0.248838,533692,300921
1529.21,0.246769,527902,299078
1532.32,0.243639,521886,297808
1535.42,0.240231,515888,296705
1538.51,0.237861,509987,294916
1541.6,0.234986,503936,293352
1545.72,0.230265,494694,291120
1548.8,0.227492,488378,289244
1551.88,0.225226,481832,286860
1554.95,0.223189,474989,284115
1558.02,0.221590,467818,280858
1561.08,0.220879,460730,277056
1564.15,0.219450,454170,274011
1568.22,0.219020,444181,268250
1571.27,0.218435,436947,264237
1574.32,0.217585,429598,260302
1577.36,0.215930,422039,256698
1580.4,0.214897,414375,252637
1583.43,0.213218,406354,248706
1586.46,0.211739,398475,244716
1590.49,0.209716,388982,240001
1593.51,0.207461,380708,236119
1596.53,0.205746,372727,232084
1599.54,0.202899,365060,228805
1602.55,0.201559,357543,224786
1605.55,0.200592,349495,220216
1608.55,0.198121,341154,216187
1612.54,0.195837,330877,210780
1615.53,0.193899,322904,206621
1618.51,0.193773,315116,201696
1621.49,0.191540,307217,197654
1624.47,0.190952,299481,192938
1627.44,0.188973,292112,189050
1630.41,0.188219,284245,184278
1634.36,0.186854,274079,178247
1637.32,0.186382,266916,173777
1640.27,0.186374,259612,169025
1643.22,0.185888,251804,164125
1646.16,0.183769,244348,160044
1649.1,0.183284,236703,155210
1652.04,0.183210,228171,149641
1655.95,0.178911,215408,142676
1658.88,0.174149,204937,137237
1661.8,0.170778,193395,130517
1664.72,0.162917,179728,123509
1667.63,0.149871,163642,115884
1670.54,0.135880,146312,107004
1673.44,0.120214,128451,97392
1677.31,0.102992,105080,82895
1680.21,0.089246,88906,72391
1683.1,0.086540,75033,61477
1685.99,0.088287,63520,51835
1688.87,0.086191,53714,44045
1691.75,0.095265,45653,36661
1694.62,0.096683,39137,31326
1697.49,0.100879,33776,26775
1701.31,0.109618,28175,21890

File: Column 1_050585_20150331_121616.csv
Method:,Column 1,,
Host Date-Time:,31/3/15 @ 12:16:16,,
Header Version:,1,,
System Temp (C):,33.76,,
Detector Temp (C):,34.57,,
Humidity (%):,1.86,,
Lamp PD:,3819,,
Shift Vector Coefficients:,-10.5391,0.0761263,-0.000134223,,
Pixel to Wavelength Coefficients:,1775.68,-0.916766,-0.000235065,,
Serial Number:,5510004,,
Scan Config Name:,Column 1,,
Scan Config Type:,Slew,,
Section 1,,
Start wavelength (nm):,900,,
End wavelength (nm):,1700,,
Pattern Pixel Width (nm):,   7.03,,,,
Exposure (ms):,  0.635,,,,
Digital Resolution:,228,,
Num Repeats:,6,,
PGA Gain:,64,,
Total Measurement Time in sec:,  2.723,,
Wavelength (nm),Absorbance (AU),Reference Signal (unitless),Sample Signal (unitless)
901.51,0.071200,108485,92081
905.376,0.077331,121306,101520
909.237,0.079636,131909,109809
913.095,0.079468,143299,119337
916.948,0.080229,156982,130503
922.079,0.081023,179937,149313
925.923,0.082554,200504,165794
929.762,0.084527,222660,183280
933.597,0.083959,244426,201460
937.427,0.082536,263972,218284
941.254,0.082233,281845,233226
945.076,0.081001,297271,246690
950.165,0.080601,315605,262146
953.978,0.079503,328029,273155
957.786,0.079898,340470,283257
961.59,0.080376,352317,292791
965.389,0.079481,363056,302338
969.185,0.080345,373162,310136
972.976,0.080662,382632,317775
976.763,0.081190,391202,324497
981.806,0.081754,400190,331522
985.583,0.081489,406088,336613
989.355,0.082827,410162,338944
993.124,0.083064,412868,340994
996.888,0.083382,414263,341896
1000.65,0.083799,415476,342568
1004.4,0.085464,415479,341260
1009.41,0.086292,414358,339691
1013.15,0.087008,412923,337957
1016.89,0.087183,411526,336678
1020.63,0.087105,409066,334725
1024.36,0.087576,406777,332491
1028.09,0.086519,404427,331376
1031.82,0.086652,401911,329214
1036.78,0.086736,398410,326283
1040.49,0.087247,396204,324095
1044.2,0.086778,394236,322833
1047.91,0.085952,392042,321648
1051.61,0.085598,389823,320088
1055.31,0.085010,388234,319215
1059,0.084977,387599,318717
1063.92,0.084078,386688,318627
1067.61,0.083492,386598,318983
1071.29,0.082684,387377,320221
1074.96,0.082640,388536,321212
1078.63,0.082042,389855,322746
1082.3,0.081027,391215,324630
1085.96,0.080707,393215,326530
1090.84,0.079413,396270,330049
1094.49,0.078762,398760,332621
1098.14,0.079010,400987,334288
1101.79,0.077837,403477,337273
1105.43,0.077908,406116,339424
1109.06,0.077356,407701,341182
1112.7,0.076430,409859,343720
1117.53,0.076235,412494,346085
1121.15,0.076782,414909,347673
1124.77,0.076820,416559,349025
1128.38,0.078511,418532,349315
1131.99,0.078863,419956,350220
1135.6,0.080096,421946,350882
1139.2,0.081654,423881,351229
1143.99,0.083897,426786,351814
1147.58,0.084577,428617,352771
1151.17,0.085415,431169,354187
1154.75,0.086906,433579,354946
1158.33,0.088449,436264,355877
1161.91,0.089907,439132,357016
1165.48,0.092323,442389,357669
1169.04,0.094186,446101,359126
1173.79,0.097622,451929,360951
1177.34,0.099662,456026,362516
1180.9,0.101500,461306,365165
1184.44,0.103191,467657,368754
1187.99,0.104371,473969,372717
1191.52,0.104245,479856,377456
1195.06,0.104852,487372,382832
1199.76,0.103455,497347,391926
1203.29,0.102600,504311,398197
1206.81,0.102433,511507,404035
1210.33,0.101863,519078,410553
1213.84,0.101226,527163,417560
1217.35,0.100512,534208,423837
1220.85,0.100137,540472,429177
1225.51,0.099739,549929,437087
1229.01,0.098844,556888,443531
1232.5,0.098355,562180,448250
1235.98,0.098010,567975,453231
1239.46,0.096841,574815,459925
1242.94,0.095588,582782,467647
1246.41,0.095131,591476,475123
1251.03,0.095137,604016,485189
1254.5,0.095647,612289,491258
1257.96,0.095535,619125,496871
1261.41,0.096213,624551,500443
1264.86,0.096721,629900,504139
1268.31,0.097218,634345,507116
1271.75,0.097888,638574,509710
1276.33,0.098092,642499,512602
1279.76,0.097822,645905,515640
1283.19,0.097130,648307,518383
1286.61,0.096942,650446,520318
1290.03,0.096922,652132,521691
1293.44,0.096185,653907,524000
1296.85,0.096327,655963,525475
1301.39,0.095966,657349,527024
1304.8,0.096117,657558,527008
1308.19,0.096319,658515,527530
1311.58,0.095981,658804,528172
1314.97,0.096869,659011,527258
1318.36,0.097027,658272,526476
1321.73,0.097640,658022,525533
1326.23,0.098552,657870,524310
1329.6,0.099615,656482,521925
1332.97,0.100348,654926,519809
1336.33,0.101395,653727,517608
1339.69,0.102991,652497,514740
1343.04,0.104729,649913,510653
1346.39,0.106718,647671,506567
1349.73,0.108877,645338,502239
1354.18,0.111747,641175,495712
1357.52,0.114124,638376,490854
1360.85,0.115832,635805,486959
1364.17,0.117956,633413,482760
1367.49,0.119633,631026,479087
1370.81,0.122129,628050,474095
1374.12,0.124376,625034,469383
1378.54,0.127224,620272,462763
1381.84,0.130687,616892,456585
1385.14,0.134434,613613,450257
1388.43,0.138266,611526,444784
1391.72,0.143161,610663,439178
1395.01,0.148279,610634,434012
1398.29,0.153082,611700,429988
1402.66,0.159664,614051,425148
1405.93,0.165783,616268,420714
1409.2,0.170799,617795,416913
1412.46,0.176161,618872,412515
1415.72,0.180474,619795,409048
1418.98,0.184676,620495,405567
1422.23,0.187909,621087,402943
1426.56,0.192181,621375,399184
1429.8,0.194151,621616,397531
1433.04,0.197879,622129,394459
1436.27,0.199584,621526,392532
1439.5,0.201583,621113,390470
1442.72,0.204256,620921,387954
1445.94,0.206519,620270,385533
1450.23,0.209453,618860,382067
1453.44,0.212589,617697,378605
1456.64,0.215099,616264,375550
1459.85,0.217622,614413,372253
1463.04,0.220229,612307,368757
1466.24,0.223634,610032,364518
1469.43,0.226369,607345,360634
1473.67,0.232121,603789,353805
1476.85,0.236687,601175,348589
1480.02,0.242107,597737,342297
1483.19,0.247410,594479,336300
1486.36,0.252810,591232,330330
1489.52,0.257349,587853,325027
1492.68,0.260192,583875,320721
1496.89,0.262546,578062,315812
1500.03,0.263088,574159,313288
1503.18,0.262916,570285,311298
1506.32,0.262039,565444,309279
1509.45,0.260311,560571,307836
1512.58,0.259263,555821,305965
1515.71,0.256852,550344,304637
1519.87,0.254065,543983,303054
1522.99,0.251944,538764,301616
1526.1,0.249082,533692,300752
1529.21,0.246177,527902,299486
1532.32,0.243458,521886,297932
1535.42,0.240727,515888,296366
1538.51,0.237849,509987,294924
1541.6,0.234687,503936,293554
1545.72,0.230932,494694,290673
1548.8,0.228087,488378,288848
1551.88,0.225350,481832,286778
1554.95,0.223563,474989,283871
1558.02,0.221783,467818,280733
1561.08,0.220987,460730,276987
1564.15,0.220536,454170,273327
1568.22,0.218891,444181,268330
1571.27,0.218733,436947,264056
1574.32,0.217041,429598,260628
1577.36,0.215893,422039,256720
1580.4,0.215235,414375,252440
1583.43,0.213367,406354,248621
1586.46,0.211157,398475,245044
1590.49,0.209706,388982,240007
1593.51,0.208247,380708,235692
1596.53,0.205381,372727,232279
1599.54,0.204868,365060,227770
1602.55,0.201175,357543,224985
1605.55,0.200391,349495,220318
1608.55,0.198923,341154,215788
1612.54,0.196023,330877,210690
1615.53,0.195658,322904,205786
1618.51,0.194187,315116,201504
1621.49,0.192483,307217,197225
1624.47,0.190988,299481,192922
1627.44,0.190432,292112,188416
1630.41,0.188941,284245,183972
1634.36,0.186610,274079,178347
1637.32,0.186210,266916,173846
1640.27,0.187640,259612,168533
1643.22,0.185285,251804,164353
1646.16,0.185120,244348,159547
1649.1,0.184582,236703,154747
1652.04,0.183111,228171,149675
1655.95,0.179316,215408,142543
1658.88,0.177344,204937,136231
1661.8,0.171524,193395,130293
1664.72,0.161373,179728,123949
1667.63,0.151309,163642,115501
1670.54,0.138085,146312,106462
1673.44,0.121773,128451,97043
1677.31,0.101559,105080,83169
1680.21,0.091183,88906,72069
1683.1,0.086144,75033,61533
1685.99,0.090311,63520,51594
1688.87,0.094383,53714,43222
1691.75,0.092525,45653,36893
1694.62,0.104389,39137,30775
1697.49,0.102585,33776,26670
1701.31,0.111427,28175,21799

File: Column 1_050585_20150331_121622.csv
Method:,Column 1,,
Host Date-Time:,31/3/15 @ 12:16:22,,
Header Version:,1,,
System Temp (C):,33.77,,
Detector Temp (C):,34.51,,
Humidity (%):,1.86,,
Lamp PD:,3819,,
Shift Vector Coefficients:,-10.5391,0.0761263,-0.000134223,,
Pixel to Wavelength Coefficients:,1775.68,-0.916766,-0.000235065,,
Serial Number:,5510004,,
Scan Config Name:,Column 1,,
Scan Config Type:,Slew,,
Section 1,,
Start wavelength (nm):,900,,
End wavelength (nm):,1700,,
Pattern Pixel Width (nm):,   7.03,,,,
Exposure (ms):,  0.635,,,,
Digital Resolution:,228,,
Num Repeats:,6,,
PGA Gain:,64,,
Total Measurement Time in sec:,  2.677,,
Wavelength (nm),Absorbance (AU),Reference Signal (unitless),Sample Signal (unitless)
901.51,0.069933,108485,92350
905.376,0.075555,121306,101936
909.237,0.080500,131909,109591
913.095,0.079453,143299,119341
916.948,0.080426,156982,130444
922.079,0.083160,179937,148580
925.923,0.082670,200504,165750
929.762,0.083812,222660,183582
933.597,0.083476,244426,201684
937.427,0.081860,263972,218624
941.254,0.081285,281845,233736
945.076,0.081316,297271,246511
950.165,0.079996,315605,262511
953.978,0.078926,328029,273518
957.786,0.079613,340470,283443
961.59,0.080625,352317,292623
965.389,0.079807,363056,302111
969.185,0.080069,373162,310333
972.976,0.080215,382632,318102
976.763,0.080812,391202,324780
981.806,0.081234,400190,331919
985.583,0.081715,406088,336438
989.355,0.082269,410162,339380
993.124,0.082847,412868,341165
996.888,0.083532,414263,341778
1000.65,0.083942,415476,342455
1004.4,0.085350,415479,341349
1009.41,0.086459,414358,339560
1013.15,0.086543,412923,338319
1016.89,0.087478,411526,336449
1020.63,0.086580,409066,335130
1024.36,0.087108,406777,332850
1028.09,0.086735,404427,331211
1031.82,0.086745,401911,329143
1036.78,0.086664,398410,326337
1040.49,0.086467,396204,324677
1044.2,0.086380,394236,323129
1047.91,0.085799,392042,321761
1051.61,0.085388,389823,320243
1055.31,0.085031,388234,319200
1059,0.084806,387599,318843
1063.92,0.083849,386688,318795
1067.61,0.082980,386598,319359
1071.29,0.083046,387377,319954
1074.96,0.082677,388536,321184
1078.63,0.081941,389855,322821
1082.3,0.081056,391215,324608
1085.96,0.080129,393215,326965
1090.84,0.079959,396270,329634
1094.49,0.078364,398760,332926
1098.14,0.078433,400987,334732
1101.79,0.078063,403477,337098
1105.43,0.077514,406116,339732
1109.06,0.076826,407701,341598
1112.7,0.076254,409859,343859
1117.53,0.076241,412494,346080
1121.15,0.076746,414909,347702
1124.77,0.077610,416559,348391
1128.38,0.077613,418532,350038
1131.99,0.078966,419956,350137
1135.6,0.080542,421946,350522
1139.2,0.082231,423881,350762
1143.99,0.083607,426786,352049
1147.58,0.084770,428617,352614
1151.17,0.085783,431169,353887
1154.75,0.087105,433579,354783
1158.33,0.088521,436264,355818
1161.91,0.090486,439132,356541
1165.48,0.092210,442389,357762
1169.04,0.094188,446101,359125
1173.79,0.097207,451929,361296
1177.34,0.099203,456026,362900
1180.9,0.101532,461306,365138
1184.44,0.103378,467657,368595
1187.99,0.104331,473969,372751
1191.52,0.104538,479856,377201
1195.06,0.104318,487372,383303
1199.76,0.103218,497347,392140
1203.29,0.103045,504311,397790
1206.81,0.102528,511507,403946
1210.33,0.102170,519078,410263
1213.84,0.101377,527163,417415
1217.35,0.100816,534208,423540
1220.85,0.100048,540472,429265
1225.51,0.099330,549929,437499
1229.01,0.098640,556888,443739
1232.5,0.098345,562180,448260
1235.98,0.097828,567975,453421
1239.46,0.096369,574815,460425
1242.94,0.095339,582782,467915
1246.41,0.095189,591476,475060
1251.03,0.095118,604016,485211
1254.5,0.095254,612289,491703
1257.96,0.095642,619125,496748
1261.41,0.095708,624551,501026
1264.86,0.096348,629900,504573
1268.31,0.097058,634345,507303
1271.75,0.098105,638574,509455
1276.33,0.098169,642499,512511
1279.76,0.097873,645905,515580
1283.19,0.097719,648307,517680
1286.61,0.097054,650446,520184
1290.03,0.096706,652132,521951
1293.44,0.096283,653907,523882
1296.85,0.095937,655963,525948
1301.39,0.095665,657349,527389
1304.8,0.095866,657558,527313
1308.19,0.096221,658515,527649
1311.58,0.095689,658804,528527
1314.97,0.096626,659011,527554
1318.36,0.097024,658272,526479
1321.73,0.097510,658022,525691
1326.23,0.098821,657870,523985
1329.6,0.099291,656482,522314
1332.97,0.100186,654926,520004
1336.33,0.101653,653727,517301
1339.69,0.102936,652497,514805
1343.04,0.104487,649913,510938
1346.39,0.106573,647671,506736
1349.73,0.108688,645338,502457
1354.18,0.111688,641175,495780
1357.52,0.114045,638376,490944
1360.85,0.115643,635805,487170
1364.17,0.117315,633413,483473
1367.49,0.119609,631026,479113
1370.81,0.121805,628050,474449
1374.12,0.124200,625034,469574
1378.54,0.127188,620272,462801
1381.84,0.130521,616892,456760
1385.14,0.134340,613613,450355
1388.43,0.138273,611526,444777
1391.72,0.143224,610663,439114
1395.01,0.147866,610634,434425
1398.29,0.152150,611700,430912
1402.66,0.160155,614051,424668
1405.93,0.165612,616268,420879
1409.2,0.170556,617795,417146
1412.46,0.175871,618872,412791
1415.72,0.180758,619795,408780
1418.98,0.184469,620495,405760
1422.23,0.187493,621087,403329
1426.56,0.191792,621375,399541
1429.8,0.194576,621616,397142
1433.04,0.197173,622129,395100
1436.27,0.199301,621526,392788
1439.5,0.201265,621113,390756
1442.72,0.203821,620921,388343
1445.94,0.206247,620270,385775
1450.23,0.209423,618860,382093
1453.44,0.212812,617697,378411
1456.64,0.214766,616264,375838
1459.85,0.217308,614413,372522
1463.04,0.219924,612307,369016
1466.24,0.222898,610032,365136
1469.43,0.226834,607345,360248
1473.67,0.231460,603789,354344
1476.85,0.236416,601175,348807
1480.02,0.241649,597737,342658
1483.19,0.248207,594479,335683
1486.36,0.253119,591232,330095
1489.52,0.257534,587853,324889
1492.68,0.260379,583875,320583
1496.89,0.261962,578062,316237
1500.03,0.262944,574159,313392
1503.18,0.262769,570285,311403
1506.32,0.261799,565444,309450
1509.45,0.260685,560571,307571
1512.58,0.258764,555821,306317
1515.71,0.257144,550344,304432
1519.87,0.253654,543983,303341
1522.99,0.251472,538764,301944
1526.1,0.248553,533692,301119
1529.21,0.245896,527902,299680
1532.32,0.243631,521886,297814
1535.42,0.240499,515888,296522
1538.51,0.237449,509987,295196
1541.6,0.235072,503936,293294
1545.72,0.231066,494694,290583
1548.8,0.228467,488378,288595
1551.88,0.226332,481832,286130
1554.95,0.223824,474989,283700
1558.02,0.221740,467818,280761
1561.08,0.221045,460730,276950
1564.15,0.219936,454170,273705
1568.22,0.218943,444181,268298
1571.27,0.218483,436947,264208
1574.32,0.216585,429598,260902
1577.36,0.216309,422039,256474
1580.4,0.214852,414375,252663
1583.43,0.213468,406354,248563
1586.46,0.210912,398475,245182
1590.49,0.209745,388982,239985
1593.51,0.207570,380708,236060
1596.53,0.205776,372727,232068
1599.54,0.203396,365060,228543
1602.55,0.201067,357543,225041
1605.55,0.199891,349495,220572
1608.55,0.198515,341154,215991
1612.54,0.196293,330877,210559
1615.53,0.194021,322904,206563
1618.51,0.192807,315116,202145
1621.49,0.191096,307217,197856
1624.47,0.190801,299481,193005
1627.44,0.189398,292112,188865
1630.41,0.189106,284245,183902
1634.36,0.188135,274079,177722
1637.32,0.187228,266916,173439
1640.27,0.186374,259612,169025
1643.22,0.185248,251804,164367
1646.16,0.184356,244348,159828
1649.1,0.183430,236703,155158
1652.04,0.181703,228171,150161
1655.95,0.180097,215408,142287
1658.88,0.175890,204937,136688
1661.8,0.168611,193395,131170
1664.72,0.162545,179728,123615
1667.63,0.150802,163642,115636
1670.54,0.138098,146312,106459
1673.44,0.121979,128451,96997
1677.31,0.102934,105080,82906
1680.21,0.090990,88906,72101
1683.1,0.087190,75033,61385
1685.99,0.088044,63520,51864
1688.87,0.095177,53714,43143
1691.75,0.092949,45653,36857
1694.62,0.100023,39137,31086
1697.49,0.101414,33776,26742
1701.31,0.120670,28175,21340