Folder: textile_sorting_NIRSCAN_/samples/wool/wool-000811 (part 79)

File: Column 1_050573_20150331_121052.csv
Method:,Column 1,,
Host Date-Time:,31/3/15 @ 12:10:52,,
Header Version:,1,,
System Temp (C):,34.16,,
Detector Temp (C):,34.3,,
Humidity (%):,1.76,,
Lamp PD:,3818,,
Shift Vector Coefficients:,-10.5391,0.0761263,-0.000134223,,
Pixel to Wavelength Coefficients:,1775.68,-0.916766,-0.000235065,,
Serial Number:,5510004,,
Scan Config Name:,Column 1,,
Scan Config Type:,Slew,,
Section 1,,
Start wavelength (nm):,900,,
End wavelength (nm):,1700,,
Pattern Pixel Width (nm):,   7.03,,,,
Exposure (ms):,  0.635,,,,
Digital Resolution:,228,,
Num Repeats:,6,,
PGA Gain:,64,,
Total Measurement Time in sec:,  2.666,,
Wavelength (nm),Absorbance (AU),Reference Signal (unitless),Sample Signal (unitless)
901.51,0.033506,108485,100430
905.376,0.039727,121306,110702
909.237,0.041568,131909,119869
913.095,0.043725,143299,129574
916.948,0.043770,156982,141932
922.079,0.046722,179937,161584
925.923,0.048037,200504,179509
929.762,0.048948,222660,198927
933.597,0.049605,244426,218043
937.427,0.048765,263972,235935
941.254,0.048121,281845,252284
945.076,0.046682,297271,266975
950.165,0.047222,315605,283088
953.978,0.046076,328029,295010
957.786,0.046042,340470,306222
961.59,0.046915,352317,316241
965.389,0.047024,363056,325799
969.185,0.046908,373162,334957
972.976,0.047281,382632,343163
976.763,0.047825,391202,350410
981.806,0.048247,400190,358112
985.583,0.048974,406088,362782
989.355,0.049395,410162,366067
993.124,0.049889,412868,368063
996.888,0.050546,414263,368748
1000.65,0.051425,415476,369080
1004.4,0.052049,415479,368553
1009.41,0.053993,414358,365917
1013.15,0.054589,412923,364150
1016.89,0.054803,411526,362739
1020.63,0.054819,409066,360557
1024.36,0.055122,406777,358290
1028.09,0.055251,404427,356114
1031.82,0.053984,401911,354933
1036.78,0.053946,398410,351872
1040.49,0.053041,396204,350653
1044.2,0.053444,394236,348588
1047.91,0.052512,392042,347393
1051.61,0.052673,389823,345298
1055.31,0.051516,388234,344808
1059,0.051085,387599,344586
1063.92,0.049899,386688,344716
1067.61,0.049379,386598,345049
1071.29,0.048991,387377,346053
1074.96,0.048265,388536,347669
1078.63,0.047475,389855,349485
1082.3,0.047193,391215,350932
1085.96,0.045972,393215,353719
1090.84,0.045727,396270,356668
1094.49,0.045350,398760,359221
1098.14,0.045080,400987,361452
1101.79,0.045091,403477,363687
1105.43,0.044244,406116,366780
1109.06,0.043962,407701,368451
1112.7,0.044107,409859,370278
1117.53,0.043888,412494,372846
1121.15,0.044688,414909,374339
1124.77,0.045374,416559,375234
1128.38,0.046804,418532,375772
1131.99,0.047682,419956,376289
1135.6,0.050148,421946,375932
1139.2,0.051079,423881,376847
1143.99,0.053971,426786,376911
1147.58,0.054689,428617,377903
1151.17,0.056155,431169,378872
1154.75,0.057675,433579,379659
1158.33,0.059132,436264,380730
1161.91,0.060915,439132,381663
1165.48,0.063644,442389,382085
1169.04,0.066267,446101,382971
1173.79,0.069550,451929,385053
1177.34,0.072040,456026,386322
1180.9,0.074033,461306,389006
1184.44,0.076136,467657,392456
1187.99,0.077302,473969,396687
1191.52,0.076740,479856,402134
1195.06,0.076580,487372,408583
1199.76,0.075837,497347,417660
1203.29,0.074678,504311,424640
1206.81,0.074178,511507,431195
1210.33,0.073321,519078,438441
1213.84,0.072682,527163,445926
1217.35,0.072178,534208,452410
1220.85,0.071084,540472,458870
1225.51,0.070541,549929,467483
1229.01,0.069422,556888,474620
1232.5,0.069048,562180,479543
1235.98,0.067971,567975,485689
1239.46,0.067296,574815,492303
1242.94,0.066027,582782,500586
1246.41,0.065524,591476,508643
1251.03,0.065751,604016,519156
1254.5,0.065623,612289,526421
1257.96,0.066332,619125,531430
1261.41,0.067003,624551,535260
1264.86,0.067159,629900,539651
1268.31,0.068182,634345,542180
1271.75,0.068646,638574,545212
1276.33,0.068942,642499,548189
1279.76,0.068909,645905,551137
1283.19,0.068464,648307,553754
1286.61,0.067821,650446,556404
1290.03,0.067332,652132,558475
1293.44,0.066947,653907,560492
1296.85,0.066883,655963,562336
1301.39,0.066675,657349,563795
1304.8,0.066412,657558,564315
1308.19,0.067302,658515,563980
1311.58,0.067116,658804,564469
1314.97,0.067286,659011,564426
1318.36,0.067971,658272,562904
1321.73,0.068029,658022,562615
1326.23,0.068875,657870,561391
1329.6,0.070088,656482,558643
1332.97,0.070784,654926,556427
1336.33,0.071836,653727,554065
1339.69,0.073686,652497,550671
1343.04,0.075324,649913,546426
1346.39,0.077250,647671,542131
1349.73,0.079722,645338,537112
1354.18,0.082908,641175,529747
1357.52,0.085390,638376,524429
1360.85,0.087408,635805,519895
1364.17,0.089444,633413,515517
1367.49,0.091986,631026,510577
1370.81,0.094514,628050,505220
1374.12,0.096703,625034,500266
1378.54,0.100127,620272,492556
1381.84,0.103022,616892,486617
1385.14,0.107196,613613,479401
1388.43,0.111366,611526,473205
1391.72,0.115897,610663,467632
1395.01,0.120726,610634,462440
1398.29,0.125627,611700,458049
1402.66,0.132538,614051,452550
1405.93,0.138170,616268,448332
1409.2,0.143386,617795,444077
1412.46,0.148734,618872,439407
1415.72,0.152726,619795,436036
1418.98,0.156579,620495,432672
1422.23,0.160619,621087,429075
1426.56,0.164437,621375,425517
1429.8,0.167467,621616,422722
1433.04,0.170606,622129,420024
1436.27,0.172395,621526,417892
1439.5,0.174125,621113,415954
1442.72,0.176897,620921,413180
1445.94,0.179722,620270,410071
1450.23,0.183554,618860,405544
1453.44,0.186335,617697,402199
1456.64,0.189487,616264,398364
1459.85,0.192388,614413,394523
1463.04,0.195320,612307,390525
1466.24,0.198974,610032,385815
1469.43,0.202418,607345,381081
1473.67,0.208764,603789,373354
1476.85,0.214556,601175,366813
1480.02,0.220907,597737,359421
1483.19,0.227878,594479,351770
1486.36,0.234116,591232,344859
1489.52,0.239668,587853,338533
1492.68,0.243223,583875,333501
1496.89,0.246279,578062,327865
1500.03,0.246302,574159,325634
1503.18,0.246145,570285,323554
1506.32,0.245845,565444,321029
1509.45,0.244576,560571,319194
1512.58,0.242537,555821,317979
1515.71,0.240317,550344,316459
1519.87,0.237196,543983,315057
1522.99,0.234416,538764,314038
1526.1,0.231823,533692,312945
1529.21,0.228219,527902,312129
1532.32,0.226147,521886,310048
1535.42,0.222764,515888,308881
1538.51,0.219214,509987,307854
1541.6,0.216939,503936,305799
1545.72,0.211230,494694,304163
1548.8,0.208335,488378,302288
1551.88,0.206005,481832,299841
1554.95,0.204148,474989,296849
1558.02,0.201982,467818,293829
1561.08,0.200084,460730,290645
1564.15,0.199686,454170,286769
1568.22,0.199318,444181,280700
1571.27,0.198024,436947,276952
1574.32,0.197383,429598,272696
1577.36,0.195723,422039,268924
1580.4,0.194339,414375,264883
1583.43,0.192922,406354,260605
1586.46,0.190855,398475,256771
1590.49,0.188574,388982,251974
1593.51,0.186652,380708,247708
1596.53,0.184370,372727,243793
1599.54,0.182301,365060,239918
1602.55,0.180140,357543,236150
1605.55,0.178206,349495,231865
1608.55,0.174958,341154,228030
1612.54,0.173546,330877,221881
1615.53,0.170446,322904,218086
1618.51,0.169938,315116,213075
1621.49,0.169244,307217,208066
1624.47,0.167809,299481,203498
1627.44,0.166138,292112,199256
1630.41,0.166200,284245,193862
1634.36,0.164569,274079,187632
1637.32,0.162807,266916,183471
1640.27,0.162633,259612,178522
1643.22,0.161005,251804,173803
1646.16,0.160212,244348,168965
1649.1,0.158963,236703,164150
1652.04,0.158434,228171,158426
1655.95,0.154708,215408,150853
1658.88,0.151146,204937,144702
1661.8,0.148136,193395,137502
1664.72,0.139615,179728,130317
1667.63,0.129737,163642,121383
1670.54,0.115589,146312,112122
1673.44,0.102122,128451,101535
1677.31,0.086335,105080,86136
1680.21,0.074293,88906,74927
1683.1,0.069881,75033,63881
1685.99,0.073219,63520,53665
1688.87,0.073443,53714,45357
1691.75,0.079629,45653,38005
1694.62,0.086245,39137,32088
1697.49,0.088818,33776,27529
1701.31,0.097122,28175,22529

File: Column 1_050573_20150331_121100.csv
Method:,Column 1,,
Host Date-Time:,31/3/15 @ 12:11:0,,
Header Version:,1,,
System Temp (C):,34.16,,
Detector Temp (C):,34.38,,
Humidity (%):,1.71,,
Lamp PD:,3819,,
Shift Vector Coefficients:,-10.5391,0.0761263,-0.000134223,,
Pixel to Wavelength Coefficients:,1775.68,-0.916766,-0.000235065,,
Serial Number:,5510004,,
Scan Config Name:,Column 1,,
Scan Config Type:,Slew,,
Section 1,,
Start wavelength (nm):,900,,
End wavelength (nm):,1700,,
Pattern Pixel Width (nm):,   7.03,,,,
Exposure (ms):,  0.635,,,,
Digital Resolution:,228,,
Num Repeats:,6,,
PGA Gain:,64,,
Total Measurement Time in sec:,  2.666,,
Wavelength (nm),Absorbance (AU),Reference Signal (unitless),Sample Signal (unitless)
901.51,0.034524,108485,100195
905.376,0.041787,121306,110178
909.237,0.044148,131909,119159
913.095,0.045384,143299,129080
916.948,0.045576,156982,141343
922.079,0.047228,179937,161396
925.923,0.049229,200504,179017
929.762,0.049827,222660,198525
933.597,0.049838,244426,217926
937.427,0.048872,263972,235877
941.254,0.048184,281845,252247
945.076,0.046713,297271,266956
950.165,0.046628,315605,283476
953.978,0.046162,328029,294951
957.786,0.046414,340470,305960
961.59,0.046840,352317,316296
965.389,0.047509,363056,325435
969.185,0.047768,373162,334295
972.976,0.047202,382632,343225
976.763,0.048453,391202,349903
981.806,0.048627,400190,357799
985.583,0.048742,406088,362976
989.355,0.049721,410162,365792
993.124,0.050270,412868,367740
996.888,0.050595,414263,368707
1000.65,0.051618,415476,368916
1004.4,0.053046,415479,367708
1009.41,0.054136,414358,365797
1013.15,0.054529,412923,364200
1016.89,0.055221,411526,362390
1020.63,0.055009,409066,360400
1024.36,0.054627,406777,358698
1028.09,0.054392,404427,356819
1031.82,0.054459,401911,354545
1036.78,0.053894,398410,351914
1040.49,0.054030,396204,349856
1044.2,0.053545,394236,348507
1047.91,0.053262,392042,346793
1051.61,0.052281,389823,345610
1055.31,0.051885,388234,344515
1059,0.051404,387599,344333
1063.92,0.050807,386688,343996
1067.61,0.049258,386598,345145
1071.29,0.049265,387377,345835
1074.96,0.048872,388536,347184
1078.63,0.048137,389855,348952
1082.3,0.046813,391215,351239
1085.96,0.046017,393215,353682
1090.84,0.045512,396270,356845
1094.49,0.045511,398760,359088
1098.14,0.044939,400987,361569
1101.79,0.044777,403477,363950
1105.43,0.044951,406116,366184
1109.06,0.044456,407701,368032
1112.7,0.044006,409859,370364
1117.53,0.044505,412494,372317
1121.15,0.045142,414909,373948
1124.77,0.045408,416559,375205
1128.38,0.046972,418532,375627
1131.99,0.048383,419956,375682
1135.6,0.049890,421946,376155
1139.2,0.051546,423881,376442
1143.99,0.054217,426786,376698
1147.58,0.055044,428617,377594
1151.17,0.056312,431169,378735
1154.75,0.057985,433579,379388
1158.33,0.058803,436264,381019
1161.91,0.061145,439132,381461
1165.48,0.063308,442389,382381
1169.04,0.066071,446101,383144
1173.79,0.069851,451929,384786
1177.34,0.072285,456026,386104
1180.9,0.074123,461306,388925
1184.44,0.076701,467657,391946
1187.99,0.077723,473969,396303
1191.52,0.076859,479856,402024
1195.06,0.076771,487372,408404
1199.76,0.075592,497347,417895
1203.29,0.075014,504311,424311
1206.81,0.074363,511507,431011
1210.33,0.073646,519078,438113
1213.84,0.072697,527163,445911
1217.35,0.072041,534208,452553
1220.85,0.071202,540472,458745
1225.51,0.070195,549929,467855
1229.01,0.069938,556888,474056
1232.5,0.069061,562180,479529
1235.98,0.068203,567975,485430
1239.46,0.067727,574815,491814
1242.94,0.066501,582782,500041
1246.41,0.065869,591476,508239
1251.03,0.065604,604016,519331
1254.5,0.065753,612289,526264
1257.96,0.066112,619125,531700
1261.41,0.066590,624551,535770
1264.86,0.067301,629900,539474
1268.31,0.067862,634345,542580
1271.75,0.068984,638574,544788
1276.33,0.068964,642499,548161
1279.76,0.068777,645905,551305
1283.19,0.068303,648307,553959
1286.61,0.068143,650446,555992
1290.03,0.067790,652132,557886
1293.44,0.067452,653907,559840
1296.85,0.066993,655963,562194
1301.39,0.066722,657349,563734
1304.8,0.066545,657558,564143
1308.19,0.066889,658515,564517
1311.58,0.067205,658804,564354
1314.97,0.067814,659011,563740
1318.36,0.068007,658272,562857
1321.73,0.068601,658022,561875
1326.23,0.068823,657870,561458
1329.6,0.069914,656482,558867
1332.97,0.070676,654926,556566
1336.33,0.072037,653727,553808
1339.69,0.073730,652497,550616
1343.04,0.075512,649913,546189
1346.39,0.077758,647671,541498
1349.73,0.079694,645338,537147
1354.18,0.082982,641175,529657
1357.52,0.085185,638376,524676
1360.85,0.087482,635805,519807
1364.17,0.089913,633413,514960
1367.49,0.092005,631026,510555
1370.81,0.094662,628050,505047
1374.12,0.097110,625034,499797
1378.54,0.100485,620272,492150
1381.84,0.103616,616892,485952
1385.14,0.107014,613613,479602
1388.43,0.111109,611526,473485
1391.72,0.115989,610663,467533
1395.01,0.120600,610634,462574
1398.29,0.125728,611700,457942
1402.66,0.132899,614051,452174
1405.93,0.138276,616268,448222
1409.2,0.143276,617795,444190
1412.46,0.149140,618872,438996
1415.72,0.153153,619795,435607
1418.98,0.156573,620495,432678
1422.23,0.160608,621087,429086
1426.56,0.164794,621375,425167
1429.8,0.167444,621616,422745
1433.04,0.170105,622129,420509
1436.27,0.172311,621526,417973
1439.5,0.174377,621113,415713
1442.72,0.177715,620921,412403
1445.94,0.178974,620270,410778
1450.23,0.183244,618860,405834
1453.44,0.186799,617697,401769
1456.64,0.189623,616264,398239
1459.85,0.192488,614413,394432
1463.04,0.195219,612307,390616
1466.24,0.198665,610032,386089
1469.43,0.202180,607345,381290
1473.67,0.209070,603789,373091
1476.85,0.214928,601175,366499
1480.02,0.220918,597737,359412
1483.19,0.228294,594479,351433
1486.36,0.234469,591232,344579
1489.52,0.240107,587853,338191
1492.68,0.243229,583875,333496
1496.89,0.245940,578062,328121
1500.03,0.246032,574159,325837
1503.18,0.246776,570285,323084
1506.32,0.245927,565444,320969
1509.45,0.244837,560571,319002
1512.58,0.243379,555821,317363
1515.71,0.240597,550344,316255
1519.87,0.237111,543983,315119
1522.99,0.234527,538764,313958
1526.1,0.232260,533692,312630
1529.21,0.228755,527902,311744
1532.32,0.225426,521886,310563
1535.42,0.222378,515888,309156
1538.51,0.219290,509987,307800
1541.6,0.216428,503936,306159
1545.72,0.211729,494694,303814
1548.8,0.208778,488378,301980
1551.88,0.205324,481832,300311
1554.95,0.203601,474989,297223
1558.02,0.202444,467818,293517
1561.08,0.200752,460730,290198
1564.15,0.200474,454170,286249
1568.22,0.199010,444181,280899
1571.27,0.198619,436947,276573
1574.32,0.197673,429598,272514
1577.36,0.195794,422039,268880
1580.4,0.194564,414375,264746
1583.43,0.192950,406354,260588
1586.46,0.191217,398475,256557
1590.49,0.189252,388982,251581
1593.51,0.186994,380708,247513
1596.53,0.185008,372727,243435
1599.54,0.183197,365060,239424
1602.55,0.179797,357543,236337
1605.55,0.178506,349495,231705
1608.55,0.175961,341154,227504
1612.54,0.173445,330877,221933
1615.53,0.172080,322904,217267
1618.51,0.169971,315116,213059
1621.49,0.169252,307217,208062
1624.47,0.167623,299481,203585
1627.44,0.166753,292112,198974
1630.41,0.166245,284245,193842
1634.36,0.163847,274079,187944
1637.32,0.163124,266916,183337
1640.27,0.161744,259612,178888
1643.22,0.161671,251804,173537
1646.16,0.160374,244348,168902
1649.1,0.160869,236703,163431
1652.04,0.158272,228171,158485
1655.95,0.155486,215408,150583
1658.88,0.153204,204937,144018
1661.8,0.147596,193395,137673
1664.72,0.141729,179728,129684
1667.63,0.129726,163642,121386
1670.54,0.119628,146312,111084
1673.44,0.102374,128451,101476
1677.31,0.086497,105080,86104
1680.21,0.075564,88906,74708
1683.1,0.073033,75033,63419
1685.99,0.075923,63520,53332
1688.87,0.078713,53714,44810
1691.75,0.080498,45653,37929
1694.62,0.086759,39137,32050
1697.49,0.093784,33776,27216
1701.31,0.102007,28175,22277

File: Column 1_050574_20150331_121106.csv
Method:,Column 1,,
Host Date-Time:,31/3/15 @ 12:11:6,,
Header Version:,1,,
System Temp (C):,34.17,,
Detector Temp (C):,34.36,,
Humidity (%):,1.66,,
Lamp PD:,3818,,
Shift Vector Coefficients:,-10.5391,0.0761263,-0.000134223,,
Pixel to Wavelength Coefficients:,1775.68,-0.916766,-0.000235065,,
Serial Number:,5510004,,
Scan Config Name:,Column 1,,
Scan Config Type:,Slew,,
Section 1,,
Start wavelength (nm):,900,,
End wavelength (nm):,1700,,
Pattern Pixel Width (nm):,   7.03,,,,
Exposure (ms):,  0.635,,,,
Digital Resolution:,228,,
Num Repeats:,6,,
PGA Gain:,64,,
Total Measurement Time in sec:,  2.726,,
Wavelength (nm),Absorbance (AU),Reference Signal (unitless),Sample Signal (unitless)
901.51,0.036287,108485,99789
905.376,0.040135,121306,110598
909.237,0.043016,131909,119470
913.095,0.045182,143299,129140
916.948,0.047173,156982,140824
922.079,0.047707,179937,161218
925.923,0.048543,200504,179300
929.762,0.049433,222660,198705
933.597,0.049317,244426,218188
937.427,0.049176,263972,235712
941.254,0.048811,281845,251883
945.076,0.047640,297271,266387
950.165,0.047043,315605,283205
953.978,0.045908,328029,295124
957.786,0.046145,340470,306150
961.59,0.047365,352317,315914
965.389,0.047208,363056,325661
969.185,0.047479,373162,334517
972.976,0.047148,382632,343268
976.763,0.047849,391202,350390
981.806,0.048473,400190,357926
985.583,0.048956,406088,362797
989.355,0.049462,410162,366010
993.124,0.050334,412868,367686
996.888,0.050975,414263,368384
1000.65,0.051288,415476,369197
1004.4,0.053070,415479,367688
1009.41,0.055716,414358,364468
1013.15,0.054579,412923,364158
1016.89,0.054874,411526,362680
1020.63,0.055057,409066,360360
1024.36,0.054786,406777,358567
1028.09,0.054273,404427,356917
1031.82,0.054629,401911,354406
1036.78,0.053888,398410,351919
1040.49,0.053616,396204,350189
1044.2,0.053931,394236,348197
1047.91,0.053211,392042,346834
1051.61,0.052486,389823,345447
1055.31,0.052038,388234,344394
1059,0.051653,387599,344136
1063.92,0.050294,386688,344403
1067.61,0.049695,386598,344798
1071.29,0.049213,387377,345876
1074.96,0.048883,388536,347175
1078.63,0.048196,389855,348905
1082.3,0.047184,391215,350939
1085.96,0.046709,393215,353119
1090.84,0.045846,396270,356570
1094.49,0.045929,398760,358742
1098.14,0.045096,400987,361438
1101.79,0.044562,403477,364130
1105.43,0.044449,406116,366607
1109.06,0.044253,407701,368204
1112.7,0.044522,409859,369924
1117.53,0.043927,412494,372813
1121.15,0.044965,414909,374100
1124.77,0.045602,416559,375037
1128.38,0.046936,418532,375658
1131.99,0.048010,419956,376005
1135.6,0.049954,421946,376100
1139.2,0.051537,423881,376450
1143.99,0.054031,426786,376859
1147.58,0.054990,428617,377641
1151.17,0.056330,431169,378719
1154.75,0.057264,433579,380018
1158.33,0.058945,436264,380894
1161.91,0.061104,439132,381497
1165.48,0.063168,442389,382504
1169.04,0.065985,446101,383220
1173.79,0.069896,451929,384746
1177.34,0.072041,456026,386321
1180.9,0.074435,461306,388646
1184.44,0.076467,467657,392157
1187.99,0.077595,473969,396419
1191.52,0.077244,479856,401668
1195.06,0.076764,487372,408410
1199.76,0.075908,497347,417591
1203.29,0.074904,504311,424419
1206.81,0.073941,511507,431430
1210.33,0.073432,519078,438329
1213.84,0.072901,527163,445701
1217.35,0.072023,534208,452572
1220.85,0.070955,540472,459006
1225.51,0.070418,549929,467615
1229.01,0.069739,556888,474273
1232.5,0.069162,562180,479417
1235.98,0.068400,567975,485209
1239.46,0.067330,574815,492264
1242.94,0.066435,582782,500116
1246.41,0.065965,591476,508127
1251.03,0.065776,604016,519126
1254.5,0.065792,612289,526217
1257.96,0.066198,619125,531594
1261.41,0.066889,624551,535401
1264.86,0.067346,629900,539418
1268.31,0.067987,634345,542424
1271.75,0.068583,638574,545291
1276.33,0.069424,642499,547581
1279.76,0.069008,645905,551011
1283.19,0.068580,648307,553606
1286.61,0.067798,650446,556434
1290.03,0.067530,652132,558220
1293.44,0.067350,653907,559972
1296.85,0.066748,655963,562511
1301.39,0.066415,657349,564132
1304.8,0.066392,657558,564341
1308.19,0.066876,658515,564533
1311.58,0.067141,658804,564437
1314.97,0.067537,659011,564100
1318.36,0.067821,658272,563099
1321.73,0.068292,658022,562275
1326.23,0.069472,657870,560619
1329.6,0.069993,656482,558766
1332.97,0.070850,654926,556343
1336.33,0.072065,653727,553772
1339.69,0.073920,652497,550375
1343.04,0.075216,649913,546562
1346.39,0.077803,647671,541441
1349.73,0.079814,645338,536999
1354.18,0.083068,641175,529552
1357.52,0.085192,638376,524668
1360.85,0.087465,635805,519827
1364.17,0.089485,633413,515468
1367.49,0.092208,631026,510316
1370.81,0.094364,628050,505394
1374.12,0.096868,625034,500076
1378.54,0.100366,620272,492284
1381.84,0.103433,616892,486157
1385.14,0.107237,613613,479355
1388.43,0.111138,611526,473453
1391.72,0.116246,610663,467257
1395.01,0.121099,610634,462043
1398.29,0.125928,611700,457731
1402.66,0.132618,614051,452467
1405.93,0.138208,616268,448293
1409.2,0.143305,617795,444160
1412.46,0.148276,618872,439870
1415.72,0.152915,619795,435846
1418.98,0.157079,620495,432175
1422.23,0.160661,621087,429034
1426.56,0.164814,621375,425148
1429.8,0.167609,621616,422584
1433.04,0.170221,622129,420397
1436.27,0.172272,621526,418011
1439.5,0.175081,621113,415040
1442.72,0.177185,620921,412906
1445.94,0.179209,620270,410555
1450.23,0.183348,618860,405737
1453.44,0.186584,617697,401968
1456.64,0.189600,616264,398260
1459.85,0.191955,614413,394917
1463.04,0.195574,612307,390297
1466.24,0.198706,610032,386053
1469.43,0.202325,607345,381163
1473.67,0.209087,603789,373077
1476.85,0.214625,601175,366755
1480.02,0.220933,597737,359399
1483.19,0.228413,594479,351337
1486.36,0.234341,591232,344681
1489.52,0.239666,587853,338534
1492.68,0.243270,583875,333465
1496.89,0.246291,578062,327856
1500.03,0.247158,574159,324993
1503.18,0.246848,570285,323031
1506.32,0.246121,565444,320825
1509.45,0.244437,560571,319296
1512.58,0.243046,555821,317606
1515.71,0.240322,550344,316455
1519.87,0.237352,543983,314944
1522.99,0.234723,538764,313816
1526.1,0.231578,533692,313121
1529.21,0.228285,527902,312082
1532.32,0.225739,521886,310339
1535.42,0.222378,515888,309156
1538.51,0.219346,509987,307761
1541.6,0.216741,503936,305939
1545.72,0.211669,494694,303856
1548.8,0.209260,488378,301645
1551.88,0.205627,481832,300102
1554.95,0.204070,474989,296902
1558.02,0.202052,467818,293782
1561.08,0.201183,460730,289910
1564.15,0.200121,454170,286482
1568.22,0.199372,444181,280665
1571.27,0.198595,436947,276588
1574.32,0.197661,429598,272522
1577.36,0.195935,422039,268793
1580.4,0.195117,414375,264409
1583.43,0.192860,406354,260642
1586.46,0.191153,398475,256595
1590.49,0.187942,388982,252341
1593.51,0.187392,380708,247286
1596.53,0.184835,372727,243532
1599.54,0.182850,365060,239615
1602.55,0.180797,357543,235793
1605.55,0.177818,349495,232072
1608.55,0.175383,341154,227807
1612.54,0.174328,330877,221482
1615.53,0.171482,322904,217566
1618.51,0.170885,315116,212611
1621.49,0.169735,307217,207831
1624.47,0.167897,299481,203457
1627.44,0.165746,292112,199436
1630.41,0.165350,284245,194242
1634.36,0.164504,274079,187660
1637.32,0.162571,266916,183571
1640.27,0.162541,259612,178560
1643.22,0.161553,251804,173584
1646.16,0.160433,244348,168879
1649.1,0.160768,236703,163469
1652.04,0.158215,228171,158506
1655.95,0.155275,215408,150656
1658.88,0.152384,204937,144290
1661.8,0.147530,193395,137694
1664.72,0.140723,179728,129985
1667.63,0.129251,163642,121519
1670.54,0.118465,146312,111382
1673.44,0.103162,128451,101292
1677.31,0.085062,105080,86389
1680.21,0.073893,88906,74996
1683.1,0.071011,75033,63715
1685.99,0.079053,63520,52949
1688.87,0.082089,53714,44463
1691.75,0.084825,45653,37553
1694.62,0.094732,39137,31467
1697.49,0.092843,33776,27275
1701.31,0.102378,28175,22258