Folder: textile_sorting_NIRSCAN_/samples/wool/wool-000811 (part 147)

File: Column 1_050613_20150331_122937.csv
Method:,Column 1,,
Host Date-Time:,31/3/15 @ 12:29:37,,
Header Version:,1,,
System Temp (C):,34.08,,
Detector Temp (C):,34.92,,
Humidity (%):,1.66,,
Lamp PD:,3818,,
Shift Vector Coefficients:,-10.5391,0.0761263,-0.000134223,,
Pixel to Wavelength Coefficients:,1775.68,-0.916766,-0.000235065,,
Serial Number:,5510004,,
Scan Config Name:,Column 1,,
Scan Config Type:,Slew,,
Section 1,,
Start wavelength (nm):,900,,
End wavelength (nm):,1700,,
Pattern Pixel Width (nm):,   7.03,,,,
Exposure (ms):,  0.635,,,,
Digital Resolution:,228,,
Num Repeats:,6,,
PGA Gain:,64,,
Total Measurement Time in sec:,  2.669,,
Wavelength (nm),Absorbance (AU),Reference Signal (unitless),Sample Signal (unitless)
901.51,0.069082,108485,92531
905.376,0.072964,121306,102546
909.237,0.075304,131909,110910
913.095,0.078563,143299,119586
916.948,0.078904,156982,130902
922.079,0.080566,179937,149470
925.923,0.081780,200504,166090
929.762,0.082213,222660,184259
933.597,0.081956,244426,202391
937.427,0.080789,263972,219164
941.254,0.080503,281845,234157
945.076,0.078904,297271,247884
950.165,0.077701,315605,263902
953.978,0.077783,328029,274239
957.786,0.077359,340470,284918
961.59,0.078217,352317,294250
965.389,0.078027,363056,303352
969.185,0.076874,373162,312625
972.976,0.078247,382632,319547
976.763,0.078281,391202,326678
981.806,0.078226,400190,334226
985.583,0.079291,406088,338321
989.355,0.079722,410162,341376
993.124,0.080369,412868,343117
996.888,0.080713,414263,344004
1000.65,0.081258,415476,344578
1004.4,0.082415,415479,343664
1009.41,0.084172,414358,341353
1013.15,0.084102,412923,340226
1016.89,0.084586,411526,338697
1020.63,0.084585,409066,336673
1024.36,0.085008,406777,334463
1028.09,0.083802,404427,333456
1031.82,0.083840,401911,331352
1036.78,0.083453,398410,328759
1040.49,0.083919,396204,326588
1044.2,0.083806,394236,325050
1047.91,0.083434,392042,323518
1051.61,0.082964,389823,322035
1055.31,0.083034,388234,320671
1059,0.081971,387599,320931
1063.92,0.081783,386688,320315
1067.61,0.080740,386598,321011
1071.29,0.080217,387377,322045
1074.96,0.079988,388536,323179
1078.63,0.078591,389855,325321
1082.3,0.078092,391215,326831
1085.96,0.077323,393215,329084
1090.84,0.076375,396270,332366
1094.49,0.076068,398760,334691
1098.14,0.075651,400987,336883
1101.79,0.074609,403477,339789
1105.43,0.075175,406116,341566
1109.06,0.073738,407701,344036
1112.7,0.073496,409859,346050
1117.53,0.073135,412494,348564
1121.15,0.073452,414909,350349
1124.77,0.073741,416559,351508
1128.38,0.075161,418532,352020
1131.99,0.076094,419956,352460
1135.6,0.077707,421946,352817
1139.2,0.079057,423881,353335
1143.99,0.080843,426786,354297
1147.58,0.081122,428617,355588
1151.17,0.082419,431169,356639
1154.75,0.083718,433579,357561
1158.33,0.084582,436264,359060
1161.91,0.086114,439132,360148
1165.48,0.088439,442389,360882
1169.04,0.090791,446101,361945
1173.79,0.094104,451929,363887
1177.34,0.095611,456026,365914
1180.9,0.098006,461306,368115
1184.44,0.099820,467657,371627
1187.99,0.100731,473969,375854
1191.52,0.101052,479856,380241
1195.06,0.100804,487372,386417
1199.76,0.100264,497347,394817
1203.29,0.099558,504311,400996
1206.81,0.099068,511507,407177
1210.33,0.098392,519078,413848
1213.84,0.098170,527163,420509
1217.35,0.097665,534208,426624
1220.85,0.096969,540472,432319
1225.51,0.096173,549929,440690
1229.01,0.094887,556888,447591
1232.5,0.094942,562180,451787
1235.98,0.093816,567975,457629
1239.46,0.093104,574815,463900
1242.94,0.092395,582782,471098
1246.41,0.091686,591476,478907
1251.03,0.091402,604016,489380
1254.5,0.091952,612289,495455
1257.96,0.091764,619125,501204
1261.41,0.092611,624551,504611
1264.86,0.093506,629900,507885
1268.31,0.093386,634345,511610
1271.75,0.094743,638574,513415
1276.33,0.094435,642499,516937
1279.76,0.093933,645905,520278
1283.19,0.093836,648307,522330
1286.61,0.093543,650446,524407
1290.03,0.092940,652132,526496
1293.44,0.092529,653907,528429
1296.85,0.092569,655963,530042
1301.39,0.091971,657349,531894
1304.8,0.091584,657558,532537
1308.19,0.092304,658515,532429
1311.58,0.092291,658804,532678
1314.97,0.092695,659011,532350
1318.36,0.093369,658272,530929
1321.73,0.093584,658022,530464
1326.23,0.093931,657870,529918
1329.6,0.094558,656482,528038
1332.97,0.095976,654926,525069
1336.33,0.096638,653727,523309
1339.69,0.098060,652497,520617
1343.04,0.099910,649913,516351
1346.39,0.101662,647671,512498
1349.73,0.103437,645338,508570
1354.18,0.106369,641175,501889
1357.52,0.108271,638376,497514
1360.85,0.110122,635805,493403
1364.17,0.111894,633413,489545
1367.49,0.114391,631026,484904
1370.81,0.116934,628050,479800
1374.12,0.118675,625034,475585
1378.54,0.122114,620272,468240
1381.84,0.123921,616892,463754
1385.14,0.127613,613613,457385
1388.43,0.131230,611526,452048
1391.72,0.135108,610663,447398
1395.01,0.139325,610634,443053
1398.29,0.143304,611700,439779
1402.66,0.149095,614051,435622
1405.93,0.154488,616268,431799
1409.2,0.159336,617795,428064
1412.46,0.163247,618872,424966
1415.72,0.167209,619795,421734
1418.98,0.170583,620495,418943
1422.23,0.173974,621087,416082
1426.56,0.177185,621375,413208
1429.8,0.179773,621616,410912
1433.04,0.182731,622129,408460
1436.27,0.184868,621526,406061
1439.5,0.186766,621113,404022
1442.72,0.189035,620921,401792
1445.94,0.191907,620270,398725
1450.23,0.195318,618860,394707
1453.44,0.198022,617697,391520
1456.64,0.201037,616264,387909
1459.85,0.203784,614413,384305
1463.04,0.206383,612307,380703
1466.24,0.209980,610032,376160
1469.43,0.213840,607345,371189
1473.67,0.220329,603789,363543
1476.85,0.226272,601175,357050
1480.02,0.231782,597737,350532
1483.19,0.238468,594479,343296
1486.36,0.244573,591232,336655
1489.52,0.249802,587853,330725
1492.68,0.252518,583875,326439
1496.89,0.254446,578062,321757
1500.03,0.255355,574159,318917
1503.18,0.255500,570285,316659
1506.32,0.254457,565444,314726
1509.45,0.253303,560571,312844
1512.58,0.251105,555821,311767
1515.71,0.249163,550344,310078
1519.87,0.246066,543983,308688
1522.99,0.243672,538764,307416
1526.1,0.240649,533692,306649
1529.21,0.238177,527902,305054
1532.32,0.234779,521886,303946
1535.42,0.232478,515888,302049
1538.51,0.229580,509987,300593
1541.6,0.227360,503936,298549
1545.72,0.222716,494694,296224
1548.8,0.220212,488378,294133
1551.88,0.217514,481832,291999
1554.95,0.215274,474989,289341
1558.02,0.214272,467818,285631
1561.08,0.213180,460730,282011
1564.15,0.211909,454170,278811
1568.22,0.211141,444181,273161
1571.27,0.210310,436947,269227
1574.32,0.209440,429598,265230
1577.36,0.208923,422039,260873
1580.4,0.206809,414375,257386
1583.43,0.206733,406354,252448
1586.46,0.204448,398475,248859
1590.49,0.202426,388982,244064
1593.51,0.200792,380708,239773
1596.53,0.198562,372727,235955
1599.54,0.197275,365060,231787
1602.55,0.194919,357543,228249
1605.55,0.193005,349495,224097
1608.55,0.190676,341154,219925
1612.54,0.189188,330877,214032
1615.53,0.187160,322904,209852
1618.51,0.186829,315116,204947
1621.49,0.185918,307217,200229
1624.47,0.183648,299481,196210
1627.44,0.184552,292112,190984
1630.41,0.183219,284245,186412
1634.36,0.181776,274079,180343
1637.32,0.180455,266916,176165
1640.27,0.179327,259612,171790
1643.22,0.178796,251804,166827
1646.16,0.177926,244348,162212
1649.1,0.179260,236703,156655
1652.04,0.175829,228171,152206
1655.95,0.171909,215408,144995
1658.88,0.168815,204937,138933
1661.8,0.164275,193395,132486
1664.72,0.154852,179728,125824
1667.63,0.143129,163642,117697
1670.54,0.129470,146312,108595
1673.44,0.111045,128451,99470
1677.31,0.093073,105080,84810
1680.21,0.081817,88906,73640
1683.1,0.074192,75033,63250
1685.99,0.077211,63520,53174
1688.87,0.083067,53714,44363
1691.75,0.084663,45653,37567
1694.62,0.087831,39137,31971
1697.49,0.092477,33776,27298
1701.31,0.100606,28175,22349

File: Column 1_050613_20150331_122943.csv
Method:,Column 1,,
Host Date-Time:,31/3/15 @ 12:29:43,,
Header Version:,1,,
System Temp (C):,34.08,,
Detector Temp (C):,34.92,,
Humidity (%):,1.66,,
Lamp PD:,3818,,
Shift Vector Coefficients:,-10.5391,0.0761263,-0.000134223,,
Pixel to Wavelength Coefficients:,1775.68,-0.916766,-0.000235065,,
Serial Number:,5510004,,
Scan Config Name:,Column 1,,
Scan Config Type:,Slew,,
Section 1,,
Start wavelength (nm):,900,,
End wavelength (nm):,1700,,
Pattern Pixel Width (nm):,   7.03,,,,
Exposure (ms):,  0.635,,,,
Digital Resolution:,228,,
Num Repeats:,6,,
PGA Gain:,64,,
Total Measurement Time in sec:,  2.668,,
Wavelength (nm),Absorbance (AU),Reference Signal (unitless),Sample Signal (unitless)
901.51,0.068693,108485,92614
905.376,0.075099,121306,102043
909.237,0.076307,131909,110654
913.095,0.077232,143299,119953
916.948,0.078363,156982,131065
922.079,0.080552,179937,149475
925.923,0.081858,200504,166060
929.762,0.082527,222660,184126
933.597,0.082828,244426,201985
937.427,0.080547,263972,219286
941.254,0.080646,281845,234080
945.076,0.078465,297271,248135
950.165,0.077900,315605,263781
953.978,0.077856,328029,274193
957.786,0.077603,340470,284758
961.59,0.077865,352317,294489
965.389,0.077738,363056,303554
969.185,0.077879,373162,311902
972.976,0.078086,382632,319665
976.763,0.078701,391202,326362
981.806,0.079190,400190,333485
985.583,0.079655,406088,338038
989.355,0.079817,410162,341302
993.124,0.079969,412868,343433
996.888,0.080560,414263,344125
1000.65,0.081628,415476,344285
1004.4,0.082855,415479,343316
1009.41,0.084013,414358,341478
1013.15,0.083585,412923,340631
1016.89,0.084600,411526,338686
1020.63,0.084695,409066,336588
1024.36,0.084570,406777,334801
1028.09,0.084402,404427,332995
1031.82,0.084809,401911,330614
1036.78,0.083957,398410,328377
1040.49,0.083677,396204,326770
1044.2,0.084365,394236,324632
1047.91,0.083920,392042,323156
1051.61,0.083210,389823,321853
1055.31,0.083114,388234,320612
1059,0.082713,387599,320383
1063.92,0.081556,386688,320483
1067.61,0.080880,386598,320907
1071.29,0.079818,387377,322341
1074.96,0.079856,388536,323277
1078.63,0.079514,389855,324630
1082.3,0.077904,391215,326973
1085.96,0.077281,393215,329116
1090.84,0.076871,396270,331986
1094.49,0.076588,398760,334290
1098.14,0.075597,400987,336925
1101.79,0.075035,403477,339456
1105.43,0.074390,406116,342184
1109.06,0.074394,407701,343517
1112.7,0.073410,409859,346118
1117.53,0.073497,412494,348274
1121.15,0.073777,414909,350087
1124.77,0.073922,416559,351362
1128.38,0.075283,418532,351921
1131.99,0.075626,419956,352840
1135.6,0.077636,421946,352875
1139.2,0.078279,423881,353969
1143.99,0.081051,426786,354127
1147.58,0.081442,428617,355326
1151.17,0.082184,431169,356832
1154.75,0.083319,433579,357890
1158.33,0.084493,436264,359134
1161.91,0.086864,439132,359527
1165.48,0.088942,442389,360464
1169.04,0.090612,446101,362094
1173.79,0.094271,451929,363747
1177.34,0.096252,456026,365374
1180.9,0.098370,461306,367806
1184.44,0.100689,467657,370884
1187.99,0.101417,473969,375261
1191.52,0.100914,479856,380362
1195.06,0.101217,487372,386050
1199.76,0.100103,497347,394963
1203.29,0.099528,504311,401024
1206.81,0.099113,511507,407135
1210.33,0.098514,519078,413732
1213.84,0.098135,527163,420543
1217.35,0.097294,534208,426989
1220.85,0.096689,540472,432598
1225.51,0.096069,549929,440796
1229.01,0.096012,556888,446433
1232.5,0.094547,562180,452198
1235.98,0.094033,567975,457400
1239.46,0.093214,574815,463782
1242.94,0.091790,582782,471755
1246.41,0.091891,591476,478681
1251.03,0.091728,604016,489013
1254.5,0.091797,612289,495632
1257.96,0.092338,619125,500542
1261.41,0.092428,624551,504824
1264.86,0.093138,629900,508316
1268.31,0.093499,634345,511477
1271.75,0.094771,638574,513382
1276.33,0.094880,642499,516407
1279.76,0.094166,645905,519999
1283.19,0.093727,648307,522461
1286.61,0.093445,650446,524525
1290.03,0.092756,652132,526720
1293.44,0.092947,653907,527921
1296.85,0.092554,655963,530060
1301.39,0.092190,657349,531626
1304.8,0.092218,657558,531761
1308.19,0.092218,658515,532534
1311.58,0.092248,658804,532731
1314.97,0.092741,659011,532294
1318.36,0.093293,658272,531022
1321.73,0.093550,658022,530506
1326.23,0.094566,657870,529144
1329.6,0.095198,656482,527260
1332.97,0.095596,654926,525529
1336.33,0.096725,653727,523205
1339.69,0.097848,652497,520872
1343.04,0.099777,649913,516509
1346.39,0.101731,647671,512417
1349.73,0.103998,645338,507913
1354.18,0.106719,641175,501484
1357.52,0.108540,638376,497206
1360.85,0.110192,635805,493324
1364.17,0.112513,633413,488848
1367.49,0.114800,631026,484448
1370.81,0.116793,628050,479956
1374.12,0.119051,625034,475174
1378.54,0.121599,620272,468795
1381.84,0.124762,616892,462857
1385.14,0.127299,613613,457715
1388.43,0.131189,611526,452091
1391.72,0.135519,610663,446974
1395.01,0.138770,610634,443620
1398.29,0.143399,611700,439683
1402.66,0.149443,614051,435273
1405.93,0.154589,616268,431699
1409.2,0.158920,617795,428474
1412.46,0.163694,618872,424528
1415.72,0.167000,619795,421937
1418.98,0.170490,620495,419033
1422.23,0.174032,621087,416026
1426.56,0.177327,621375,413073
1429.8,0.180097,621616,410606
1433.04,0.182524,622129,408655
1436.27,0.184830,621526,406097
1439.5,0.186942,621113,403858
1442.72,0.189539,620921,401326
1445.94,0.191786,620270,398836
1450.23,0.195499,618860,394542
1453.44,0.198087,617697,391461
1456.64,0.201039,616264,387907
1459.85,0.203749,614413,384336
1463.04,0.206179,612307,380882
1466.24,0.209854,610032,376269
1469.43,0.214124,607345,370947
1473.67,0.219895,603789,363907
1476.85,0.226686,601175,356710
1480.02,0.232561,597737,349904
1483.19,0.238804,594479,343030
1486.36,0.244426,591232,336769
1489.52,0.249409,587853,331024
1492.68,0.252249,583875,326641
1496.89,0.254980,578062,321362
1500.03,0.255277,574159,318974
1503.18,0.255257,570285,316836
1506.32,0.254151,565444,314948
1509.45,0.252925,560571,313116
1512.58,0.251848,555821,311234
1515.71,0.248963,550344,310221
1519.87,0.245973,543983,308754
1522.99,0.243736,538764,307371
1526.1,0.240578,533692,306699
1529.21,0.238043,527902,305148
1532.32,0.235029,521886,303771
1535.42,0.232474,515888,302052
1538.51,0.229673,509987,300529
1541.6,0.227316,503936,298579
1545.72,0.221994,494694,296717
1548.8,0.219898,488378,294346
1551.88,0.216823,481832,292464
1554.95,0.215439,474989,289231
1558.02,0.214611,467818,285408
1561.08,0.213308,460730,281928
1564.15,0.212616,454170,278357
1568.22,0.211054,444181,273216
1571.27,0.211100,436947,268738
1574.32,0.210061,429598,264851
1577.36,0.208326,422039,261232
1580.4,0.207662,414375,256881
1583.43,0.205908,406354,252928
1586.46,0.204886,398475,248608
1590.49,0.202442,388982,244055
1593.51,0.201083,380708,239612
1596.53,0.198860,372727,235793
1599.54,0.197067,365060,231898
1602.55,0.194742,357543,228342
1605.55,0.193950,349495,223610
1608.55,0.190988,341154,219767
1612.54,0.189401,330877,213927
1615.53,0.187719,322904,209582
1618.51,0.187329,315116,204711
1621.49,0.185054,307217,200628
1624.47,0.185287,299481,195471
1627.44,0.183846,292112,191295
1630.41,0.182653,284245,186655
1634.36,0.181326,274079,180530
1637.32,0.180763,266916,176040
1640.27,0.179916,259612,171557
1643.22,0.179781,251804,166449
1646.16,0.178156,244348,162126
1649.1,0.177790,236703,157186
1652.04,0.175446,228171,152340
1655.95,0.172571,215408,144774
1658.88,0.169143,204937,138828
1661.8,0.164164,193395,132520
1664.72,0.156159,179728,125446
1667.63,0.143277,163642,117657
1670.54,0.129386,146312,108616
1673.44,0.113230,128451,98971
1677.31,0.091147,105080,85187
1680.21,0.080539,88906,73857
1683.1,0.075175,75033,63107
1685.99,0.074540,63520,53502
1688.87,0.083145,53714,44355
1691.75,0.084235,45653,37604
1694.62,0.093960,39137,31523
1697.49,0.088329,33776,27560
1701.31,0.104137,28175,22168

File: Column 1_050613_20150331_122946.csv
Method:,Column 1,,
Host Date-Time:,31/3/15 @ 12:29:46,,
Header Version:,1,,
System Temp (C):,34.07,,
Detector Temp (C):,34.95,,
Humidity (%):,1.66,,
Lamp PD:,3818,,
Shift Vector Coefficients:,-10.5391,0.0761263,-0.000134223,,
Pixel to Wavelength Coefficients:,1775.68,-0.916766,-0.000235065,,
Serial Number:,5510004,,
Scan Config Name:,Column 1,,
Scan Config Type:,Slew,,
Section 1,,
Start wavelength (nm):,900,,
End wavelength (nm):,1700,,
Pattern Pixel Width (nm):,   7.03,,,,
Exposure (ms):,  0.635,,,,
Digital Resolution:,228,,
Num Repeats:,6,,
PGA Gain:,64,,
Total Measurement Time in sec:,  2.675,,
Wavelength (nm),Absorbance (AU),Reference Signal (unitless),Sample Signal (unitless)
901.51,0.069007,108485,92547
905.376,0.075414,121306,101969
909.237,0.077290,131909,110404
913.095,0.078283,143299,119663
916.948,0.079275,156982,130790
922.079,0.080991,179937,149324
925.923,0.081790,200504,166086
929.762,0.082815,222660,184004
933.597,0.081851,244426,202440
937.427,0.080594,263972,219262
941.254,0.079847,281845,234511
945.076,0.078636,297271,248037
950.165,0.078437,315605,263455
953.978,0.077447,328029,274451
957.786,0.077217,340470,285011
961.59,0.077416,352317,294793
965.389,0.077477,363056,303736
969.185,0.077409,373162,312240
972.976,0.077558,382632,320054
976.763,0.078333,391202,326639
981.806,0.078404,400190,334089
985.583,0.079761,406088,337955
989.355,0.079782,410162,341329
993.124,0.080196,412868,343254
996.888,0.080383,414263,344265
1000.65,0.080878,415476,344880
1004.4,0.082093,415479,343919
1009.41,0.083807,414358,341640
1013.15,0.084454,412923,339950
1016.89,0.084486,411526,338775
1020.63,0.084533,409066,336713
1024.36,0.084868,406777,334571
1028.09,0.084316,404427,333061
1031.82,0.084408,401911,330919
1036.78,0.083985,398410,328356
1040.49,0.083269,396204,327077
1044.2,0.083671,394236,325151
1047.91,0.083394,392042,323548
1051.61,0.083234,389823,321835
1055.31,0.082598,388234,320993
1059,0.081937,387599,320956
1063.92,0.081348,386688,320636
1067.61,0.080538,386598,321160
1071.29,0.080113,387377,322122
1074.96,0.079124,388536,323823
1078.63,0.079271,389855,324812
1082.3,0.078407,391215,326594
1085.96,0.077577,393215,328892
1090.84,0.076517,396270,332257
1094.49,0.075700,398760,334974
1098.14,0.075989,400987,336621
1101.79,0.074643,403477,339763
1105.43,0.074722,406116,341923
1109.06,0.073549,407701,344186
1112.7,0.073546,409859,346010
1117.53,0.072973,412494,348694
1121.15,0.073364,414909,350420
1124.77,0.073836,416559,351431
1128.38,0.075133,418532,352043
1131.99,0.075464,419956,352972
1135.6,0.077285,421946,353160
1139.2,0.078905,423881,353459
1143.99,0.080000,426786,354985
1147.58,0.081390,428617,355369
1151.17,0.082152,431169,356858
1154.75,0.083433,433579,357796
1158.33,0.084435,436264,359182
1161.91,0.085734,439132,360463
1165.48,0.088458,442389,360866
1169.04,0.090504,446101,362184
1173.79,0.093381,451929,364493
1177.34,0.095707,456026,365833
1180.9,0.098243,461306,367914
1184.44,0.099361,467657,372020
1187.99,0.101000,473969,375621
1191.52,0.100905,479856,380370
1195.06,0.100182,487372,386971
1199.76,0.100154,497347,394917
1203.29,0.099557,504311,400997
1206.81,0.098999,511507,407242
1210.33,0.098572,519078,413676
1213.84,0.097963,527163,420709
1217.35,0.097342,534208,426942
1220.85,0.096175,540472,433110
1225.51,0.095459,549929,441416
1229.01,0.095248,556888,447219
1232.5,0.094847,562180,451885
1235.98,0.094143,567975,457284
1239.46,0.093231,574815,463764
1242.94,0.091841,582782,471699
1246.41,0.091813,591476,478767
1251.03,0.091127,604016,489690
1254.5,0.091440,612289,496040
1257.96,0.092097,619125,500820
1261.41,0.092977,624551,504186
1264.86,0.093058,629900,508409
1268.31,0.093519,634345,511454
1271.75,0.094257,638574,513990
1276.33,0.094331,642499,517061
1279.76,0.094329,645905,519804
1283.19,0.093346,648307,522919
1286.61,0.093111,650446,524929
1290.03,0.093332,652132,526021
1293.44,0.092923,653907,527950
1296.85,0.092426,655963,530217
1301.39,0.092324,657349,531462
1304.8,0.092230,657558,531746
1308.19,0.092511,658515,532175
1311.58,0.092291,658804,532679
1314.97,0.092876,659011,532129
1318.36,0.093376,658272,530920
1321.73,0.093580,658022,530469
1326.23,0.094011,657870,529821
1329.6,0.094903,656482,527618
1332.97,0.095877,654926,525189
1336.33,0.096612,653727,523341
1339.69,0.098150,652497,520509
1343.04,0.099766,649913,516522
1346.39,0.101425,647671,512778
1349.73,0.103440,645338,508566
1354.18,0.106572,641175,501654
1357.52,0.108169,638376,497631
1360.85,0.110493,635805,492982
1364.17,0.112219,633413,489179
1367.49,0.114473,631026,484813
1370.81,0.116255,628050,480551
1374.12,0.119114,625034,475105
1378.54,0.121332,620272,469084
1381.84,0.124230,616892,463425
1385.14,0.127648,613613,457348
1388.43,0.130642,611526,452661
1391.72,0.135082,610663,447424
1395.01,0.138666,610634,443726
1398.29,0.143824,611700,439253
1402.66,0.149815,614051,434900
1405.93,0.154451,616268,431836
1409.2,0.158774,617795,428618
1412.46,0.162824,618872,425380
1415.72,0.166253,619795,422664
1418.98,0.170527,620495,418997
1422.23,0.173959,621087,416096
1426.56,0.177408,621375,412996
1429.8,0.180686,621616,410049
1433.04,0.182513,622129,408665
1436.27,0.184834,621526,406093
1439.5,0.186780,621113,404009
1442.72,0.189451,620921,401407
1445.94,0.191678,620270,398936
1450.23,0.195213,618860,394802
1453.44,0.198696,617697,390912
1456.64,0.200807,616264,388114
1459.85,0.203431,614413,384618
1463.04,0.206966,612307,380192
1466.24,0.209996,610032,376146
1469.43,0.213933,607345,371110
1473.67,0.219832,603789,363960
1476.85,0.225752,601175,357478
1480.02,0.231843,597737,350483
1483.19,0.238788,594479,343043
1486.36,0.244431,591232,336765
1489.52,0.249426,587853,331011
1492.68,0.252721,583875,326286
1496.89,0.254031,578062,322065
1500.03,0.255318,574159,318944
1503.18,0.255408,570285,316726
1506.32,0.254151,565444,314948
1509.45,0.252710,560571,313271
1512.58,0.251980,555821,311139
1515.71,0.248673,550344,310428
1519.87,0.246705,543983,308234
1522.99,0.243371,538764,307629
1526.1,0.240584,533692,306695
1529.21,0.237888,527902,305257
1532.32,0.235234,521886,303628
1535.42,0.231817,515888,302509
1538.51,0.229094,509987,300930
1541.6,0.226222,503936,299332
1545.72,0.222669,494694,296256
1548.8,0.219254,488378,294783
1551.88,0.217926,481832,291722
1554.95,0.215547,474989,289159
1558.02,0.213371,467818,286224
1561.08,0.213253,460730,281964
1564.15,0.212782,454170,278251
1568.22,0.210685,444181,273448
1571.27,0.210471,436947,269127
1574.32,0.209639,429598,265108
1577.36,0.208236,422039,261286
1580.4,0.207594,414375,256921
1583.43,0.205942,406354,252908
1586.46,0.203806,398475,249227
1590.49,0.201855,388982,244385
1593.51,0.200205,380708,240097
1596.53,0.198674,372727,235894
1599.54,0.197270,365060,231790
1602.55,0.194431,357543,228506
1605.55,0.192875,349495,224164
1608.55,0.190749,341154,219888
1612.54,0.188606,330877,214319
1615.53,0.186711,322904,210069
1618.51,0.186852,315116,204936
1621.49,0.185249,307217,200538
1624.47,0.184767,299481,195705
1627.44,0.183837,292112,191299
1630.41,0.183065,284245,186478
1634.36,0.181593,274079,180419
1637.32,0.180359,266916,176204
1640.27,0.179458,259612,171738
1643.22,0.179216,251804,166666
1646.16,0.178309,244348,162069
1649.1,0.178514,236703,156924
1652.04,0.175432,228171,152345
1655.95,0.173367,215408,144509
1658.88,0.168552,204937,139017
1661.8,0.162362,193395,133071
1664.72,0.157407,179728,125086
1667.63,0.142650,163642,117827
1670.54,0.130058,146312,108448
1673.44,0.111460,128451,99375
1677.31,0.091305,105080,85156
1680.21,0.080592,88906,73848
1683.1,0.071133,75033,63697
1685.99,0.074549,63520,53501
1688.87,0.075584,53714,45134
1691.75,0.080784,45653,37904
1694.62,0.089710,39137,31833
1697.49,0.090842,33776,27401
1701.31,0.095544,28175,22611