Folder: textile_sorting_NIRSCAN_/samples/wool/wool-000811 (part 38)

File: Column 1_050551_20150331_120034.csv
Method:,Column 1,,
Host Date-Time:,31/3/15 @ 12:0:34,,
Header Version:,1,,
System Temp (C):,33.34,,
Detector Temp (C):,32.42,,
Humidity (%):,3.43,,
Lamp PD:,3820,,
Shift Vector Coefficients:,-10.5391,0.0761263,-0.000134223,,
Pixel to Wavelength Coefficients:,1775.68,-0.916766,-0.000235065,,
Serial Number:,5510004,,
Scan Config Name:,Column 1,,
Scan Config Type:,Slew,,
Section 1,,
Start wavelength (nm):,900,,
End wavelength (nm):,1700,,
Pattern Pixel Width (nm):,   7.03,,,,
Exposure (ms):,  0.635,,,,
Digital Resolution:,228,,
Num Repeats:,6,,
PGA Gain:,64,,
Total Measurement Time in sec:,  2.671,,
Wavelength (nm),Absorbance (AU),Reference Signal (unitless),Sample Signal (unitless)
901.51,0.033476,108485,100437
905.376,0.038583,121306,110994
909.237,0.042565,131909,119594
913.095,0.043096,143299,129762
916.948,0.043387,156982,142057
922.079,0.044612,179937,162371
925.923,0.045393,200504,180605
929.762,0.046501,222660,200051
933.597,0.046203,244426,219758
937.427,0.045211,263972,237874
941.254,0.045787,281845,253643
945.076,0.046124,297271,267318
950.165,0.045524,315605,284197
953.978,0.045087,328029,295682
957.786,0.045477,340470,306621
961.59,0.046236,352317,316736
965.389,0.046064,363056,326520
969.185,0.046574,373162,335215
972.976,0.047677,382632,342850
976.763,0.047900,391202,350349
981.806,0.048127,400190,358211
985.583,0.049032,406088,362734
989.355,0.049396,410162,366066
993.124,0.050063,412868,367916
996.888,0.050510,414263,368779
1000.65,0.050828,415476,369588
1004.4,0.052305,415479,368336
1009.41,0.053731,414358,366138
1013.15,0.053998,412923,364646
1016.89,0.054894,411526,362663
1020.63,0.054786,409066,360585
1024.36,0.054413,406777,358875
1028.09,0.054692,404427,356573
1031.82,0.054992,401911,354110
1036.78,0.053968,398410,351854
1040.49,0.053274,396204,350465
1044.2,0.053018,394236,348930
1047.91,0.052992,392042,347009
1051.61,0.052303,389823,345593
1055.31,0.052250,388234,344226
1059,0.051050,387599,344614
1063.92,0.049776,386688,344814
1067.61,0.049403,386598,345030
1071.29,0.049319,387377,345792
1074.96,0.048974,388536,347102
1078.63,0.048679,389855,348517
1082.3,0.047150,391215,350966
1085.96,0.046789,393215,353054
1090.84,0.045789,396270,356617
1094.49,0.045134,398760,359400
1098.14,0.045291,400987,361276
1101.79,0.044787,403477,363942
1105.43,0.045129,406116,366034
1109.06,0.044179,407701,368267
1112.7,0.044171,409859,370223
1117.53,0.044809,412494,372056
1121.15,0.045450,414909,373683
1124.77,0.045831,416559,374840
1128.38,0.046436,418532,376091
1131.99,0.048120,419956,375910
1135.6,0.050486,421946,375639
1139.2,0.051692,423881,376315
1143.99,0.054959,426786,376055
1147.58,0.055745,428617,376985
1151.17,0.056908,431169,378216
1154.75,0.058630,433579,378825
1158.33,0.060089,436264,379892
1161.91,0.062642,439132,380148
1165.48,0.064618,442389,381229
1169.04,0.067250,446101,382105
1173.79,0.071491,451929,383336
1177.34,0.073676,456026,384870
1180.9,0.075567,461306,387634
1184.44,0.077762,467657,390990
1187.99,0.078329,473969,395750
1191.52,0.078325,479856,400669
1195.06,0.077264,487372,407940
1199.76,0.077086,497347,416460
1203.29,0.075983,504311,423365
1206.81,0.075244,511507,430138
1210.33,0.074291,519078,437463
1213.84,0.073609,527163,444975
1217.35,0.072770,534208,451794
1220.85,0.071987,540472,457916
1225.51,0.071350,549929,466613
1229.01,0.070465,556888,473481
1232.5,0.070125,562180,478355
1235.98,0.069340,567975,484160
1239.46,0.068328,574815,491134
1242.94,0.067514,582782,498876
1246.41,0.066903,591476,507030
1251.03,0.066736,604016,517979
1254.5,0.066543,612289,525307
1257.96,0.067184,619125,530389
1261.41,0.067701,624551,534400
1264.86,0.067847,629900,538796
1268.31,0.069020,634345,541135
1271.75,0.069620,638574,543990
1276.33,0.070077,642499,546758
1279.76,0.069965,645905,549798
1283.19,0.069180,648307,552842
1286.61,0.069136,650446,554722
1290.03,0.068641,652132,556794
1293.44,0.068040,653907,559083
1296.85,0.068297,655963,560509
1301.39,0.067928,657349,562171
1304.8,0.067711,657558,562630
1308.19,0.067945,658515,563145
1311.58,0.068288,658804,562948
1314.97,0.069239,659011,561893
1318.36,0.069586,658272,560815
1321.73,0.069818,658022,560302
1326.23,0.070949,657870,558716
1329.6,0.071893,656482,556327
1332.97,0.073128,654926,553432
1336.33,0.074589,653727,550564
1339.69,0.075868,652497,547912
1343.04,0.078234,649913,542777
1346.39,0.080684,647671,537861
1349.73,0.082633,645338,533524
1354.18,0.086050,641175,525928
1357.52,0.088151,638376,521105
1360.85,0.090452,635805,516264
1364.17,0.092480,633413,511926
1367.49,0.095140,631026,506883
1370.81,0.097743,628050,501477
1374.12,0.099899,625034,496598
1378.54,0.104033,620272,488145
1381.84,0.107497,616892,481629
1385.14,0.111891,613613,474246
1388.43,0.116447,611526,467701
1391.72,0.122563,610663,460509
1395.01,0.127621,610634,455156
1398.29,0.133213,611700,450117
1402.66,0.141558,614051,443248
1405.93,0.147836,616268,438464
1409.2,0.154105,617795,433251
1412.46,0.159731,618872,428420
1415.72,0.164608,619795,424268
1418.98,0.169421,620495,420066
1422.23,0.173716,621087,416329
1426.56,0.178305,621375,412144
1429.8,0.181162,621616,409600
1433.04,0.184579,622129,406726
1436.27,0.187061,621526,404016
1439.5,0.188820,621113,402115
1442.72,0.191851,620921,399195
1445.94,0.194211,620270,396616
1450.23,0.198091,618860,392194
1453.44,0.200579,617697,389221
1456.64,0.203881,616264,385377
1459.85,0.206639,614413,381787
1463.04,0.209102,612307,378327
1466.24,0.211562,610032,374792
1469.43,0.215180,607345,370046
1473.67,0.220181,603789,363667
1476.85,0.225051,601175,358055
1480.02,0.230610,597737,351480
1483.19,0.236602,594479,344774
1486.36,0.242057,591232,338611
1489.52,0.246776,587853,333037
1492.68,0.250565,583875,327910
1496.89,0.252269,578062,323374
1500.03,0.253265,574159,320455
1503.18,0.252996,570285,318490
1506.32,0.252097,565444,316441
1509.45,0.250709,560571,314718
1512.58,0.249761,555821,312733
1515.71,0.247136,550344,311529
1519.87,0.243920,543983,310217
1522.99,0.241345,538764,309068
1526.1,0.239149,533692,307710
1529.21,0.235902,527902,306656
1532.32,0.232391,521886,305622
1535.42,0.229971,515888,303798
1538.51,0.226821,509987,302509
1541.6,0.224054,503936,300830
1545.72,0.219052,494694,298734
1548.8,0.215776,488378,297153
1551.88,0.213922,481832,294424
1554.95,0.210993,474989,292207
1558.02,0.208775,467818,289269
1561.08,0.207886,460730,285470
1564.15,0.207472,454170,281674
1568.22,0.206363,444181,276183
1571.27,0.205794,436947,272041
1574.32,0.204514,429598,268255
1577.36,0.202420,422039,264809
1580.4,0.201106,414375,260788
1583.43,0.199068,406354,256943
1586.46,0.197299,398475,252989
1590.49,0.195080,388982,248227
1593.51,0.193432,380708,243871
1596.53,0.190527,372727,240361
1599.54,0.188096,365060,236738
1602.55,0.186707,357543,232606
1605.55,0.184589,349495,228482
1608.55,0.182330,341154,224192
1612.54,0.179724,330877,218747
1615.53,0.176894,322904,214872
1618.51,0.176290,315116,209981
1621.49,0.175268,307217,205200
1624.47,0.174478,299481,200397
1627.44,0.172935,292112,196162
1630.41,0.171168,284245,191657
1634.36,0.170047,274079,185280
1637.32,0.168348,266916,181145
1640.27,0.168055,259612,176307
1643.22,0.167356,251804,171280
1646.16,0.166224,244348,166642
1649.1,0.165437,236703,161721
1652.04,0.164049,228171,156391
1655.95,0.162042,215408,148327
1658.88,0.160941,204937,141475
1661.8,0.157888,193395,134449
1664.72,0.151592,179728,126772
1667.63,0.142499,163642,117868
1670.54,0.133904,146312,107492
1673.44,0.123679,128451,96618
1677.31,0.114130,105080,80796
1680.21,0.107803,88906,69363
1683.1,0.106451,75033,58722
1685.99,0.112980,63520,48970
1688.87,0.120408,53714,40708
1691.75,0.120293,45653,34608
1694.62,0.124669,39137,29371
1697.49,0.131764,33776,24937
1701.31,0.140276,28175,20398

File: Column 1_050552_20150331_120037.csv
Method:,Column 1,,
Host Date-Time:,31/3/15 @ 12:0:37,,
Header Version:,1,,
System Temp (C):,33.37,,
Detector Temp (C):,32.42,,
Humidity (%):,3.38,,
Lamp PD:,3821,,
Shift Vector Coefficients:,-10.5391,0.0761263,-0.000134223,,
Pixel to Wavelength Coefficients:,1775.68,-0.916766,-0.000235065,,
Serial Number:,5510004,,
Scan Config Name:,Column 1,,
Scan Config Type:,Slew,,
Section 1,,
Start wavelength (nm):,900,,
End wavelength (nm):,1700,,
Pattern Pixel Width (nm):,   7.03,,,,
Exposure (ms):,  0.635,,,,
Digital Resolution:,228,,
Num Repeats:,6,,
PGA Gain:,64,,
Total Measurement Time in sec:,  2.726,,
Wavelength (nm),Absorbance (AU),Reference Signal (unitless),Sample Signal (unitless)
901.51,0.032245,108485,100722
905.376,0.038246,121306,111080
909.237,0.041035,131909,120016
913.095,0.042815,143299,129846
916.948,0.042697,156982,142283
922.079,0.044714,179937,162333
925.923,0.045521,200504,180552
929.762,0.046146,222660,200215
933.597,0.046203,244426,219758
937.427,0.045635,263972,237642
941.254,0.045984,281845,253528
945.076,0.046300,297271,267210
950.165,0.045775,315605,284033
953.978,0.044963,328029,295767
957.786,0.046377,340470,305986
961.59,0.046624,352317,316453
965.389,0.046043,363056,326536
969.185,0.046491,373162,335279
972.976,0.047269,382632,343172
976.763,0.047693,391202,350516
981.806,0.048775,400190,357677
985.583,0.049439,406088,362394
989.355,0.049934,410162,365613
993.124,0.049564,412868,368339
996.888,0.050517,414263,368773
1000.65,0.051424,415476,369081
1004.4,0.052684,415479,368015
1009.41,0.054093,414358,365833
1013.15,0.053795,412923,364816
1016.89,0.054833,411526,362714
1020.63,0.055173,409066,360264
1024.36,0.055031,406777,358365
1028.09,0.054146,404427,357021
1031.82,0.054084,401911,354851
1036.78,0.053308,398410,352389
1040.49,0.053221,396204,350508
1044.2,0.053029,394236,348921
1047.91,0.053084,392042,346935
1051.61,0.052436,389823,345487
1055.31,0.051877,388234,344522
1059,0.051451,387599,344296
1063.92,0.050633,386688,344134
1067.61,0.049496,386598,344956
1071.29,0.049068,387377,345992
1074.96,0.048217,388536,347708
1078.63,0.048363,389855,348771
1082.3,0.047374,391215,350785
1085.96,0.046987,393215,352893
1090.84,0.045697,396270,356693
1094.49,0.045196,398760,359348
1098.14,0.045355,400987,361223
1101.79,0.045424,403477,363408
1105.43,0.044805,406116,366307
1109.06,0.044703,407701,367823
1112.7,0.044383,409859,370042
1117.53,0.044490,412494,372330
1121.15,0.045240,414909,373863
1124.77,0.045438,416559,375179
1128.38,0.047042,418532,375566
1131.99,0.048381,419956,375684
1135.6,0.050367,421946,375742
1139.2,0.052525,423881,375594
1143.99,0.054729,426786,376254
1147.58,0.056218,428617,376575
1151.17,0.056811,431169,378300
1154.75,0.058293,433579,379119
1158.33,0.060175,436264,379817
1161.91,0.062134,439132,380593
1165.48,0.064630,442389,381219
1169.04,0.067254,446101,382102
1173.79,0.070984,451929,383783
1177.34,0.074167,456026,384435
1180.9,0.075674,461306,387539
1184.44,0.077639,467657,391101
1187.99,0.078322,473969,395756
1191.52,0.077842,479856,401115
1195.06,0.077951,487372,407295
1199.76,0.076671,497347,416858
1203.29,0.075699,504311,423642
1206.81,0.075135,511507,430246
1210.33,0.074505,519078,437248
1213.84,0.073439,527163,445150
1217.35,0.072849,534208,451712
1220.85,0.072360,540472,457523
1225.51,0.071200,549929,466774
1229.01,0.070470,556888,473476
1232.5,0.069865,562180,478641
1235.98,0.069115,567975,484411
1239.46,0.068516,574815,490921
1242.94,0.067193,582782,499244
1246.41,0.066532,591476,507464
1251.03,0.066859,604016,517833
1254.5,0.066799,612289,524998
1257.96,0.066829,619125,530822
1261.41,0.067635,624551,534482
1264.86,0.068153,629900,538417
1268.31,0.068635,634345,541615
1271.75,0.069676,638574,543920
1276.33,0.069914,642499,546964
1279.76,0.069831,645905,549968
1283.19,0.069571,648307,552344
1286.61,0.069147,650446,554708
1290.03,0.068824,652132,556560
1293.44,0.068340,653907,558696
1296.85,0.068177,655963,560664
1301.39,0.068060,657349,562000
1304.8,0.068012,657558,562241
1308.19,0.067800,658515,563334
1311.58,0.068343,658804,562877
1314.97,0.069336,659011,561767
1318.36,0.069562,658272,560846
1321.73,0.070171,658022,559847
1326.23,0.071297,657870,558269
1329.6,0.072068,656482,556102
1332.97,0.073184,654926,553360
1336.33,0.074644,653727,550494
1339.69,0.076329,652497,547330
1343.04,0.078476,649913,542474
1346.39,0.080345,647671,538282
1349.73,0.082987,645338,533090
1354.18,0.085874,641175,526142
1357.52,0.088245,638376,520992
1360.85,0.090673,635805,516001
1364.17,0.092413,633413,512005
1367.49,0.095407,631026,506571
1370.81,0.097331,628050,501953
1374.12,0.100107,625034,496360
1378.54,0.103981,620272,488204
1381.84,0.107809,616892,481283
1385.14,0.111627,613613,474534
1388.43,0.116520,611526,467622
1391.72,0.121804,610663,461315
1395.01,0.127223,610634,455573
1398.29,0.133168,611700,450164
1402.66,0.141507,614051,443300
1405.93,0.148064,616268,438234
1409.2,0.153956,617795,433399
1412.46,0.159183,618872,428961
1415.72,0.164869,619795,424013
1418.98,0.169164,620495,420314
1422.23,0.173697,621087,416347
1426.56,0.178093,621375,412345
1429.8,0.181188,621616,409576
1433.04,0.184428,622129,406867
1436.27,0.187116,621526,403965
1439.5,0.189341,621113,401633
1442.72,0.191324,620921,399680
1445.94,0.193788,620270,397002
1450.23,0.198001,618860,392276
1453.44,0.200965,617697,388875
1456.64,0.202818,616264,386321
1459.85,0.206332,614413,382057
1463.04,0.209135,612307,378298
1466.24,0.211689,610032,374683
1469.43,0.214773,607345,370393
1473.67,0.220873,603789,363088
1476.85,0.225359,601175,357801
1480.02,0.230581,597737,351503
1483.19,0.236440,594479,344903
1486.36,0.242347,591232,338385
1489.52,0.246397,587853,333328
1492.68,0.249989,583875,328345
1496.89,0.252017,578062,323562
1500.03,0.253460,574159,320311
1503.18,0.253504,570285,318118
1506.32,0.252407,565444,316215
1509.45,0.250552,560571,314832
1512.58,0.249289,555821,313073
1515.71,0.247118,550344,311542
1519.87,0.243780,543983,310317
1522.99,0.241239,538764,309143
1526.1,0.238561,533692,308127
1529.21,0.235883,527902,306669
1532.32,0.232336,521886,305661
1535.42,0.229356,515888,304228
1538.51,0.225909,509987,303145
1541.6,0.224054,503936,300830
1545.72,0.218761,494694,298934
1548.8,0.216042,488378,296971
1551.88,0.213264,481832,294871
1554.95,0.211040,474989,292175
1558.02,0.209251,467818,288952
1561.08,0.207796,460730,285529
1564.15,0.206926,454170,282028
1568.22,0.206008,444181,276409
1571.27,0.204377,436947,272930
1574.32,0.203564,429598,268843
1577.36,0.202796,422039,264580
1580.4,0.201249,414375,260702
1583.43,0.199854,406354,256478
1586.46,0.197404,398475,252928
1590.49,0.195318,388982,248091
1593.51,0.192517,380708,244385
1596.53,0.191370,372727,239895
1599.54,0.187885,365060,236853
1602.55,0.186241,357543,232856
1605.55,0.184450,349495,228555
1608.55,0.181891,341154,224419
1612.54,0.179482,330877,218869
1615.53,0.177853,322904,214398
1618.51,0.176615,315116,209824
1621.49,0.176134,307217,204791
1624.47,0.173327,299481,200929
1627.44,0.171805,292112,196673
1630.41,0.171166,284245,191658
1634.36,0.169520,274079,185505
1637.32,0.168691,266916,181002
1640.27,0.168100,259612,176289
1643.22,0.166538,251804,171603
1646.16,0.167174,244348,166278
1649.1,0.166351,236703,161381
1652.04,0.164268,228171,156312
1655.95,0.162074,215408,148316
1658.88,0.159650,204937,141896
1661.8,0.156697,193395,134818
1664.72,0.151853,179728,126696
1667.63,0.142967,163642,117741
1670.54,0.134960,146312,107231
1673.44,0.124962,128451,96333
1677.31,0.114808,105080,80670
1680.21,0.107009,88906,69490
1683.1,0.106844,75033,58669
1685.99,0.113273,63520,48937
1688.87,0.118651,53714,40873
1691.75,0.123214,45653,34376
1694.62,0.124624,39137,29374
1697.49,0.131120,33776,24974
1701.31,0.139022,28175,20457

File: Column 1_050552_20150331_120039.csv
Method:,Column 1,,
Host Date-Time:,31/3/15 @ 12:0:39,,
Header Version:,1,,
System Temp (C):,33.33,,
Detector Temp (C):,32.43,,
Humidity (%):,3.28,,
Lamp PD:,3820,,
Shift Vector Coefficients:,-10.5391,0.0761263,-0.000134223,,
Pixel to Wavelength Coefficients:,1775.68,-0.916766,-0.000235065,,
Serial Number:,5510004,,
Scan Config Name:,Column 1,,
Scan Config Type:,Slew,,
Section 1,,
Start wavelength (nm):,900,,
End wavelength (nm):,1700,,
Pattern Pixel Width (nm):,   7.03,,,,
Exposure (ms):,  0.635,,,,
Digital Resolution:,228,,
Num Repeats:,6,,
PGA Gain:,64,,
Total Measurement Time in sec:,  2.729,,
Wavelength (nm),Absorbance (AU),Reference Signal (unitless),Sample Signal (unitless)
901.51,0.033770,108485,100369
905.376,0.039629,121306,110727
909.237,0.041941,131909,119766
913.095,0.042280,143299,130006
916.948,0.044042,156982,141843
922.079,0.044540,179937,162398
925.923,0.044073,200504,181155
929.762,0.045660,222660,200439
933.597,0.045924,244426,219899
937.427,0.045940,263972,237475
941.254,0.046253,281845,253371
945.076,0.044958,297271,268037
950.165,0.045775,315605,284033
953.978,0.045198,328029,295607
957.786,0.045317,340470,306734
961.59,0.046642,352317,316440
965.389,0.046198,363056,326419
969.185,0.046376,373162,335368
972.976,0.046625,382632,343682
976.763,0.047652,391202,350549
981.806,0.048137,400190,358203
985.583,0.049167,406088,362621
989.355,0.049474,410162,366000
993.124,0.050225,412868,367778
996.888,0.050693,414263,368624
1000.65,0.051131,415476,369330
1004.4,0.052787,415479,367927
1009.41,0.053659,414358,366199
1013.15,0.054001,412923,364643
1016.89,0.054862,411526,362690
1020.63,0.054688,409066,360666
1024.36,0.055210,406777,358217
1028.09,0.054251,404427,356935
1031.82,0.054032,401911,354893
1036.78,0.053844,398410,351954
1040.49,0.053176,396204,350544
1044.2,0.053509,394236,348536
1047.91,0.053131,392042,346898
1051.61,0.052419,389823,345500
1055.31,0.051660,388234,344694
1059,0.051902,387599,343938
1063.92,0.050910,386688,343915
1067.61,0.049525,386598,344933
1071.29,0.049300,387377,345807
1074.96,0.048673,388536,347343
1078.63,0.047907,389855,349137
1082.3,0.047526,391215,350663
1085.96,0.046916,393215,352951
1090.84,0.046052,396270,356401
1094.49,0.045235,398760,359316
1098.14,0.045469,400987,361128
1101.79,0.044531,403477,364156
1105.43,0.045072,406116,366082
1109.06,0.044092,407701,368341
1112.7,0.044673,409859,369795
1117.53,0.044618,412494,372220
1121.15,0.044980,414909,374087
1124.77,0.045731,416559,374926
1128.38,0.047146,418532,375476
1131.99,0.048859,419956,375271
1135.6,0.050845,421946,375329
1139.2,0.051981,423881,376065
1143.99,0.054884,426786,376120
1147.58,0.055187,428617,377470
1151.17,0.056634,431169,378454
1154.75,0.058525,433579,378916
1158.33,0.060167,436264,379824
1161.91,0.062169,439132,380563
1165.48,0.064853,442389,381023
1169.04,0.067506,446101,381880
1173.79,0.071187,451929,383604
1177.34,0.073379,456026,385133
1180.9,0.075871,461306,387363
1184.44,0.077334,467657,391375
1187.99,0.078951,473969,395184
1191.52,0.078453,479856,400551
1195.06,0.078103,487372,407153
1199.76,0.076733,497347,416799
1203.29,0.076012,504311,423337
1206.81,0.075142,511507,430239
1210.33,0.074227,519078,437528
1213.84,0.073696,527163,444886
1217.35,0.072898,534208,451661
1220.85,0.071709,540472,458210
1225.51,0.070904,549929,467092
1229.01,0.070748,556888,473173
1232.5,0.069449,562180,479100
1235.98,0.069417,567975,484074
1239.46,0.068270,574815,491200
1242.94,0.067192,582782,499245
1246.41,0.066360,591476,507665
1251.03,0.066604,604016,518137
1254.5,0.066571,612289,525274
1257.96,0.066730,619125,530944
1261.41,0.067740,624551,534352
1264.86,0.068694,629900,537747
1268.31,0.068688,634345,541549
1271.75,0.069797,638574,543769
1276.33,0.069660,642499,547284
1279.76,0.069914,645905,549863
1283.19,0.068987,648307,553087
1286.61,0.069261,650446,554562
1290.03,0.068813,652132,556574
1293.44,0.068403,653907,558616
1296.85,0.068411,655963,560361
1301.39,0.068227,657349,561783
1304.8,0.068102,657558,562124
1308.19,0.068214,658515,562797
1311.58,0.068270,658804,562971
1314.97,0.069053,659011,562134
1318.36,0.069639,658272,560746
1321.73,0.070030,658022,560029
1326.23,0.070893,657870,558788
1329.6,0.072192,656482,555944
1332.97,0.073474,654926,552991
1336.33,0.074752,653727,550357
1339.69,0.076591,652497,547000
1343.04,0.078233,649913,542778
1346.39,0.080644,647671,537911
1349.73,0.082553,645338,533623
1354.18,0.086028,641175,525955
1357.52,0.088534,638376,520646
1360.85,0.090350,635805,516385
1364.17,0.092649,633413,511726
1367.49,0.095045,631026,506993
1370.81,0.097984,628050,501199
1374.12,0.099964,625034,496523
1378.54,0.103904,620272,488290
1381.84,0.107352,616892,481789
1385.14,0.111637,613613,474523
1388.43,0.116605,611526,467530
1391.72,0.121754,610663,461368
1395.01,0.126897,610634,455915
1398.29,0.133340,611700,449985
1402.66,0.141429,614051,443379
1405.93,0.148277,616268,438019
1409.2,0.153479,617795,433876
1412.46,0.159940,618872,428214
1415.72,0.164449,619795,424423
1418.98,0.169009,620495,420464
1422.23,0.173459,621087,416575
1426.56,0.178138,621375,412302
1429.8,0.181245,621616,409522
1433.04,0.184028,622129,407242
1436.27,0.186616,621526,404430
1439.5,0.189426,621113,401555
1442.72,0.191294,620921,399708
1445.94,0.194104,620270,396713
1450.23,0.197484,618860,392743
1453.44,0.200818,617697,389007
1456.64,0.203407,616264,385798
1459.85,0.206304,614413,382082
1463.04,0.208331,612307,378999
1466.24,0.211889,610032,374510
1469.43,0.215319,607345,369927
1473.67,0.220547,603789,363361
1476.85,0.225226,601175,357911
1480.02,0.230381,597737,351665
1483.19,0.236422,594479,344917
1486.36,0.242104,591232,338574
1489.52,0.246681,587853,333110
1492.68,0.249968,583875,328361
1496.89,0.252343,578062,323319
1500.03,0.253741,574159,320104
1503.18,0.253173,570285,318360
1506.32,0.251909,565444,316578
1509.45,0.250341,560571,314985
1512.58,0.249044,555821,313250
1515.71,0.246949,550344,311663
1519.87,0.243183,543983,310744
1522.99,0.240770,538764,309477
1526.1,0.237912,533692,308588
1529.21,0.235549,527902,306905
1532.32,0.232695,521886,305408
1535.42,0.229470,515888,304148
1538.51,0.226499,509987,302733
1541.6,0.223451,503936,301248
1545.72,0.218724,494694,298960
1548.8,0.215805,488378,297133
1551.88,0.212897,481832,295120
1554.95,0.211084,474989,292146
1558.02,0.208994,467818,289123
1561.08,0.207679,460730,285606
1564.15,0.207444,454170,281692
1568.22,0.205428,444181,276778
1571.27,0.204844,436947,272637
1574.32,0.203843,429598,268670
1577.36,0.202064,422039,265026
1580.4,0.200966,414375,260872
1583.43,0.198796,406354,257104
1586.46,0.197207,398475,253043
1590.49,0.195436,388982,248024
1593.51,0.193037,380708,244093
1596.53,0.190339,372727,240465
1599.54,0.188704,365060,236407
1602.55,0.186605,357543,232661
1605.55,0.184251,349495,228660
1608.55,0.182450,341154,224130
1612.54,0.180237,330877,218489
1615.53,0.177209,322904,214716
1618.51,0.176334,315116,209960
1621.49,0.174836,307217,205404
1624.47,0.173824,299481,200699
1627.44,0.173395,292112,195954
1630.41,0.171159,284245,191661
1634.36,0.169993,274079,185303
1637.32,0.169313,266916,180743
1640.27,0.168590,259612,176090
1643.22,0.166872,251804,171471
1646.16,0.166420,244348,166567
1649.1,0.165349,236703,161754
1652.04,0.163760,228171,156495
1655.95,0.161582,215408,148484
1658.88,0.159240,204937,142030
1661.8,0.157020,193395,134718
1664.72,0.153216,179728,126299
1667.63,0.141674,163642,118092
1670.54,0.131756,146312,108025
1673.44,0.122997,128451,96770
1677.31,0.113947,105080,80830
1680.21,0.108737,88906,69214
1683.1,0.107399,75033,58594
1685.99,0.112165,63520,49062
1688.87,0.117092,53714,41020
1691.75,0.126244,45653,34137
1694.62,0.129232,39137,29064
1697.49,0.127449,33776,25186
1701.31,0.136039,28175,20598