Folder: textile_sorting_NIRSCAN_/samples/wool/wool-000811 (part 81)

File: Column 1_050574_20150331_121129.csv
Method:,Column 1,,
Host Date-Time:,31/3/15 @ 12:11:29,,
Header Version:,1,,
System Temp (C):,34.2,,
Detector Temp (C):,34.41,,
Humidity (%):,1.66,,
Lamp PD:,3818,,
Shift Vector Coefficients:,-10.5391,0.0761263,-0.000134223,,
Pixel to Wavelength Coefficients:,1775.68,-0.916766,-0.000235065,,
Serial Number:,5510004,,
Scan Config Name:,Column 1,,
Scan Config Type:,Slew,,
Section 1,,
Start wavelength (nm):,900,,
End wavelength (nm):,1700,,
Pattern Pixel Width (nm):,   7.03,,,,
Exposure (ms):,  0.635,,,,
Digital Resolution:,228,,
Num Repeats:,6,,
PGA Gain:,64,,
Total Measurement Time in sec:,  2.689,,
Wavelength (nm),Absorbance (AU),Reference Signal (unitless),Sample Signal (unitless)
901.51,0.034927,108485,100102
905.376,0.039295,121306,110812
909.237,0.043059,131909,119458
913.095,0.045213,143299,129131
916.948,0.045640,156982,141322
922.079,0.046625,179937,161620
925.923,0.048749,200504,179215
929.762,0.049980,222660,198455
933.597,0.049920,244426,217885
937.427,0.049561,263972,235503
941.254,0.048601,281845,252005
945.076,0.047358,297271,266560
950.165,0.046934,315605,283276
953.978,0.046849,328029,294485
957.786,0.046531,340470,305878
961.59,0.047105,352317,316103
965.389,0.046692,363056,326048
969.185,0.046978,373162,334903
972.976,0.047906,382632,342669
976.763,0.048300,391202,350027
981.806,0.048320,400190,358052
985.583,0.049398,406088,362428
989.355,0.050205,410162,365385
993.124,0.050055,412868,367922
996.888,0.050616,414263,368689
1000.65,0.051635,415476,368902
1004.4,0.052962,415479,367779
1009.41,0.054047,414358,365872
1013.15,0.054666,412923,364085
1016.89,0.055696,411526,361994
1020.63,0.055039,409066,360375
1024.36,0.054984,406777,358404
1028.09,0.054145,404427,357022
1031.82,0.054819,401911,354251
1036.78,0.054246,398410,351629
1040.49,0.053811,396204,350032
1044.2,0.053844,394236,348267
1047.91,0.052708,392042,347236
1051.61,0.052662,389823,345307
1055.31,0.051894,388234,344508
1059,0.051278,387599,344433
1063.92,0.050984,386688,343856
1067.61,0.049410,386598,345024
1071.29,0.049161,387377,345918
1074.96,0.048646,388536,347364
1078.63,0.048361,389855,348772
1082.3,0.047325,391215,350825
1085.96,0.046531,393215,353264
1090.84,0.045978,396270,356462
1094.49,0.045607,398760,359008
1098.14,0.045095,400987,361439
1101.79,0.044587,403477,364109
1105.43,0.044755,406116,366349
1109.06,0.044204,407701,368246
1112.7,0.043966,409859,370398
1117.53,0.044287,412494,372504
1121.15,0.045353,414909,373766
1124.77,0.045197,416559,375387
1128.38,0.046544,418532,375997
1131.99,0.047615,419956,376347
1135.6,0.050219,421946,375870
1139.2,0.051524,423881,376461
1143.99,0.053852,426786,377015
1147.58,0.054836,428617,377775
1151.17,0.056629,431169,378459
1154.75,0.057346,433579,379946
1158.33,0.058965,436264,380877
1161.91,0.060994,439132,381594
1165.48,0.064356,442389,381459
1169.04,0.066352,446101,382896
1173.79,0.070145,451929,384526
1177.34,0.072588,456026,385835
1180.9,0.074622,461306,388479
1184.44,0.076987,467657,391688
1187.99,0.077683,473969,396339
1191.52,0.077111,479856,401791
1195.06,0.076693,487372,408477
1199.76,0.076050,497347,417455
1203.29,0.075100,504311,424227
1206.81,0.074436,511507,430939
1210.33,0.073223,519078,438540
1213.84,0.072814,527163,445791
1217.35,0.072286,534208,452298
1220.85,0.071484,540472,458447
1225.51,0.070577,549929,467444
1229.01,0.069781,556888,474228
1232.5,0.069326,562180,479236
1235.98,0.068139,567975,485501
1239.46,0.066889,574815,492764
1242.94,0.066389,582782,500169
1246.41,0.065523,591476,508644
1251.03,0.065879,604016,519002
1254.5,0.065963,612289,526009
1257.96,0.066046,619125,531780
1261.41,0.066461,624551,535929
1264.86,0.067589,629900,539117
1268.31,0.067899,634345,542533
1271.75,0.068843,638574,544964
1276.33,0.068909,642499,548231
1279.76,0.069240,645905,550717
1283.19,0.068424,648307,553805
1286.61,0.067765,650446,556476
1290.03,0.067756,652132,557930
1293.44,0.067276,653907,560067
1296.85,0.067153,655963,561987
1301.39,0.066707,657349,563753
1304.8,0.066819,657558,563787
1308.19,0.066963,658515,564420
1311.58,0.067163,658804,564408
1314.97,0.067233,659011,564495
1318.36,0.068167,658272,562650
1321.73,0.068316,658022,562244
1326.23,0.068931,657870,561318
1329.6,0.070056,656482,558685
1332.97,0.070833,654926,556364
1336.33,0.072158,653727,553654
1339.69,0.073716,652497,550633
1343.04,0.075202,649913,546579
1346.39,0.077368,647671,541984
1349.73,0.079634,645338,537221
1354.18,0.083088,641175,529527
1357.52,0.085222,638376,524632
1360.85,0.087077,635805,520292
1364.17,0.089691,633413,515224
1367.49,0.092181,631026,510348
1370.81,0.094656,628050,505055
1374.12,0.096841,625034,500107
1378.54,0.100422,620272,492221
1381.84,0.103324,616892,486279
1385.14,0.107310,613613,479275
1388.43,0.111319,611526,473256
1391.72,0.115999,610663,467523
1395.01,0.120463,610634,462720
1398.29,0.125864,611700,457799
1402.66,0.132640,614051,452444
1405.93,0.137916,616268,448594
1409.2,0.143207,617795,444260
1412.46,0.148080,618872,440069
1415.72,0.152701,619795,436061
1418.98,0.156726,620495,432526
1422.23,0.159638,621087,430046
1426.56,0.164798,621375,425163
1429.8,0.167238,621616,422945
1433.04,0.170039,622129,420573
1436.27,0.171990,621526,418282
1439.5,0.174031,621113,416044
1442.72,0.176594,620921,413468
1445.94,0.179557,620270,410227
1450.23,0.183081,618860,405986
1453.44,0.186340,617697,402194
1456.64,0.189125,616264,398696
1459.85,0.192403,614413,394509
1463.04,0.195449,612307,390409
1466.24,0.198628,610032,386122
1469.43,0.202332,607345,381157
1473.67,0.208926,603789,373215
1476.85,0.214470,601175,366886
1480.02,0.220953,597737,359383
1483.19,0.227520,594479,352060
1486.36,0.234542,591232,344521
1489.52,0.240125,587853,338177
1492.68,0.243247,583875,333482
1496.89,0.245704,578062,328300
1500.03,0.246879,574159,325202
1503.18,0.247266,570285,322720
1506.32,0.245565,565444,321236
1509.45,0.244585,560571,319187
1512.58,0.243087,555821,317576
1515.71,0.240324,550344,316454
1519.87,0.237882,543983,314560
1522.99,0.234722,538764,313817
1526.1,0.231609,533692,313099
1529.21,0.228790,527902,311719
1532.32,0.225757,521886,310326
1535.42,0.222581,515888,309011
1538.51,0.219454,509987,307684
1541.6,0.216029,503936,306441
1545.72,0.211173,494694,304203
1548.8,0.207972,488378,302541
1551.88,0.205871,481832,299933
1554.95,0.204158,474989,296842
1558.02,0.201942,467818,293856
1561.08,0.200725,460730,290216
1564.15,0.199473,454170,286910
1568.22,0.198897,444181,280972
1571.27,0.198475,436947,276665
1574.32,0.197278,429598,272762
1577.36,0.196054,422039,268719
1580.4,0.195688,414375,264062
1583.43,0.192141,406354,261074
1586.46,0.191514,398475,256382
1590.49,0.189069,388982,251687
1593.51,0.186538,380708,247773
1596.53,0.184539,372727,243698
1599.54,0.181753,365060,240221
1602.55,0.179986,357543,236234
1605.55,0.177925,349495,232015
1608.55,0.175608,341154,227689
1612.54,0.173936,330877,221682
1615.53,0.171393,322904,217611
1618.51,0.170393,315116,212852
1621.49,0.168787,307217,208285
1624.47,0.166956,299481,203898
1627.44,0.166696,292112,199000
1630.41,0.166025,284245,193940
1634.36,0.163565,274079,188066
1637.32,0.162478,266916,183610
1640.27,0.162696,259612,178496
1643.22,0.161896,251804,173447
1646.16,0.161010,244348,168655
1649.1,0.160768,236703,163469
1652.04,0.159027,228171,158210
1655.95,0.155422,215408,150605
1658.88,0.151032,204937,144740
1661.8,0.147587,193395,137676
1664.72,0.141515,179728,129748
1667.63,0.129179,163642,121539
1670.54,0.116764,146312,111819
1673.44,0.101827,128451,101604
1677.31,0.085842,105080,86234
1680.21,0.076239,88906,74592
1683.1,0.074845,75033,63155
1685.99,0.069408,63520,54138
1688.87,0.084803,53714,44186
1691.75,0.081874,45653,37809
1694.62,0.090447,39137,31779
1697.49,0.093608,33776,27227
1701.31,0.109539,28175,21894

File: Column 1_050575_20150331_121132.csv
Method:,Column 1,,
Host Date-Time:,31/3/15 @ 12:11:32,,
Header Version:,1,,
System Temp (C):,34.21,,
Detector Temp (C):,34.41,,
Humidity (%):,1.66,,
Lamp PD:,3818,,
Shift Vector Coefficients:,-10.5391,0.0761263,-0.000134223,,
Pixel to Wavelength Coefficients:,1775.68,-0.916766,-0.000235065,,
Serial Number:,5510004,,
Scan Config Name:,Column 1,,
Scan Config Type:,Slew,,
Section 1,,
Start wavelength (nm):,900,,
End wavelength (nm):,1700,,
Pattern Pixel Width (nm):,   7.03,,,,
Exposure (ms):,  0.635,,,,
Digital Resolution:,228,,
Num Repeats:,6,,
PGA Gain:,64,,
Total Measurement Time in sec:,  2.681,,
Wavelength (nm),Absorbance (AU),Reference Signal (unitless),Sample Signal (unitless)
901.51,0.034740,108485,100145
905.376,0.041626,121306,110219
909.237,0.042801,131909,119529
913.095,0.044148,143299,129448
916.948,0.045265,156982,141444
922.079,0.047384,179937,161338
925.923,0.048834,200504,179180
929.762,0.049608,222660,198625
933.597,0.050219,244426,217735
937.427,0.047877,263972,236418
941.254,0.047909,281845,252407
945.076,0.046885,297271,266850
950.165,0.046508,315605,283554
953.978,0.046058,328029,295022
957.786,0.046135,340470,306157
961.59,0.046523,352317,316527
965.389,0.047072,363056,325763
969.185,0.046658,373162,335150
972.976,0.046984,382632,343398
976.763,0.047273,391202,350855
981.806,0.048059,400190,358267
985.583,0.048971,406088,362785
989.355,0.049738,410162,365778
993.124,0.050319,412868,367699
996.888,0.050488,414263,368798
1000.65,0.051610,415476,368923
1004.4,0.053105,415479,367658
1009.41,0.054352,414358,365615
1013.15,0.054328,412923,364369
1016.89,0.055041,411526,362540
1020.63,0.054827,409066,360551
1024.36,0.055151,406777,358266
1028.09,0.054509,404427,356723
1031.82,0.054181,401911,354772
1036.78,0.054065,398410,351775
1040.49,0.053876,396204,349980
1044.2,0.053789,394236,348311
1047.91,0.053077,392042,346941
1051.61,0.052919,389823,345103
1055.31,0.051798,388234,344584
1059,0.051302,387599,344414
1063.92,0.050588,386688,344170
1067.61,0.048994,386598,345355
1071.29,0.048966,387377,346073
1074.96,0.048715,388536,347309
1078.63,0.048159,389855,348935
1082.3,0.046748,391215,351291
1085.96,0.046591,393215,353215
1090.84,0.045268,396270,357045
1094.49,0.045217,398760,359331
1098.14,0.044893,400987,361607
1101.79,0.044600,403477,364098
1105.43,0.044908,406116,366220
1109.06,0.044614,407701,367898
1112.7,0.043929,409859,370429
1117.53,0.043995,412494,372754
1121.15,0.044314,414909,374661
1124.77,0.045124,416559,375450
1128.38,0.046557,418532,375986
1131.99,0.048203,419956,375838
1135.6,0.049979,421946,376078
1139.2,0.051594,423881,376400
1143.99,0.053849,426786,377017
1147.58,0.054976,428617,377653
1151.17,0.056376,431169,378679
1154.75,0.057255,433579,380026
1158.33,0.058941,436264,380898
1161.91,0.060718,439132,381836
1165.48,0.063818,442389,381932
1169.04,0.066056,446101,383157
1173.79,0.069526,451929,385074
1177.34,0.072166,456026,386210
1180.9,0.073989,461306,389045
1184.44,0.076713,467657,391935
1187.99,0.076826,473969,397122
1191.52,0.076445,479856,402407
1195.06,0.076960,487372,408226
1199.76,0.075840,497347,417657
1203.29,0.075149,504311,424179
1206.81,0.073866,511507,431505
1210.33,0.073146,519078,438618
1213.84,0.072609,527163,446001
1217.35,0.071512,534208,453104
1220.85,0.071145,540472,458805
1225.51,0.070191,549929,467860
1229.01,0.069678,556888,474340
1232.5,0.068788,562180,479830
1235.98,0.068331,567975,485286
1239.46,0.066945,574815,492701
1242.94,0.066350,582782,500214
1246.41,0.065713,591476,508422
1251.03,0.065296,604016,519700
1254.5,0.065575,612289,526480
1257.96,0.066108,619125,531705
1261.41,0.066304,624551,536122
1264.86,0.067009,629900,539837
1268.31,0.067612,634345,542892
1271.75,0.068655,638574,545200
1276.33,0.069013,642499,548100
1279.76,0.068933,645905,551107
1283.19,0.067766,648307,554644
1286.61,0.068065,650446,556092
1290.03,0.067628,652132,558094
1293.44,0.067067,653907,560337
1296.85,0.067013,655963,562168
1301.39,0.066471,657349,564060
1304.8,0.066589,657558,564086
1308.19,0.066762,658515,564681
1311.58,0.066707,658804,565001
1314.97,0.067026,659011,564764
1318.36,0.067846,658272,563066
1321.73,0.067889,658022,562796
1326.23,0.069097,657870,561103
1329.6,0.069998,656482,558759
1332.97,0.070715,654926,556515
1336.33,0.071938,653727,553934
1339.69,0.073688,652497,550669
1343.04,0.075290,649913,546468
1346.39,0.077649,647671,541634
1349.73,0.079498,645338,537390
1354.18,0.082661,641175,530048
1357.52,0.085007,638376,524891
1360.85,0.087501,635805,519784
1364.17,0.089665,633413,515255
1367.49,0.091877,631026,510705
1370.81,0.094246,628050,505532
1374.12,0.096149,625034,500904
1378.54,0.099895,620272,492819
1381.84,0.103450,616892,486137
1385.14,0.106563,613613,480100
1388.43,0.111237,611526,473345
1391.72,0.115791,610663,467747
1395.01,0.120482,610634,462699
1398.29,0.125514,611700,458168
1402.66,0.132788,614051,452289
1405.93,0.137739,616268,448777
1409.2,0.142944,617795,444529
1412.46,0.148112,618872,440037
1415.72,0.152248,619795,436516
1418.98,0.156034,620495,433216
1422.23,0.159951,621087,429736
1426.56,0.163967,621375,425978
1429.8,0.166721,621616,423449
1433.04,0.169550,622129,421047
1436.27,0.171290,621526,418957
1439.5,0.174226,621113,415858
1442.72,0.176586,620921,413476
1445.94,0.178675,620270,411061
1450.23,0.182842,618860,406210
1453.44,0.185664,617697,402820
1456.64,0.188671,616264,399113
1459.85,0.191651,614413,395193
1463.04,0.194696,612307,391087
1466.24,0.198146,610032,386551
1469.43,0.202450,607345,381053
1473.67,0.208107,603789,373920
1476.85,0.214467,601175,366888
1480.02,0.220895,597737,359431
1483.19,0.227557,594479,352030
1486.36,0.234375,591232,344654
1489.52,0.239486,587853,338675
1492.68,0.242944,583875,333715
1496.89,0.245586,578062,328389
1500.03,0.246401,574159,325560
1503.18,0.246403,570285,323362
1506.32,0.245183,565444,321519
1509.45,0.244116,560571,319532
1512.58,0.242442,555821,318048
1515.71,0.240191,550344,316551
1519.87,0.236996,543983,315202
1522.99,0.233750,538764,314520
1526.1,0.231455,533692,313210
1529.21,0.228640,527902,311827
1532.32,0.225093,521886,310801
1535.42,0.222045,515888,309393
1538.51,0.219094,509987,307939
1541.6,0.215615,503936,306733
1545.72,0.211157,494694,304214
1548.8,0.207671,488378,302751
1551.88,0.205664,481832,300076
1554.95,0.203794,474989,297091
1558.02,0.201335,467818,294267
1561.08,0.200396,460730,290436
1564.15,0.199695,454170,286763
1568.22,0.198671,444181,281118
1571.27,0.198031,436947,276948
1574.32,0.197513,429598,272615
1577.36,0.196518,422039,268432
1580.4,0.193681,414375,265285
1583.43,0.192867,406354,260638
1586.46,0.190632,398475,256903
1590.49,0.188372,388982,252091
1593.51,0.186195,380708,247969
1596.53,0.184058,372727,243968
1599.54,0.182211,365060,239968
1602.55,0.179602,357543,236443
1605.55,0.177779,349495,232093
1608.55,0.174658,341154,228188
1612.54,0.173353,330877,221980
1615.53,0.170458,322904,218080
1618.51,0.169883,315116,213102
1621.49,0.169844,307217,207779
1624.47,0.166867,299481,203940
1627.44,0.166068,292112,199288
1630.41,0.165057,284245,194373
1634.36,0.163219,274079,188216
1637.32,0.162769,266916,183487
1640.27,0.161690,259612,178910
1643.22,0.160983,251804,173812
1646.16,0.160755,244348,168754
1649.1,0.159333,236703,164010
1652.04,0.157451,228171,158785
1655.95,0.155595,215408,150545
1658.88,0.152237,204937,144339
1661.8,0.147836,193395,137597
1664.72,0.141542,179728,129740
1667.63,0.129158,163642,121545
1670.54,0.116295,146312,111940
1673.44,0.102267,128451,101501
1677.31,0.085912,105080,86220
1680.21,0.075436,88906,74730
1683.1,0.070459,75033,63796
1685.99,0.075874,63520,53338
1688.87,0.078722,53714,44809
1691.75,0.082345,45653,37768
1694.62,0.091254,39137,31720
1697.49,0.096152,33776,27068
1701.31,0.087212,28175,23049

File: Column 1_050575_20150331_121134.csv
Method:,Column 1,,
Host Date-Time:,31/3/15 @ 12:11:34,,
Header Version:,1,,
System Temp (C):,34.21,,
Detector Temp (C):,34.4,,
Humidity (%):,1.66,,
Lamp PD:,3818,,
Shift Vector Coefficients:,-10.5391,0.0761263,-0.000134223,,
Pixel to Wavelength Coefficients:,1775.68,-0.916766,-0.000235065,,
Serial Number:,5510004,,
Scan Config Name:,Column 1,,
Scan Config Type:,Slew,,
Section 1,,
Start wavelength (nm):,900,,
End wavelength (nm):,1700,,
Pattern Pixel Width (nm):,   7.03,,,,
Exposure (ms):,  0.635,,,,
Digital Resolution:,228,,
Num Repeats:,6,,
PGA Gain:,64,,
Total Measurement Time in sec:,  2.677,,
Wavelength (nm),Absorbance (AU),Reference Signal (unitless),Sample Signal (unitless)
901.51,0.034727,108485,100148
905.376,0.040603,121306,110479
909.237,0.043452,131909,119350
913.095,0.044131,143299,129453
916.948,0.045772,156982,141279
922.079,0.047034,179937,161468
925.923,0.049389,200504,178951
929.762,0.049200,222660,198812
933.597,0.049800,244426,217945
937.427,0.048788,263972,235923
941.254,0.048301,281845,252179
945.076,0.047488,297271,266480
950.165,0.046900,315605,283298
953.978,0.046187,328029,294934
957.786,0.047041,340470,305519
961.59,0.046335,352317,316664
965.389,0.046729,363056,326020
969.185,0.047333,373162,334630
972.976,0.047105,382632,343302
976.763,0.048308,391202,350020
981.806,0.048458,400190,357938
985.583,0.049327,406088,362488
989.355,0.049490,410162,365987
993.124,0.050037,412868,367938
996.888,0.050592,414263,368709
1000.65,0.052145,415476,368469
1004.4,0.052439,415479,368222
1009.41,0.053679,414358,366182
1013.15,0.054528,412923,364201
1016.89,0.054949,411526,362617
1020.63,0.054931,409066,360464
1024.36,0.055351,406777,358101
1028.09,0.054589,404427,356657
1031.82,0.054244,401911,354720
1036.78,0.054410,398410,351496
1040.49,0.053768,396204,350067
1044.2,0.053207,394236,348778
1047.91,0.052883,392042,347096
1051.61,0.052380,389823,345531
1055.31,0.051336,388234,344951
1059,0.051332,387599,344390
1063.92,0.050329,386688,344375
1067.61,0.049963,386598,344585
1071.29,0.049434,387377,345700
1074.96,0.049214,388536,346910
1078.63,0.047794,389855,349228
1082.3,0.047448,391215,350726
1085.96,0.046809,393215,353038
1090.84,0.045673,396270,356712
1094.49,0.045219,398760,359329
1098.14,0.045783,400987,360867
1101.79,0.044698,403477,364016
1105.43,0.044466,406116,366593
1109.06,0.044318,407701,368149
1112.7,0.044488,409859,369953
1117.53,0.044420,412494,372390
1121.15,0.045160,414909,373932
1124.77,0.045175,416559,375406
1128.38,0.046564,418532,375980
1131.99,0.048349,419956,375712
1135.6,0.049878,421946,376165
1139.2,0.051584,423881,376409
1143.99,0.053704,426786,377143
1147.58,0.055081,428617,377562
1151.17,0.056052,431169,378962
1154.75,0.057591,433579,379732
1158.33,0.058807,436264,381015
1161.91,0.060533,439132,381999
1165.48,0.063624,442389,382103
1169.04,0.065849,446101,383340
1173.79,0.069954,451929,384695
1177.34,0.072318,456026,386075
1180.9,0.074768,461306,388348
1184.44,0.076151,467657,392443
1187.99,0.077037,473969,396929
1191.52,0.077118,479856,401784
1195.06,0.076842,487372,408337
1199.76,0.075845,497347,417652
1203.29,0.074848,504311,424473
1206.81,0.074125,511507,431247
1210.33,0.073474,519078,438287
1213.84,0.072793,527163,445812
1217.35,0.071906,534208,452694
1220.85,0.073705,540472,456109
1225.51,0.070271,549929,467774
1229.01,0.069440,556888,474600
1232.5,0.069109,562180,479475
1235.98,0.068329,567975,485289
1239.46,0.067117,574815,492506
1242.94,0.066290,582782,500284
1246.41,0.065657,591476,508487
1251.03,0.065610,604016,519324
1254.5,0.065528,612289,526537
1257.96,0.065908,619125,531949
1261.41,0.066663,624551,535679
1264.86,0.067353,629900,539410
1268.31,0.067597,634345,542911
1271.75,0.068038,638574,545975
1276.33,0.068999,642499,548117
1279.76,0.068703,645905,551399
1283.19,0.068106,648307,554211
1286.61,0.067830,650446,556392
1290.03,0.067648,652132,558068
1293.44,0.067275,653907,560068
1296.85,0.066948,655963,562252
1301.39,0.066894,657349,563511
1304.8,0.066824,657558,563781
1308.19,0.066731,658515,564722
1311.58,0.067340,658804,564178
1314.97,0.067627,659011,563983
1318.36,0.068107,658272,562728
1321.73,0.068112,658022,562507
1326.23,0.069423,657870,560683
1329.6,0.070081,656482,558652
1332.97,0.071123,654926,555993
1336.33,0.071837,653727,554063
1339.69,0.073499,652497,550908
1343.04,0.075570,649913,546116
1346.39,0.077171,647671,542230
1349.73,0.079547,645338,537329
1354.18,0.082697,641175,530005
1357.52,0.084985,638376,524918
1360.85,0.087038,635805,520338
1364.17,0.089458,633413,515500
1367.49,0.091843,631026,510745
1370.81,0.094621,628050,505095
1374.12,0.096422,625034,500589
1378.54,0.099932,620272,492777
1381.84,0.103406,616892,486187
1385.14,0.107154,613613,479447
1388.43,0.111248,611526,473333
1391.72,0.115963,610663,467561
1395.01,0.120313,610634,462880
1398.29,0.125613,611700,458063
1402.66,0.132476,614051,452615
1405.93,0.137980,616268,448528
1409.2,0.143265,617795,444201
1412.46,0.148025,618872,440125
1415.72,0.152440,619795,436323
1418.98,0.156124,620495,433126
1422.23,0.159497,621087,430185
1426.56,0.164267,621375,425683
1429.8,0.166640,621616,423528
1433.04,0.169751,622129,420852
1436.27,0.171844,621526,418423
1439.5,0.173564,621113,416492
1442.72,0.176513,620921,413546
1445.94,0.179076,620270,410681
1450.23,0.183115,618860,405955
1453.44,0.185597,617697,402883
1456.64,0.188925,616264,398880
1459.85,0.191681,614413,395166
1463.04,0.194858,612307,390941
1466.24,0.198353,610032,386367
1469.43,0.201961,607345,381482
1473.67,0.208463,603789,373613
1476.85,0.214246,601175,367075
1480.02,0.220635,597737,359646
1483.19,0.227747,594479,351876
1486.36,0.234486,591232,344566
1489.52,0.239471,587853,338686
1492.68,0.242957,583875,333705
1496.89,0.245391,578062,328536
1500.03,0.246467,574159,325511
1503.18,0.246684,570285,323153
1506.32,0.245924,565444,320971
1509.45,0.244709,560571,319096
1512.58,0.242985,555821,317651
1515.71,0.240756,550344,316139
1519.87,0.237402,543983,314908
1522.99,0.234087,538764,314276
1526.1,0.231977,533692,312834
1529.21,0.228737,527902,311757
1532.32,0.226266,521886,309963
1535.42,0.222833,515888,308832
1538.51,0.219653,509987,307543
1541.6,0.215514,503936,306804
1545.72,0.211380,494694,304058
1548.8,0.208440,488378,302215
1551.88,0.205407,481832,300254
1554.95,0.203677,474989,297171
1558.02,0.201347,467818,294259
1561.08,0.200090,460730,290641
1564.15,0.200126,454170,286479
1568.22,0.199359,444181,280673
1571.27,0.197949,436947,277000
1574.32,0.196709,429598,273120
1577.36,0.195392,422039,269129
1580.4,0.194485,414375,264794
1583.43,0.192163,406354,261061
1586.46,0.190979,398475,256698
1590.49,0.189115,388982,251660
1593.51,0.186175,380708,247980
1596.53,0.184525,372727,243706
1599.54,0.182421,365060,239852
1602.55,0.179969,357543,236243
1605.55,0.177850,349495,232055
1608.55,0.174844,341154,228090
1612.54,0.172932,330877,222195
1615.53,0.171141,322904,217737
1618.51,0.170452,315116,212823
1621.49,0.169090,307217,208140
1624.47,0.167592,299481,203600
1627.44,0.166496,292112,199092
1630.41,0.165399,284245,194220
1634.36,0.164430,274079,187692
1637.32,0.162161,266916,183744
1640.27,0.161765,259612,178879
1643.22,0.160726,251804,173915
1646.16,0.161141,244348,168604
1649.1,0.159985,236703,163764
1652.04,0.158950,228171,158238
1655.95,0.154437,215408,150947
1658.88,0.150390,204937,144954
1661.8,0.147656,193395,137654
1664.72,0.139895,179728,130233
1667.63,0.128772,163642,121653
1670.54,0.115783,146312,112072
1673.44,0.104296,128451,101028
1677.31,0.085701,105080,86262
1680.21,0.073187,88906,75118
1683.1,0.072260,75033,63532
1685.99,0.074906,63520,53457
1688.87,0.077425,53714,44943
1691.75,0.086191,45653,37435
1694.62,0.088089,39137,31952
1697.49,0.096489,33776,27047
1701.31,0.095717,28175,22602