Folder: textile_sorting_NIRSCAN_/samples/wool/wool-000811 (part 166)

File: Column 1_050623_20150331_123431.csv
Method:,Column 1,,
Host Date-Time:,31/3/15 @ 12:34:31,,
Header Version:,1,,
System Temp (C):,34.11,,
Detector Temp (C):,35,,
Humidity (%):,1.56,,
Lamp PD:,3818,,
Shift Vector Coefficients:,-10.5391,0.0761263,-0.000134223,,
Pixel to Wavelength Coefficients:,1775.68,-0.916766,-0.000235065,,
Serial Number:,5510004,,
Scan Config Name:,Column 1,,
Scan Config Type:,Slew,,
Section 1,,
Start wavelength (nm):,900,,
End wavelength (nm):,1700,,
Pattern Pixel Width (nm):,   7.03,,,,
Exposure (ms):,  0.635,,,,
Digital Resolution:,228,,
Num Repeats:,6,,
PGA Gain:,64,,
Total Measurement Time in sec:,  2.720,,
Wavelength (nm),Absorbance (AU),Reference Signal (unitless),Sample Signal (unitless)
901.51,0.066406,108485,93103
905.376,0.074359,121306,102217
909.237,0.074854,131909,111025
913.095,0.076783,143299,120077
916.948,0.077314,156982,131382
922.079,0.080090,179937,149634
925.923,0.080177,200504,166704
929.762,0.081563,222660,184535
933.597,0.082246,244426,202256
937.427,0.080767,263972,219175
941.254,0.079471,281845,234714
945.076,0.077837,297271,248494
950.165,0.078044,315605,263694
953.978,0.077522,328029,274404
957.786,0.076815,340470,285275
961.59,0.076975,352317,295093
965.389,0.076685,363056,304291
969.185,0.077089,373162,312470
972.976,0.077736,382632,319923
976.763,0.077782,391202,327054
981.806,0.077723,400190,334613
985.583,0.078599,406088,338861
989.355,0.079410,410162,341622
993.124,0.079427,412868,343862
996.888,0.080323,414263,344313
1000.65,0.080792,415476,344948
1004.4,0.082020,415479,343977
1009.41,0.083623,414358,341785
1013.15,0.083683,412923,340554
1016.89,0.084936,411526,338424
1020.63,0.084018,409066,337113
1024.36,0.084191,406777,335093
1028.09,0.084339,404427,333044
1031.82,0.084130,401911,331131
1036.78,0.083192,398410,328956
1040.49,0.083436,396204,326951
1044.2,0.083248,394236,325468
1047.91,0.083139,392042,323738
1051.61,0.082648,389823,322270
1055.31,0.082831,388234,320821
1059,0.082104,387599,320833
1063.92,0.080864,386688,320994
1067.61,0.079950,386598,321595
1071.29,0.079813,387377,322345
1074.96,0.078743,388536,324107
1078.63,0.078256,389855,325572
1082.3,0.077683,391215,327139
1085.96,0.077416,393215,329014
1090.84,0.075980,396270,332668
1094.49,0.075630,398760,335028
1098.14,0.075478,400987,337017
1101.79,0.074340,403477,340000
1105.43,0.074590,406116,342027
1109.06,0.073690,407701,344074
1112.7,0.073169,409859,346310
1117.53,0.072643,412494,348959
1121.15,0.073606,414909,350225
1124.77,0.073551,416559,351662
1128.38,0.074831,418532,352288
1131.99,0.075369,419956,353049
1135.6,0.076960,421946,353425
1139.2,0.078124,423881,354095
1143.99,0.080547,426786,354538
1147.58,0.081040,428617,355655
1151.17,0.081704,431169,357226
1154.75,0.082808,433579,358311
1158.33,0.083551,436264,359914
1161.91,0.085746,439132,360453
1165.48,0.087994,442389,361252
1169.04,0.089755,446101,362809
1173.79,0.093624,451929,364289
1177.34,0.095776,456026,365775
1180.9,0.097522,461306,368525
1184.44,0.099103,467657,372241
1187.99,0.100449,473969,376098
1191.52,0.100297,479856,380903
1195.06,0.100060,487372,387080
1199.76,0.099972,497347,395082
1203.29,0.098330,504311,402132
1206.81,0.098411,511507,407794
1210.33,0.097866,519078,414349
1213.84,0.097121,527163,421526
1217.35,0.096523,534208,427747
1220.85,0.096295,540472,432990
1225.51,0.095538,549929,441335
1229.01,0.095279,556888,447187
1232.5,0.094061,562180,452704
1235.98,0.093304,567975,458168
1239.46,0.092329,574815,464728
1242.94,0.091773,582782,471773
1246.41,0.091024,591476,479638
1251.03,0.091001,604016,489832
1254.5,0.090824,612289,496744
1257.96,0.091700,619125,501278
1261.41,0.092457,624551,504790
1264.86,0.093019,629900,508455
1268.31,0.092667,634345,512458
1271.75,0.093534,638574,514846
1276.33,0.093982,642499,517476
1279.76,0.094078,645905,520105
1283.19,0.093267,648307,523015
1286.61,0.092821,650446,525279
1290.03,0.092619,652132,526886
1293.44,0.092115,653907,528933
1296.85,0.091791,655963,530992
1301.39,0.091566,657349,532390
1304.8,0.091636,657558,532473
1308.19,0.091908,658515,532915
1311.58,0.091432,658804,533733
1314.97,0.092066,659011,533122
1318.36,0.092584,658272,531889
1321.73,0.092784,658022,531443
1326.23,0.093600,657870,530323
1329.6,0.094034,656482,528675
1332.97,0.094739,654926,526567
1336.33,0.095967,653727,524118
1339.69,0.097653,652497,521105
1343.04,0.098992,649913,517444
1346.39,0.100498,647671,513874
1349.73,0.102752,645338,509372
1354.18,0.105524,641175,502866
1357.52,0.107353,638376,498567
1360.85,0.109394,635805,494231
1364.17,0.111096,633413,490446
1367.49,0.113352,631026,486066
1370.81,0.115456,628050,481436
1374.12,0.117658,625034,476701
1378.54,0.120107,620272,470408
1381.84,0.123367,616892,464346
1385.14,0.126379,613613,458686
1388.43,0.130232,611526,453088
1391.72,0.133556,610663,448999
1395.01,0.137099,610634,445330
1398.29,0.141546,611700,441563
1402.66,0.147589,614051,437135
1405.93,0.152367,616268,433913
1409.2,0.156886,617795,430485
1412.46,0.160800,618872,427367
1415.72,0.164882,619795,424000
1418.98,0.167899,620495,421540
1422.23,0.171455,621087,418502
1426.56,0.175036,621375,415258
1429.8,0.177511,621616,413058
1433.04,0.179783,622129,411242
1436.27,0.182105,621526,408653
1439.5,0.184062,621113,406545
1442.72,0.186686,620921,403971
1445.94,0.189567,620270,400879
1450.23,0.192883,618860,396926
1453.44,0.195380,617697,393909
1456.64,0.198544,616264,390142
1459.85,0.201375,614413,386443
1463.04,0.204139,612307,382675
1466.24,0.207915,610032,377953
1469.43,0.211305,607345,373362
1473.67,0.218131,603789,365388
1476.85,0.224047,601175,358884
1480.02,0.230162,597737,351842
1483.19,0.237357,594479,344175
1486.36,0.242609,591232,338181
1489.52,0.247524,587853,332464
1492.68,0.251067,583875,327531
1496.89,0.253783,578062,322249
1500.03,0.253616,574159,320196
1503.18,0.254010,570285,317747
1506.32,0.252845,565444,315896
1509.45,0.251795,560571,313932
1512.58,0.250268,555821,312368
1515.71,0.247793,550344,311058
1519.87,0.244630,543983,309710
1522.99,0.241596,538764,308889
1526.1,0.239766,533692,307273
1529.21,0.236755,527902,306054
1532.32,0.233544,521886,304812
1535.42,0.230822,515888,303203
1538.51,0.228018,509987,301676
1541.6,0.224699,503936,300384
1545.72,0.220694,494694,297607
1548.8,0.218501,488378,295294
1551.88,0.216007,481832,293014
1554.95,0.214244,474989,290028
1558.02,0.213108,467818,286397
1561.08,0.210892,460730,283501
1564.15,0.210450,454170,279749
1568.22,0.209565,444181,274154
1571.27,0.209675,436947,269621
1574.32,0.208331,429598,265908
1577.36,0.207652,422039,261638
1580.4,0.205893,414375,257929
1583.43,0.204283,406354,253876
1586.46,0.202736,398475,249842
1590.49,0.200971,388982,244883
1593.51,0.198955,380708,240789
1596.53,0.196989,372727,236811
1599.54,0.195829,365060,232560
1602.55,0.192966,357543,229278
1605.55,0.190967,349495,225151
1608.55,0.190257,341154,220137
1612.54,0.187679,330877,214777
1615.53,0.186021,322904,210403
1618.51,0.185300,315116,205670
1621.49,0.184014,307217,201109
1624.47,0.182234,299481,196850
1627.44,0.181726,292112,192231
1630.41,0.180560,284245,187557
1634.36,0.179780,274079,181174
1637.32,0.178524,266916,176950
1640.27,0.177876,259612,172365
1643.22,0.176877,251804,167566
1646.16,0.177396,244348,162410
1649.1,0.175396,236703,158055
1652.04,0.174333,228171,152731
1655.95,0.171894,215408,145000
1658.88,0.166654,204937,139626
1661.8,0.161110,193395,133455
1664.72,0.151747,179728,126727
1667.63,0.141630,163642,118104
1670.54,0.126680,146312,109295
1673.44,0.110744,128451,99539
1677.31,0.086976,105080,86009
1680.21,0.077399,88906,74393
1683.1,0.070813,75033,63744
1685.99,0.069826,63520,54086
1688.87,0.072582,53714,45447
1691.75,0.076770,45653,38256
1694.62,0.079450,39137,32594
1697.49,0.085925,33776,27713
1701.31,0.098918,28175,22436

File: Column 1_050623_20150331_123434.csv
Method:,Column 1,,
Host Date-Time:,31/3/15 @ 12:34:34,,
Header Version:,1,,
System Temp (C):,34.1,,
Detector Temp (C):,35.05,,
Humidity (%):,1.56,,
Lamp PD:,3818,,
Shift Vector Coefficients:,-10.5391,0.0761263,-0.000134223,,
Pixel to Wavelength Coefficients:,1775.68,-0.916766,-0.000235065,,
Serial Number:,5510004,,
Scan Config Name:,Column 1,,
Scan Config Type:,Slew,,
Section 1,,
Start wavelength (nm):,900,,
End wavelength (nm):,1700,,
Pattern Pixel Width (nm):,   7.03,,,,
Exposure (ms):,  0.635,,,,
Digital Resolution:,228,,
Num Repeats:,6,,
PGA Gain:,64,,
Total Measurement Time in sec:,  2.722,,
Wavelength (nm),Absorbance (AU),Reference Signal (unitless),Sample Signal (unitless)
901.51,0.068065,108485,92748
905.376,0.074546,121306,102173
909.237,0.077286,131909,110405
913.095,0.078418,143299,119626
916.948,0.079026,156982,130865
922.079,0.081646,179937,149099
925.923,0.082010,200504,166002
929.762,0.081987,222660,184355
933.597,0.083104,244426,201857
937.427,0.081187,263972,218963
941.254,0.080166,281845,234339
945.076,0.079702,297271,247429
950.165,0.078812,315605,263228
953.978,0.077476,328029,274433
957.786,0.078024,340470,284482
961.59,0.078307,352317,294189
965.389,0.077567,363056,303673
969.185,0.077423,373162,312230
972.976,0.077722,382632,319933
976.763,0.078600,391202,326438
981.806,0.079636,400190,333143
985.583,0.079937,406088,337818
989.355,0.079887,410162,341247
993.124,0.080526,412868,342993
996.888,0.080367,414263,344278
1000.65,0.081750,415476,344188
1004.4,0.082656,415479,343473
1009.41,0.083609,414358,341796
1013.15,0.084179,412923,340165
1016.89,0.084916,411526,338440
1020.63,0.084347,409066,336858
1024.36,0.085019,406777,334455
1028.09,0.084457,404427,332953
1031.82,0.084513,401911,330839
1036.78,0.083737,398410,328544
1040.49,0.083819,396204,326663
1044.2,0.083634,394236,325179
1047.91,0.082989,392042,323850
1051.61,0.083012,389823,322000
1055.31,0.082913,388234,320760
1059,0.082339,387599,320659
1063.92,0.081907,386688,320224
1067.61,0.080971,386598,320840
1071.29,0.080289,387377,321992
1074.96,0.079875,388536,323263
1078.63,0.079169,389855,324888
1082.3,0.078238,391215,326721
1085.96,0.077523,393215,328933
1090.84,0.076605,396270,332190
1094.49,0.076452,398760,334395
1098.14,0.074941,400987,337434
1101.79,0.075499,403477,339094
1105.43,0.074233,406116,342308
1109.06,0.073409,407701,344297
1112.7,0.073592,409859,345973
1117.53,0.072917,412494,348739
1121.15,0.074143,414909,349792
1124.77,0.073434,416559,351757
1128.38,0.074504,418532,352553
1131.99,0.075081,419956,353283
1135.6,0.077231,421946,353204
1139.2,0.078528,423881,353766
1143.99,0.080436,426786,354629
1147.58,0.081636,428617,355168
1151.17,0.081950,431169,357024
1154.75,0.083245,433579,357951
1158.33,0.084634,436264,359017
1161.91,0.086424,439132,359891
1165.48,0.088344,442389,360961
1169.04,0.090534,446101,362159
1173.79,0.093817,451929,364127
1177.34,0.096061,456026,365535
1180.9,0.097983,461306,368134
1184.44,0.100363,467657,371163
1187.99,0.100448,473969,376099
1191.52,0.100732,479856,380521
1195.06,0.100408,487372,386770
1199.76,0.100249,497347,394830
1203.29,0.099335,504311,401202
1206.81,0.098867,511507,407366
1210.33,0.098193,519078,414037
1213.84,0.097467,527163,421190
1217.35,0.097193,534208,427088
1220.85,0.096653,540472,432634
1225.51,0.095706,549929,441165
1229.01,0.095118,556888,447352
1232.5,0.094809,562180,451925
1235.98,0.094119,567975,457310
1239.46,0.093058,574815,463949
1242.94,0.092204,582782,471305
1246.41,0.091206,591476,479436
1251.03,0.090883,604016,489965
1254.5,0.091396,612289,496090
1257.96,0.091853,619125,501101
1261.41,0.092116,624551,505187
1264.86,0.092712,629900,508815
1268.31,0.093028,634345,512033
1271.75,0.094051,638574,514233
1276.33,0.094591,642499,516751
1279.76,0.094161,645905,520005
1283.19,0.093750,648307,522433
1286.61,0.093227,650446,524788
1290.03,0.093111,652132,526289
1293.44,0.092393,653907,528595
1296.85,0.092429,655963,530213
1301.39,0.091736,657349,532182
1304.8,0.091600,657558,532518
1308.19,0.091956,658515,532856
1311.58,0.092102,658804,532911
1314.97,0.092798,659011,532224
1318.36,0.092553,658272,531927
1321.73,0.093064,658022,531100
1326.23,0.093900,657870,529956
1329.6,0.094531,656482,528070
1332.97,0.095314,654926,525870
1336.33,0.096277,653727,523744
1339.69,0.097786,652497,520946
1343.04,0.099057,649913,517366
1346.39,0.101092,647671,513171
1349.73,0.102977,645338,509108
1354.18,0.105756,641175,502598
1357.52,0.107916,638376,497921
1360.85,0.109536,635805,494069
1364.17,0.111912,633413,489525
1367.49,0.113731,631026,485642
1370.81,0.115910,628050,480933
1374.12,0.118270,625034,476029
1378.54,0.121144,620272,469287
1381.84,0.123576,616892,464123
1385.14,0.126400,613613,458664
1388.43,0.130223,611526,453098
1391.72,0.134145,610663,448391
1395.01,0.137547,610634,444871
1398.29,0.141471,611700,441639
1402.66,0.147723,614051,437000
1405.93,0.152501,616268,433779
1409.2,0.156880,617795,430491
1412.46,0.161749,618872,426434
1415.72,0.165354,619795,423540
1418.98,0.168594,620495,420866
1422.23,0.171816,621087,418154
1426.56,0.175205,621375,415096
1429.8,0.177812,621616,412772
1433.04,0.180904,622129,410182
1436.27,0.182643,621526,408147
1439.5,0.184123,621113,406488
1442.72,0.187163,620921,403528
1445.94,0.189258,620270,401165
1450.23,0.193705,618860,396175
1453.44,0.196010,617697,393338
1456.64,0.199511,616264,389274
1459.85,0.201626,614413,386220
1463.04,0.204501,612307,382356
1466.24,0.208060,610032,377827
1469.43,0.212139,607345,372646
1473.67,0.218414,603789,365150
1476.85,0.224518,601175,358495
1480.02,0.230417,597737,351636
1483.19,0.237424,594479,344122
1486.36,0.243733,591232,337307
1489.52,0.248239,587853,331917
1492.68,0.251353,583875,327316
1496.89,0.253338,578062,322579
1500.03,0.253787,574159,320070
1503.18,0.254326,570285,317516
1506.32,0.253363,565444,315520
1509.45,0.252180,560571,313654
1512.58,0.250637,555821,312103
1515.71,0.247930,550344,310960
1519.87,0.244699,543983,309661
1522.99,0.242225,538764,308442
1526.1,0.239963,533692,307134
1529.21,0.236982,527902,305894
1532.32,0.234307,521886,304277
1535.42,0.231823,515888,302505
1538.51,0.228646,509987,301240
1541.6,0.226825,503936,298917
1545.72,0.221478,494694,297070
1548.8,0.219164,488378,294844
1551.88,0.215970,481832,293039
1554.95,0.214389,474989,289931
1558.02,0.212954,467818,286499
1561.08,0.211870,460730,282863
1564.15,0.211622,454170,278995
1568.22,0.210487,444181,273573
1571.27,0.209996,436947,269422
1574.32,0.208645,429598,265716
1577.36,0.208354,422039,261215
1580.4,0.206407,414375,257624
1583.43,0.205477,406354,253179
1586.46,0.203640,398475,249322
1590.49,0.201576,388982,244542
1593.51,0.200325,380708,240031
1596.53,0.197578,372727,236490
1599.54,0.196981,365060,231944
1602.55,0.194222,357543,228616
1605.55,0.191880,349495,224678
1608.55,0.190046,341154,220244
1612.54,0.189060,330877,214095
1615.53,0.186499,322904,210172
1618.51,0.185697,315116,205482
1621.49,0.185010,307217,200648
1624.47,0.184146,299481,195985
1627.44,0.182757,292112,191775
1630.41,0.180970,284245,187380
1634.36,0.181336,274079,180526
1637.32,0.180339,266916,176212
1640.27,0.180567,259612,171300
1643.22,0.178297,251804,167019
1646.16,0.178716,244348,161917
1649.1,0.177925,236703,157137
1652.04,0.175914,228171,152176
1655.95,0.170470,215408,145476
1658.88,0.168518,204937,139028
1661.8,0.163460,193395,132735
1664.72,0.154490,179728,125929
1667.63,0.142963,163642,117742
1670.54,0.126588,146312,109318
1673.44,0.111696,128451,99321
1677.31,0.091376,105080,85142
1680.21,0.077311,88906,74408
1683.1,0.076457,75033,62921
1685.99,0.076289,63520,53287
1688.87,0.075237,53714,45170
1691.75,0.085403,45653,37503
1694.62,0.086394,39137,32077
1697.49,0.086913,33776,27650
1701.31,0.110432,28175,21849

File: Column 1_050623_20150331_123440.csv
Method:,Column 1,,
Host Date-Time:,31/3/15 @ 12:34:40,,
Header Version:,1,,
System Temp (C):,34.12,,
Detector Temp (C):,35,,
Humidity (%):,1.56,,
Lamp PD:,3818,,
Shift Vector Coefficients:,-10.5391,0.0761263,-0.000134223,,
Pixel to Wavelength Coefficients:,1775.68,-0.916766,-0.000235065,,
Serial Number:,5510004,,
Scan Config Name:,Column 1,,
Scan Config Type:,Slew,,
Section 1,,
Start wavelength (nm):,900,,
End wavelength (nm):,1700,,
Pattern Pixel Width (nm):,   7.03,,,,
Exposure (ms):,  0.635,,,,
Digital Resolution:,228,,
Num Repeats:,6,,
PGA Gain:,64,,
Total Measurement Time in sec:,  2.687,,
Wavelength (nm),Absorbance (AU),Reference Signal (unitless),Sample Signal (unitless)
901.51,0.069458,108485,92451
905.376,0.074346,121306,102220
909.237,0.076987,131909,110481
913.095,0.076830,143299,120064
916.948,0.078416,156982,131049
922.079,0.081515,179937,149144
925.923,0.083071,200504,165597
929.762,0.082673,222660,184064
933.597,0.082444,244426,202164
937.427,0.080842,263972,219137
941.254,0.079858,281845,234505
945.076,0.079986,297271,247267
950.165,0.078526,315605,263401
953.978,0.077326,328029,274528
957.786,0.077551,340470,284792
961.59,0.078192,352317,294267
965.389,0.077249,363056,303896
969.185,0.076577,373162,312839
972.976,0.077775,382632,319894
976.763,0.078374,391202,326608
981.806,0.078933,400190,333682
985.583,0.079348,406088,338277
989.355,0.079973,410162,341179
993.124,0.080383,412868,343106
996.888,0.081089,414263,343706
1000.65,0.081363,415476,344495
1004.4,0.082323,415479,343737
1009.41,0.083665,414358,341752
1013.15,0.084707,412923,339752
1016.89,0.085126,411526,338276
1020.63,0.084531,409066,336715
1024.36,0.085026,406777,334449
1028.09,0.084345,404427,333039
1031.82,0.084282,401911,331015
1036.78,0.084372,398410,328064
1040.49,0.083912,396204,326593
1044.2,0.083590,394236,325212
1047.91,0.083496,392042,323472
1051.61,0.083035,389823,321983
1055.31,0.082861,388234,320799
1059,0.081790,387599,321065
1063.92,0.081750,386688,320340
1067.61,0.080941,386598,320862
1071.29,0.079922,387377,322264
1074.96,0.079421,388536,323601
1078.63,0.078576,389855,325332
1082.3,0.078276,391215,326693
1085.96,0.077375,393215,329045
1090.84,0.076827,396270,332020
1094.49,0.076287,398760,334522
1098.14,0.075592,400987,336929
1101.79,0.075138,403477,339376
1105.43,0.074943,406116,341749
1109.06,0.074119,407701,343734
1112.7,0.073395,409859,346130
1117.53,0.073398,412494,348353
1121.15,0.072617,414909,351023
1124.77,0.074209,416559,351130
1128.38,0.075165,418532,352017
1131.99,0.075710,419956,352772
1135.6,0.076704,421946,353633
1139.2,0.079131,423881,353275
1143.99,0.080686,426786,354425
1147.58,0.080740,428617,355901
1151.17,0.081912,431169,357055
1154.75,0.082319,433579,358715
1158.33,0.084250,436264,359335
1161.91,0.086065,439132,360189
1165.48,0.088420,442389,360898
1169.04,0.090648,446101,362064
1173.79,0.094224,451929,363786
1177.34,0.096076,456026,365522
1180.9,0.097480,461306,368561
1184.44,0.099884,467657,371572
1187.99,0.101097,473969,375537
1191.52,0.100268,479856,380928
1195.06,0.100598,487372,386601
1199.76,0.100523,497347,394581
1203.29,0.099250,504311,401281
1206.81,0.098960,511507,407279
1210.33,0.097778,519078,414433
1213.84,0.097458,527163,421199
1217.35,0.096955,534208,427322
1220.85,0.096148,540472,433137
1225.51,0.095209,549929,441670
1229.01,0.095393,556888,447069
1232.5,0.094655,562180,452085
1235.98,0.094088,567975,457342
1239.46,0.092839,574815,464183
1242.94,0.091945,582782,471586
1246.41,0.091601,591476,479001
1251.03,0.090794,604016,490066
1254.5,0.091185,612289,496331
1257.96,0.091670,619125,501312
1261.41,0.092486,624551,504757
1264.86,0.093079,629900,508385
1268.31,0.093191,634345,511840
1271.75,0.094102,638574,514173
1276.33,0.094259,642499,517146
1279.76,0.094146,645905,520023
1283.19,0.093660,648307,522541
1286.61,0.093380,650446,524604
1290.03,0.092626,652132,526877
1293.44,0.092010,653907,529061
1296.85,0.092297,655963,530374
1301.39,0.091929,657349,531945
1304.8,0.091598,657558,532520
1308.19,0.091836,658515,533003
1311.58,0.092080,658804,532938
1314.97,0.092535,659011,532547
1318.36,0.092562,658272,531917
1321.73,0.093090,658022,531068
1326.23,0.093905,657870,529950
1329.6,0.094761,656482,527791
1332.97,0.095372,654926,525799
1336.33,0.096214,653727,523820
1339.69,0.097668,652497,521087
1343.04,0.099390,649913,516970
1346.39,0.101119,647671,513140
1349.73,0.102854,645338,509253
1354.18,0.105727,641175,502631
1357.52,0.107726,638376,498139
1360.85,0.109371,635805,494257
1364.17,0.111489,633413,490002
1367.49,0.113727,631026,485647
1370.81,0.115708,628050,481156
1374.12,0.117754,625034,476595
1378.54,0.120798,620272,469661
1381.84,0.123744,616892,463944
1385.14,0.126539,613613,458517
1388.43,0.129906,611526,453429
1391.72,0.133907,610663,448637
1395.01,0.137574,610634,444843
1398.29,0.141642,611700,441465
1402.66,0.148279,614051,436441
1405.93,0.152370,616268,433910
1409.2,0.157028,617795,430345
1412.46,0.161127,618872,427045
1415.72,0.165151,619795,423738
1418.98,0.168208,620495,421241
1422.23,0.171300,621087,418651
1426.56,0.175418,621375,414893
1429.8,0.178169,621616,412433
1433.04,0.180409,622129,410650
1436.27,0.182558,621526,408227
1439.5,0.183945,621113,406655
1442.72,0.186760,620921,403902
1445.94,0.189824,620270,400642
1450.23,0.193207,618860,396630
1453.44,0.196082,617697,393272
1456.64,0.198777,616264,389933
1459.85,0.201565,614413,386274
1463.04,0.204269,612307,382561
1466.24,0.207938,610032,377933
1469.43,0.211911,607345,372842
1473.67,0.218212,603789,365320
1476.85,0.224420,601175,358576
1480.02,0.230299,597737,351731
1483.19,0.237110,594479,344371
1486.36,0.243453,591232,337524
1489.52,0.248433,587853,331769
1492.68,0.251718,583875,327041
1496.89,0.254059,578062,322044
1500.03,0.254181,574159,319780
1503.18,0.253565,570285,318073
1506.32,0.253580,565444,315362
1509.45,0.251960,560571,313813
1512.58,0.250688,555821,312066
1515.71,0.247838,550344,311026
1519.87,0.244843,543983,309558
1522.99,0.242572,538764,308196
1526.1,0.240335,533692,306871
1529.21,0.237122,527902,305796
1532.32,0.233943,521886,304532
1535.42,0.231580,515888,302674
1538.51,0.228706,509987,301199
1541.6,0.225411,503936,299892
1545.72,0.220952,494694,297430
1548.8,0.218153,488378,295531
1551.88,0.215825,481832,293137
1554.95,0.214759,474989,289684
1558.02,0.212760,467818,286627
1561.08,0.212247,460730,282618
1564.15,0.211216,454170,279256
1568.22,0.209615,444181,274123
1571.27,0.209815,436947,269534
1574.32,0.209111,429598,265431
1577.36,0.208085,422039,261377
1580.4,0.206793,414375,257395
1583.43,0.204971,406354,253474
1586.46,0.203165,398475,249595
1590.49,0.202113,388982,244240
1593.51,0.200254,380708,240070
1596.53,0.197527,372727,236518
1599.54,0.196532,365060,232184
1602.55,0.194988,357543,228213
1605.55,0.192304,349495,224459
1608.55,0.189528,341154,220507
1612.54,0.187946,330877,214645
1615.53,0.186689,322904,210080
1618.51,0.185327,315116,205657
1621.49,0.184695,307217,200794
1624.47,0.183794,299481,196144
1627.44,0.182941,292112,191694
1630.41,0.182067,284245,186907
1634.36,0.180008,274079,181079
1637.32,0.178905,266916,176795
1640.27,0.179135,259612,171866
1643.22,0.178838,251804,166811
1646.16,0.177546,244348,162354
1649.1,0.177050,236703,157454
1652.04,0.174538,228171,152659
1655.95,0.171705,215408,145063
1658.88,0.168887,204937,138910
1661.8,0.162884,193395,132911
1664.72,0.154228,179728,126005
1667.63,0.142388,163642,117898
1670.54,0.126537,146312,109331
1673.44,0.111823,128451,99292
1677.31,0.090571,105080,85300
1680.21,0.078873,88906,74141
1683.1,0.071065,75033,63707
1685.99,0.071475,63520,53881
1688.87,0.077841,53714,44900
1691.75,0.077497,45653,38192
1694.62,0.082700,39137,32351
1697.49,0.088991,33776,27518
1701.31,0.106160,28175,22065