Folder: textile_sorting_NIRSCAN_/samples/wool/wool-000811 (part 111)

File: Column 1_050592_20150331_121956.csv
Method:,Column 1,,
Host Date-Time:,31/3/15 @ 12:19:56,,
Header Version:,1,,
System Temp (C):,33.91,,
Detector Temp (C):,34.62,,
Humidity (%):,1.76,,
Lamp PD:,3818,,
Shift Vector Coefficients:,-10.5391,0.0761263,-0.000134223,,
Pixel to Wavelength Coefficients:,1775.68,-0.916766,-0.000235065,,
Serial Number:,5510004,,
Scan Config Name:,Column 1,,
Scan Config Type:,Slew,,
Section 1,,
Start wavelength (nm):,900,,
End wavelength (nm):,1700,,
Pattern Pixel Width (nm):,   7.03,,,,
Exposure (ms):,  0.635,,,,
Digital Resolution:,228,,
Num Repeats:,6,,
PGA Gain:,64,,
Total Measurement Time in sec:,  2.675,,
Wavelength (nm),Absorbance (AU),Reference Signal (unitless),Sample Signal (unitless)
901.51,0.068960,108485,92557
905.376,0.075683,121306,101906
909.237,0.076665,131909,110563
913.095,0.077565,143299,119861
916.948,0.079262,156982,130794
922.079,0.080291,179937,149565
925.923,0.081631,200504,166147
929.762,0.082117,222660,184300
933.597,0.082426,244426,202172
937.427,0.081556,263972,218777
941.254,0.080867,281845,233961
945.076,0.079567,297271,247506
950.165,0.079416,315605,262862
953.978,0.078774,328029,273614
957.786,0.078444,340470,284207
961.59,0.079138,352317,293627
965.389,0.078254,363056,303193
969.185,0.079073,373162,311046
972.976,0.079102,382632,318918
976.763,0.079893,391202,325468
981.806,0.080587,400190,332414
985.583,0.081418,406088,336668
989.355,0.081608,410162,339897
993.124,0.081734,412868,342040
996.888,0.082138,414263,342877
1000.65,0.082957,415476,343233
1004.4,0.083470,415479,342830
1009.41,0.084970,414358,340726
1013.15,0.085835,412923,338871
1016.89,0.085995,411526,337600
1020.63,0.085995,409066,335582
1024.36,0.086240,406777,333516
1028.09,0.085439,404427,332201
1031.82,0.085906,401911,329780
1036.78,0.085898,398410,326913
1040.49,0.085830,396204,325154
1044.2,0.085698,394236,323637
1047.91,0.084627,392042,322631
1051.61,0.084257,389823,321078
1055.31,0.084495,388234,319594
1059,0.083064,387599,320124
1063.92,0.082956,386688,319451
1067.61,0.082642,386598,319608
1071.29,0.081931,387377,320777
1074.96,0.081082,388536,322366
1078.63,0.080382,389855,323982
1082.3,0.079436,391215,325821
1085.96,0.078869,393215,327915
1090.84,0.078094,396270,331053
1094.49,0.077777,398760,333376
1098.14,0.077513,400987,335442
1101.79,0.076840,403477,338048
1105.43,0.076958,406116,340167
1109.06,0.075915,407701,342316
1112.7,0.075159,409859,344727
1117.53,0.074912,412494,347141
1121.15,0.075431,414909,348756
1124.77,0.076036,416559,349656
1128.38,0.076715,418532,350763
1131.99,0.077555,419956,351276
1135.6,0.079359,421946,351478
1139.2,0.080211,423881,352398
1143.99,0.082199,426786,353192
1147.58,0.083255,428617,353846
1151.17,0.084172,431169,355202
1154.75,0.085391,433579,356186
1158.33,0.086900,436264,357149
1161.91,0.088425,439132,358237
1165.48,0.090520,442389,359157
1169.04,0.093213,446101,359932
1173.79,0.095985,451929,362314
1177.34,0.097832,456026,364047
1180.9,0.100232,461306,366233
1184.44,0.101817,467657,369922
1187.99,0.103036,473969,373864
1191.52,0.103209,479856,378357
1195.06,0.102632,487372,384794
1199.76,0.102431,497347,392852
1203.29,0.101719,504311,399006
1206.81,0.101200,511507,405183
1210.33,0.100631,519078,411720
1213.84,0.099784,527163,418949
1217.35,0.099426,534208,424898
1220.85,0.098530,540472,430768
1225.51,0.097743,549929,439100
1229.01,0.097487,556888,444919
1232.5,0.096887,562180,449768
1235.98,0.096352,567975,454964
1239.46,0.095289,574815,461572
1242.94,0.094247,582782,469093
1246.41,0.093795,591476,476587
1251.03,0.093232,604016,487322
1254.5,0.093558,612289,493626
1257.96,0.094150,619125,498458
1261.41,0.094370,624551,502571
1264.86,0.094939,629900,506212
1268.31,0.095567,634345,509048
1271.75,0.096484,638574,511360
1276.33,0.096431,642499,514567
1279.76,0.096283,645905,517471
1283.19,0.095862,648307,519899
1286.61,0.096058,650446,521379
1290.03,0.095178,652132,523790
1293.44,0.094862,653907,525598
1296.85,0.095065,655963,527005
1301.39,0.094718,657349,528540
1304.8,0.094274,657558,529249
1308.19,0.094602,658515,529619
1311.58,0.094749,658804,529672
1314.97,0.095344,659011,529113
1318.36,0.095526,658272,528299
1321.73,0.096450,658022,526975
1326.23,0.096752,657870,526488
1329.6,0.097551,656482,524411
1332.97,0.098607,654926,521898
1336.33,0.099808,653727,519504
1339.69,0.101443,652497,516577
1343.04,0.103042,649913,512641
1346.39,0.104695,647671,508932
1349.73,0.106657,645338,504813
1354.18,0.109879,641175,497849
1357.52,0.111617,638376,493696
1360.85,0.113575,635805,489496
1364.17,0.115699,633413,485275
1367.49,0.117853,631026,481054
1370.81,0.120003,628050,476421
1374.12,0.122557,625034,471353
1378.54,0.125310,620272,464806
1381.84,0.128318,616892,459083
1385.14,0.131562,613613,453245
1388.43,0.135663,611526,447458
1391.72,0.139894,610663,442494
1395.01,0.143903,610634,438408
1398.29,0.148970,611700,434079
1402.66,0.156023,614051,428728
1405.93,0.161150,616268,425226
1409.2,0.166114,617795,421435
1412.46,0.171109,618872,417342
1415.72,0.174814,619795,414414
1418.98,0.178851,620495,411043
1422.23,0.182537,621087,407958
1426.56,0.186240,621375,404682
1429.8,0.189057,621616,402221
1433.04,0.191495,622129,400300
1436.27,0.193648,621526,397934
1439.5,0.195321,621113,396141
1442.72,0.198786,620921,392871
1445.94,0.200776,620270,390665
1450.23,0.203640,618860,387215
1453.44,0.206774,617697,383709
1456.64,0.209220,616264,380668
1459.85,0.212051,614413,377059
1463.04,0.214858,612307,373346
1466.24,0.217463,610032,369734
1469.43,0.221283,607345,364882
1473.67,0.226791,603789,358174
1476.85,0.231950,601175,352412
1480.02,0.237684,597737,345801
1483.19,0.244047,594479,338914
1486.36,0.249232,591232,333063
1489.52,0.253503,587853,327918
1492.68,0.256990,583875,323095
1496.89,0.259014,578062,318391
1500.03,0.260471,574159,315182
1503.18,0.259209,570285,313966
1506.32,0.258933,565444,311499
1509.45,0.257503,560571,309833
1512.58,0.255400,555821,308699
1515.71,0.253369,550344,307090
1519.87,0.251404,543983,304917
1522.99,0.247884,538764,304449
1526.1,0.245592,533692,303179
1529.21,0.242367,527902,302125
1532.32,0.240188,521886,300184
1535.42,0.236518,515888,299252
1538.51,0.233989,509987,297557
1541.6,0.231935,503936,295420
1545.72,0.227702,494694,292843
1548.8,0.224344,488378,291348
1551.88,0.221905,481832,289062
1554.95,0.220122,474989,286129
1558.02,0.218700,467818,282733
1561.08,0.217684,460730,279102
1564.15,0.216775,454170,275704
1568.22,0.215648,444181,270341
1571.27,0.214516,436947,266632
1574.32,0.214100,429598,262399
1577.36,0.213331,422039,258239
1580.4,0.211892,414375,254391
1583.43,0.209917,406354,250604
1586.46,0.208898,398475,246322
1590.49,0.206450,388982,241813
1593.51,0.204788,380708,237577
1596.53,0.203048,372727,233530
1599.54,0.200772,365060,229928
1602.55,0.199410,357543,225901
1605.55,0.196742,349495,222177
1608.55,0.194376,341154,218059
1612.54,0.192477,330877,212417
1615.53,0.191399,322904,207814
1618.51,0.190525,315116,203210
1621.49,0.189040,307217,198795
1624.47,0.187876,299481,194309
1627.44,0.187686,292112,189611
1630.41,0.186096,284245,185181
1634.36,0.184523,274079,179206
1637.32,0.184010,266916,174729
1640.27,0.184750,259612,169658
1643.22,0.183476,251804,165039
1646.16,0.181561,244348,160860
1649.1,0.180434,236703,156232
1652.04,0.177934,228171,151470
1655.95,0.175406,215408,143832
1658.88,0.171918,204937,137944
1661.8,0.168300,193395,131264
1664.72,0.159464,179728,124495
1667.63,0.146746,163642,116721
1670.54,0.133544,146312,107581
1673.44,0.118638,128451,97746
1677.31,0.097008,105080,84045
1680.21,0.085584,88906,73004
1683.1,0.079838,75033,62433
1685.99,0.078463,63520,53021
1688.87,0.085482,53714,44117
1691.75,0.092137,45653,36926
1694.62,0.094511,39137,31483
1697.49,0.097598,33776,26978
1701.31,0.109936,28175,21874

File: Column 1_050592_20150331_122001.csv
Method:,Column 1,,
Host Date-Time:,31/3/15 @ 12:20:1,,
Header Version:,1,,
System Temp (C):,33.9,,
Detector Temp (C):,34.66,,
Humidity (%):,1.76,,
Lamp PD:,3818,,
Shift Vector Coefficients:,-10.5391,0.0761263,-0.000134223,,
Pixel to Wavelength Coefficients:,1775.68,-0.916766,-0.000235065,,
Serial Number:,5510004,,
Scan Config Name:,Column 1,,
Scan Config Type:,Slew,,
Section 1,,
Start wavelength (nm):,900,,
End wavelength (nm):,1700,,
Pattern Pixel Width (nm):,   7.03,,,,
Exposure (ms):,  0.635,,,,
Digital Resolution:,228,,
Num Repeats:,6,,
PGA Gain:,64,,
Total Measurement Time in sec:,  2.735,,
Wavelength (nm),Absorbance (AU),Reference Signal (unitless),Sample Signal (unitless)
901.51,0.070182,108485,92297
905.376,0.076373,121306,101744
909.237,0.077502,131909,110350
913.095,0.078886,143299,119497
916.948,0.080196,156982,130513
922.079,0.081818,179937,149040
925.923,0.082376,200504,165862
929.762,0.083455,222660,183733
933.597,0.082994,244426,201908
937.427,0.081908,263972,218600
941.254,0.081660,281845,233534
945.076,0.080087,297271,247210
950.165,0.079553,315605,262779
953.978,0.079254,328029,273312
957.786,0.079014,340470,283834
961.59,0.079129,352317,293633
965.389,0.079970,363056,301998
969.185,0.079337,373162,310857
972.976,0.079655,382632,318512
976.763,0.080200,391202,325238
981.806,0.080656,400190,332361
985.583,0.081043,406088,336959
989.355,0.082105,410162,339508
993.124,0.081860,412868,341941
996.888,0.082555,414263,342548
1000.65,0.082929,415476,343255
1004.4,0.084023,415479,342394
1009.41,0.085629,414358,340210
1013.15,0.086041,412923,338710
1016.89,0.086569,411526,337154
1020.63,0.086267,409066,335372
1024.36,0.086323,406777,333452
1028.09,0.086443,404427,331434
1031.82,0.085804,401911,329857
1036.78,0.085864,398410,326939
1040.49,0.085784,396204,325188
1044.2,0.085210,394236,324001
1047.91,0.084427,392042,322779
1051.61,0.083934,389823,321317
1055.31,0.084745,388234,319410
1059,0.083785,387599,319593
1063.92,0.083307,386688,319193
1067.61,0.082744,386598,319533
1071.29,0.081753,387377,320908
1074.96,0.081528,388536,322035
1078.63,0.080652,389855,323781
1082.3,0.079965,391215,325425
1085.96,0.079103,393215,327738
1090.84,0.078296,396270,330899
1094.49,0.078153,398760,333088
1098.14,0.077471,400987,335474
1101.79,0.077512,403477,337526
1105.43,0.076580,406116,340463
1109.06,0.076191,407701,342098
1112.7,0.075579,409859,344394
1117.53,0.075076,412494,347010
1121.15,0.075562,414909,348651
1124.77,0.076188,416559,349533
1128.38,0.077170,418532,350396
1131.99,0.077884,419956,351010
1135.6,0.079790,421946,351129
1139.2,0.080768,423881,351946
1143.99,0.082837,426786,352674
1147.58,0.083592,428617,353572
1151.17,0.085036,431169,354496
1154.75,0.085811,433579,355842
1158.33,0.087022,436264,357049
1161.91,0.088182,439132,358437
1165.48,0.090502,442389,359172
1169.04,0.092902,446101,360190
1173.79,0.095820,451929,362452
1177.34,0.098706,456026,363315
1180.9,0.100420,461306,366074
1184.44,0.101895,467657,369856
1187.99,0.102934,473969,373952
1191.52,0.103323,479856,378258
1195.06,0.103047,487372,384427
1199.76,0.102933,497347,392398
1203.29,0.101950,504311,398794
1206.81,0.101118,511507,405260
1210.33,0.100747,519078,411610
1213.84,0.100270,527163,418480
1217.35,0.099181,534208,425137
1220.85,0.098803,540472,430497
1225.51,0.098806,549929,438027
1229.01,0.097751,556888,444649
1232.5,0.097596,562180,449034
1235.98,0.096381,567975,454934
1239.46,0.095314,574815,461545
1242.94,0.094401,582782,468927
1246.41,0.093707,591476,476684
1251.03,0.093896,604016,486578
1254.5,0.093765,612289,493391
1257.96,0.094246,619125,498347
1261.41,0.095000,624551,501843
1264.86,0.095335,629900,505751
1268.31,0.095691,634345,508903
1271.75,0.096336,638574,511535
1276.33,0.096904,642499,514006
1279.76,0.096579,645905,517118
1283.19,0.095853,648307,519910
1286.61,0.095858,650446,521619
1290.03,0.095444,652132,523470
1293.44,0.094804,653907,525669
1296.85,0.094865,655963,527247
1301.39,0.094898,657349,528321
1304.8,0.094387,657558,529111
1308.19,0.094361,658515,529913
1311.58,0.094536,658804,529932
1314.97,0.095397,659011,529049
1318.36,0.095958,658272,527773
1321.73,0.096118,658022,527378
1326.23,0.097597,657870,525464
1329.6,0.097784,656482,524130
1332.97,0.098776,654926,521695
1336.33,0.099809,653727,519502
1339.69,0.101186,652497,516883
1343.04,0.103388,649913,512233
1346.39,0.105001,647671,508573
1349.73,0.106877,645338,504557
1354.18,0.109827,641175,497909
1357.52,0.111748,638376,493547
1360.85,0.113865,635805,489169
1364.17,0.115740,633413,485229
1367.49,0.118285,631026,480576
1370.81,0.120386,628050,476001
1374.12,0.122796,625034,471094
1378.54,0.125369,620272,464743
1381.84,0.129019,616892,458342
1385.14,0.131550,613613,453257
1388.43,0.135758,611526,447360
1391.72,0.140164,610663,442219
1395.01,0.144240,610634,438067
1398.29,0.149019,611700,434030
1402.66,0.155970,614051,428780
1405.93,0.161288,616268,425091
1409.2,0.166338,617795,421217
1412.46,0.171028,618872,417420
1415.72,0.175095,619795,414146
1418.98,0.179208,620495,410705
1422.23,0.182601,621087,407898
1426.56,0.186314,621375,404613
1429.8,0.188884,621616,402382
1433.04,0.191781,622129,400036
1436.27,0.193694,621526,397892
1439.5,0.195553,621113,395929
1442.72,0.198051,620921,393537
1445.94,0.200433,620270,390974
1450.23,0.203874,618860,387007
1453.44,0.206668,617697,383802
1456.64,0.209895,616264,380077
1459.85,0.212197,614413,376932
1463.04,0.214333,612307,373797
1466.24,0.218034,610032,369248
1469.43,0.221562,607345,364648
1473.67,0.227167,603789,357864
1476.85,0.232946,601175,351605
1480.02,0.237567,597737,345894
1483.19,0.243912,594479,339019
1486.36,0.250162,591232,332350
1489.52,0.254323,587853,327300
1492.68,0.257100,583875,323013
1496.89,0.259184,578062,318266
1500.03,0.260351,574159,315269
1503.18,0.259989,570285,313403
1506.32,0.259156,565444,311339
1509.45,0.257938,560571,309523
1512.58,0.256185,555821,308141
1515.71,0.254256,550344,306463
1519.87,0.250967,543983,305224
1522.99,0.248925,538764,303720
1526.1,0.245762,533692,303060
1529.21,0.243596,527902,301271
1532.32,0.240404,521886,300035
1535.42,0.237075,515888,298869
1538.51,0.233489,509987,297900
1541.6,0.232212,503936,295232
1545.72,0.228128,494694,292556
1548.8,0.224697,488378,291111
1551.88,0.223000,481832,288334
1554.95,0.220694,474989,285752
1558.02,0.218206,467818,283055
1561.08,0.217131,460730,279457
1564.15,0.216788,454170,275696
1568.22,0.215992,444181,270127
1571.27,0.215116,436947,266264
1574.32,0.214272,429598,262295
1577.36,0.213551,422039,258108
1580.4,0.212464,414375,254056
1583.43,0.210076,406354,250512
1586.46,0.208614,398475,246483
1590.49,0.206779,388982,241630
1593.51,0.205104,380708,237404
1596.53,0.203212,372727,233442
1599.54,0.201245,365060,229678
1602.55,0.199068,357543,226079
1605.55,0.197814,349495,221629
1608.55,0.195066,341154,217713
1612.54,0.193763,330877,211789
1615.53,0.191340,322904,207842
1618.51,0.190367,315116,203284
1621.49,0.188900,307217,198859
1624.47,0.188411,299481,194070
1627.44,0.187890,292112,189522
1630.41,0.186789,284245,184886
1634.36,0.185059,274079,178985
1637.32,0.185224,266916,174241
1640.27,0.184034,259612,169938
1643.22,0.183892,251804,164881
1646.16,0.183027,244348,160318
1649.1,0.181021,236703,156021
1652.04,0.179183,228171,151035
1655.95,0.177267,215408,143217
1658.88,0.172933,204937,137622
1661.8,0.166958,193395,131670
1664.72,0.159712,179728,124424
1667.63,0.148057,163642,116369
1670.54,0.133956,146312,107479
1673.44,0.118021,128451,97885
1677.31,0.099600,105080,83545
1680.21,0.085793,88906,72969
1683.1,0.085827,75033,61578
1685.99,0.086456,63520,52054
1688.87,0.085590,53714,44106
1691.75,0.089592,45653,37143
1694.62,0.096211,39137,31360
1697.49,0.098985,33776,26892
1701.31,0.110591,28175,21841

File: Column 1_050593_20150331_122010.csv
Method:,Column 1,,
Host Date-Time:,31/3/15 @ 12:20:10,,
Header Version:,1,,
System Temp (C):,33.91,,
Detector Temp (C):,34.61,,
Humidity (%):,1.76,,
Lamp PD:,3819,,
Shift Vector Coefficients:,-10.5391,0.0761263,-0.000134223,,
Pixel to Wavelength Coefficients:,1775.68,-0.916766,-0.000235065,,
Serial Number:,5510004,,
Scan Config Name:,Column 1,,
Scan Config Type:,Slew,,
Section 1,,
Start wavelength (nm):,900,,
End wavelength (nm):,1700,,
Pattern Pixel Width (nm):,   7.03,,,,
Exposure (ms):,  0.635,,,,
Digital Resolution:,228,,
Num Repeats:,6,,
PGA Gain:,64,,
Total Measurement Time in sec:,  2.731,,
Wavelength (nm),Absorbance (AU),Reference Signal (unitless),Sample Signal (unitless)
901.51,0.069970,108485,92342
905.376,0.076019,121306,101827
909.237,0.077179,131909,110432
913.095,0.079384,143299,119360
916.948,0.078423,156982,131047
922.079,0.082092,179937,148946
925.923,0.081840,200504,166067
929.762,0.082369,222660,184193
933.597,0.083185,244426,201819
937.427,0.082021,263972,218543
941.254,0.081110,281845,233830
945.076,0.079614,297271,247479
950.165,0.078959,315605,263139
953.978,0.078618,328029,273712
957.786,0.078589,340470,284112
961.59,0.078703,352317,293921
965.389,0.079149,363056,302569
969.185,0.079090,373162,311034
972.976,0.079301,382632,318772
976.763,0.079783,391202,325550
981.806,0.079740,400190,333063
985.583,0.080506,406088,337376
989.355,0.081381,410162,340075
993.124,0.081634,412868,342119
996.888,0.082280,414263,342765
1000.65,0.082875,415476,343298
1004.4,0.083996,415479,342415
1009.41,0.085200,414358,340546
1013.15,0.085601,412923,339053
1016.89,0.086148,411526,337481
1020.63,0.086068,409066,335525
1024.36,0.086098,406777,333625
1028.09,0.086195,404427,331623
1031.82,0.085784,401911,329872
1036.78,0.085571,398410,327159
1040.49,0.085399,396204,325477
1044.2,0.084903,394236,324230
1047.91,0.084657,392042,322608
1051.61,0.084350,389823,321009
1055.31,0.084411,388234,319656
1059,0.083977,387599,319452
1063.92,0.083241,386688,319242
1067.61,0.081696,386598,320305
1071.29,0.082001,387377,320725
1074.96,0.081449,388536,322094
1078.63,0.081005,389855,323518
1082.3,0.079998,391215,325400
1085.96,0.079155,393215,327699
1090.84,0.078649,396270,330630
1094.49,0.078121,398760,333112
1098.14,0.077189,400987,335692
1101.79,0.076423,403477,338373
1105.43,0.076421,406116,340588
1109.06,0.075585,407701,342576
1112.7,0.075497,409859,344459
1117.53,0.074772,412494,347253
1121.15,0.075890,414909,348388
1124.77,0.075941,416559,349732
1128.38,0.076605,418532,350852
1131.99,0.077581,419956,351255
1135.6,0.079425,421946,351424
1139.2,0.080356,423881,352280
1143.99,0.082151,426786,353231
1147.58,0.083614,428617,353554
1151.17,0.084453,431169,354972
1154.75,0.085307,433579,356255
1158.33,0.086958,436264,357101
1161.91,0.088534,439132,358147
1165.48,0.090899,442389,358844
1169.04,0.092415,446101,360594
1173.79,0.096581,451929,361817
1177.34,0.097947,456026,363951
1180.9,0.100557,461306,365959
1184.44,0.102087,467657,369692
1187.99,0.103001,473969,373894
1191.52,0.102537,479856,378943
1195.06,0.103079,487372,384398
1199.76,0.102205,497347,393056
1203.29,0.101683,504311,399039
1206.81,0.101393,511507,405003
1210.33,0.100452,519078,411889
1213.84,0.099955,527163,418784
1217.35,0.099727,534208,424603
1220.85,0.098761,540472,430539
1225.51,0.098003,549929,438837
1229.01,0.097441,556888,444966
1232.5,0.096437,562180,450234
1235.98,0.096588,567975,454717
1239.46,0.095558,574815,461286
1242.94,0.094195,582782,469149
1246.41,0.093656,591476,476740
1251.03,0.093746,604016,486746
1254.5,0.093895,612289,493244
1257.96,0.094033,619125,498592
1261.41,0.094997,624551,501847
1264.86,0.095024,629900,506113
1268.31,0.095629,634345,508975
1271.75,0.096386,638574,511476
1276.33,0.096671,642499,514282
1279.76,0.096653,645905,517030
1283.19,0.095684,648307,520112
1286.61,0.095723,650446,521781
1290.03,0.095134,652132,523843
1293.44,0.095023,653907,525404
1296.85,0.094468,655963,527729
1301.39,0.093656,657349,529834
1304.8,0.094218,657558,529317
1308.19,0.094954,658515,529190
1311.58,0.094825,658804,529580
1314.97,0.095189,659011,529302
1318.36,0.095829,658272,527930
1321.73,0.096173,658022,527312
1326.23,0.096538,657870,526747
1329.6,0.097655,656482,524285
1332.97,0.098587,654926,521921
1336.33,0.099538,653727,519827
1339.69,0.101214,652497,516850
1343.04,0.102994,649913,512698
1346.39,0.104442,647671,509228
1349.73,0.106756,645338,504698
1354.18,0.109419,641175,498376
1357.52,0.110986,638376,494414
1360.85,0.113457,635805,489629
1364.17,0.115426,633413,485580
1367.49,0.117636,631026,481295
1370.81,0.119838,628050,476602
1374.12,0.122041,625034,471914
1378.54,0.125669,620272,464422
1381.84,0.127778,616892,459654
1385.14,0.131681,613613,453120
1388.43,0.135412,611526,447716
1391.72,0.139771,610663,442620
1395.01,0.143845,610634,438466
1398.29,0.149006,611700,434043
1402.66,0.156082,614051,428669
1405.93,0.161292,616268,425087
1409.2,0.165468,617795,422062
1412.46,0.170573,618872,417857
1415.72,0.174351,619795,414856
1418.98,0.178732,620495,411156
1422.23,0.182388,621087,408098
1426.56,0.186022,621375,404885
1429.8,0.188598,621616,402647
1433.04,0.191287,622129,400492
1436.27,0.193539,621526,398034
1439.5,0.195633,621113,395856
1442.72,0.197849,620921,393720
1445.94,0.200417,620270,390988
1450.23,0.203061,618860,387732
1453.44,0.205973,617697,384417
1456.64,0.208732,616264,381096
1459.85,0.212271,614413,376868
1463.04,0.214481,612307,373670
1466.24,0.217636,610032,369587
1469.43,0.221435,607345,364754
1473.67,0.226649,603789,358291
1476.85,0.231752,601175,352573
1480.02,0.237665,597737,345816
1483.19,0.243283,594479,339511
1486.36,0.249956,591232,332508
1489.52,0.253755,587853,327728
1492.68,0.256804,583875,323233
1496.89,0.258684,578062,318633
1500.03,0.259925,574159,315578
1503.18,0.259045,570285,314085
1506.32,0.258598,565444,311739
1509.45,0.257457,560571,309866
1512.58,0.255605,555821,308553
1515.71,0.253544,550344,306966
1519.87,0.250813,543983,305332
1522.99,0.248000,538764,304368
1526.1,0.245854,533692,302996
1529.21,0.241885,527902,302460
1532.32,0.239579,521886,300605
1535.42,0.237147,515888,298819
1538.51,0.234272,509987,297363
1541.6,0.231371,503936,295804
1545.72,0.227085,494694,293259
1548.8,0.224378,488378,291325
1551.88,0.222267,481832,288821
1554.95,0.220383,474989,285957
1558.02,0.218995,467818,282541
1561.08,0.216976,460730,279557
1564.15,0.216788,454170,275696
1568.22,0.215725,444181,270293
1571.27,0.215046,436947,266307
1574.32,0.214199,429598,262339
1577.36,0.212098,422039,258973
1580.4,0.212117,414375,254259
1583.43,0.210553,406354,250237
1586.46,0.208967,398475,246283
1590.49,0.207140,388982,241429
1593.51,0.204797,380708,237572
1596.53,0.202675,372727,233731
1599.54,0.200839,365060,229893
1602.55,0.199956,357543,225617
1605.55,0.197074,349495,222007
1608.55,0.194917,341154,217788
1612.54,0.193386,330877,211973
1615.53,0.191430,322904,207799
1618.51,0.190164,315116,203379
1621.49,0.189009,307217,198809
1624.47,0.188444,299481,194055
1627.44,0.187070,292112,189880
1630.41,0.186012,284245,185217
1634.36,0.184019,274079,179414
1637.32,0.183682,266916,174861
1640.27,0.184269,259612,169846
1643.22,0.183050,251804,165201
1646.16,0.182104,244348,160659
1649.1,0.181232,236703,155945
1652.04,0.179565,228171,150902
1655.95,0.175430,215408,143824
1658.88,0.171650,204937,138029
1661.8,0.166734,193395,131738
1664.72,0.160914,179728,124080
1667.63,0.147789,163642,116441
1670.54,0.133968,146312,107476
1673.44,0.118141,128451,97858
1677.31,0.098629,105080,83732
1680.21,0.087719,88906,72646
1683.1,0.083057,75033,61972
1685.99,0.081059,63520,52705
1688.87,0.083870,53714,44281
1691.75,0.091761,45653,36958
1694.62,0.093932,39137,31525
1697.49,0.092971,33776,27267
1701.31,0.106869,28175,22029