Folder: textile_sorting_NIRSCAN_/samples/wool/wool-000811 (part 69)

File: Column 1_050568_20150331_120821.csv
Method:,Column 1,,
Host Date-Time:,31/3/15 @ 12:8:21,,
Header Version:,1,,
System Temp (C):,33.96,,
Detector Temp (C):,33.92,,
Humidity (%):,1.86,,
Lamp PD:,3818,,
Shift Vector Coefficients:,-10.5391,0.0761263,-0.000134223,,
Pixel to Wavelength Coefficients:,1775.68,-0.916766,-0.000235065,,
Serial Number:,5510004,,
Scan Config Name:,Column 1,,
Scan Config Type:,Slew,,
Section 1,,
Start wavelength (nm):,900,,
End wavelength (nm):,1700,,
Pattern Pixel Width (nm):,   7.03,,,,
Exposure (ms):,  0.635,,,,
Digital Resolution:,228,,
Num Repeats:,6,,
PGA Gain:,64,,
Total Measurement Time in sec:,  2.673,,
Wavelength (nm),Absorbance (AU),Reference Signal (unitless),Sample Signal (unitless)
901.51,0.034216,108485,100266
905.376,0.042549,121306,109985
909.237,0.043572,131909,119317
913.095,0.043538,143299,129630
916.948,0.045729,156982,141293
922.079,0.047273,179937,161379
925.923,0.049023,200504,179102
929.762,0.049849,222660,198515
933.597,0.049309,244426,218192
937.427,0.048883,263972,235871
941.254,0.048212,281845,252231
945.076,0.047837,297271,266266
950.165,0.047049,315605,283201
953.978,0.046705,328029,294583
957.786,0.046741,340470,305730
961.59,0.046854,352317,316286
965.389,0.046756,363056,326000
969.185,0.047186,373162,334743
972.976,0.047773,382632,342774
976.763,0.048489,391202,349874
981.806,0.048546,400190,357866
985.583,0.049474,406088,362365
989.355,0.050370,410162,365246
993.124,0.050360,412868,367664
996.888,0.051225,414263,368172
1000.65,0.051935,415476,368647
1004.4,0.053005,415479,367743
1009.41,0.054375,414358,365595
1013.15,0.054864,412923,363919
1016.89,0.055571,411526,362098
1020.63,0.054852,409066,360530
1024.36,0.054879,406777,358490
1028.09,0.054675,404427,356587
1031.82,0.055073,401911,354044
1036.78,0.054039,398410,351796
1040.49,0.053394,396204,350368
1044.2,0.054071,394236,348085
1047.91,0.053245,392042,346807
1051.61,0.052919,389823,345103
1055.31,0.052381,388234,344122
1059,0.051760,387599,344051
1063.92,0.050400,386688,344319
1067.61,0.049388,386598,345042
1071.29,0.049921,387377,345313
1074.96,0.048558,388536,347435
1078.63,0.048258,389855,348855
1082.3,0.047618,391215,350588
1085.96,0.046713,393215,353116
1090.84,0.046397,396270,356118
1094.49,0.045732,398760,358905
1098.14,0.045583,400987,361033
1101.79,0.044862,403477,363879
1105.43,0.044957,406116,366179
1109.06,0.044462,407701,368027
1112.7,0.044597,409859,369860
1117.53,0.044484,412494,372335
1121.15,0.045431,414909,373699
1124.77,0.045799,416559,374867
1128.38,0.046804,418532,375772
1131.99,0.048216,419956,375827
1135.6,0.049607,421946,376400
1139.2,0.052329,423881,375764
1143.99,0.053955,426786,376925
1147.58,0.055429,428617,377260
1151.17,0.056132,431169,378892
1154.75,0.058159,433579,379236
1158.33,0.059478,436264,380427
1161.91,0.061118,439132,381485
1165.48,0.064419,442389,381404
1169.04,0.066828,446101,382477
1173.79,0.070117,451929,384550
1177.34,0.072674,456026,385759
1180.9,0.074985,461306,388154
1184.44,0.076633,467657,392008
1187.99,0.077842,473969,396194
1191.52,0.077277,479856,401637
1195.06,0.077101,487372,408093
1199.76,0.076572,497347,416953
1203.29,0.075340,504311,423993
1206.81,0.074655,511507,430722
1210.33,0.073689,519078,438070
1213.84,0.073107,527163,445490
1217.35,0.072714,534208,451852
1220.85,0.072357,540472,457526
1225.51,0.070269,549929,467776
1229.01,0.070208,556888,473762
1232.5,0.069601,562180,478933
1235.98,0.068521,567975,485074
1239.46,0.067634,574815,491919
1242.94,0.066861,582782,499626
1246.41,0.065701,591476,508436
1251.03,0.065933,604016,518938
1254.5,0.066099,612289,525845
1257.96,0.066268,619125,531509
1261.41,0.067372,624551,534806
1264.86,0.067956,629900,538661
1268.31,0.068449,634345,541847
1271.75,0.069000,638574,544767
1276.33,0.069645,642499,547302
1279.76,0.069805,645905,550001
1283.19,0.069010,648307,553058
1286.61,0.068637,650446,555359
1290.03,0.068314,652132,557213
1293.44,0.067384,653907,559928
1296.85,0.067540,655963,561487
1301.39,0.066991,657349,563385
1304.8,0.067497,657558,562908
1308.19,0.067366,658515,563897
1311.58,0.067701,658804,563709
1314.97,0.067757,659011,563814
1318.36,0.068504,658272,562213
1321.73,0.068995,658022,561365
1326.23,0.069987,657870,559955
1329.6,0.070823,656482,557699
1332.97,0.071446,654926,555579
1336.33,0.072848,653727,552775
1339.69,0.074432,652497,549726
1343.04,0.076529,649913,544912
1346.39,0.078316,647671,540802
1349.73,0.080759,645338,535831
1354.18,0.083931,641175,528501
1357.52,0.086470,638376,523126
1360.85,0.088144,635805,519015
1364.17,0.090495,633413,514271
1367.49,0.092851,631026,509561
1370.81,0.095360,628050,504236
1374.12,0.097861,625034,498933
1378.54,0.100963,620272,491608
1381.84,0.104404,616892,485071
1385.14,0.108022,613613,478490
1388.43,0.112752,611526,471697
1391.72,0.117212,610663,466219
1395.01,0.122312,610634,460754
1398.29,0.127531,611700,456045
1402.66,0.134466,614051,450545
1405.93,0.140377,616268,446059
1409.2,0.145864,617795,441551
1412.46,0.150734,618872,437388
1415.72,0.155211,619795,433548
1418.98,0.159238,620495,430032
1422.23,0.163032,621087,426698
1426.56,0.167341,621375,422681
1429.8,0.170154,621616,420115
1433.04,0.172778,622129,417929
1436.27,0.175518,621526,414898
1439.5,0.177506,621113,412729
1442.72,0.179957,620921,410279
1445.94,0.182392,620270,407557
1450.23,0.186271,618860,403015
1453.44,0.188977,617697,399759
1456.64,0.191862,616264,396191
1459.85,0.195195,614413,391981
1463.04,0.197819,612307,388285
1466.24,0.201270,610032,383780
1469.43,0.204752,607345,379039
1473.67,0.211111,603789,371342
1476.85,0.217152,601175,364627
1480.02,0.222474,597737,358126
1483.19,0.229221,594479,350684
1486.36,0.235836,591232,343496
1489.52,0.241013,587853,337486
1492.68,0.244476,583875,332540
1496.89,0.247113,578062,327236
1500.03,0.247990,574159,324371
1503.18,0.248116,570285,322089
1506.32,0.247788,565444,319596
1509.45,0.245716,560571,318357
1512.58,0.244450,555821,316581
1515.71,0.241942,550344,315277
1519.87,0.238527,543983,314093
1522.99,0.235617,538764,313171
1526.1,0.233103,533692,312024
1529.21,0.230584,527902,310434
1532.32,0.227565,521886,309037
1535.42,0.223938,515888,308047
1538.51,0.220824,509987,306715
1541.6,0.217259,503936,305574
1545.72,0.212428,494694,303325
1548.8,0.209611,488378,301401
1551.88,0.207624,481832,298725
1554.95,0.205374,474989,296012
1558.02,0.203623,467818,292721
1561.08,0.201945,460730,289402
1564.15,0.201640,454170,285482
1568.22,0.200562,444181,279897
1571.27,0.199855,436947,275787
1574.32,0.198754,429598,271837
1577.36,0.197215,422039,268002
1580.4,0.195411,414375,264230
1583.43,0.194556,406354,259626
1586.46,0.191819,398475,256202
1590.49,0.190308,388982,250970
1593.51,0.188326,380708,246755
1596.53,0.185717,372727,243038
1599.54,0.183518,365060,239247
1602.55,0.181572,357543,235373
1605.55,0.179280,349495,231292
1608.55,0.176785,341154,227073
1612.54,0.175245,330877,221015
1615.53,0.172634,322904,216990
1618.51,0.171580,315116,212271
1621.49,0.170149,307217,207633
1624.47,0.169224,299481,202836
1627.44,0.168139,292112,198340
1630.41,0.167223,284245,193406
1634.36,0.165338,274079,187300
1637.32,0.165000,266916,182547
1640.27,0.163368,259612,178220
1643.22,0.162264,251804,173300
1646.16,0.162743,244348,167983
1649.1,0.162080,236703,162976
1652.04,0.159386,228171,158079
1655.95,0.157808,215408,149780
1658.88,0.154176,204937,143696
1661.8,0.150874,193395,136638
1664.72,0.142869,179728,129344
1667.63,0.132321,163642,120663
1670.54,0.119734,146312,111057
1673.44,0.105561,128451,100734
1677.31,0.090653,105080,85284
1680.21,0.083188,88906,73408
1683.1,0.082056,75033,62115
1685.99,0.080589,63520,52762
1688.87,0.087989,53714,43863
1691.75,0.091773,45653,36957
1694.62,0.093891,39137,31528
1697.49,0.101626,33776,26729
1701.31,0.108845,28175,21929

File: Column 1_050568_20150331_120827.csv
Method:,Column 1,,
Host Date-Time:,31/3/15 @ 12:8:27,,
Header Version:,1,,
System Temp (C):,34.02,,
Detector Temp (C):,33.96,,
Humidity (%):,1.76,,
Lamp PD:,3818,,
Shift Vector Coefficients:,-10.5391,0.0761263,-0.000134223,,
Pixel to Wavelength Coefficients:,1775.68,-0.916766,-0.000235065,,
Serial Number:,5510004,,
Scan Config Name:,Column 1,,
Scan Config Type:,Slew,,
Section 1,,
Start wavelength (nm):,900,,
End wavelength (nm):,1700,,
Pattern Pixel Width (nm):,   7.03,,,,
Exposure (ms):,  0.635,,,,
Digital Resolution:,228,,
Num Repeats:,6,,
PGA Gain:,64,,
Total Measurement Time in sec:,  2.689,,
Wavelength (nm),Absorbance (AU),Reference Signal (unitless),Sample Signal (unitless)
901.51,0.033247,108485,100490
905.376,0.040579,121306,110485
909.237,0.042674,131909,119564
913.095,0.043236,143299,129720
916.948,0.045075,156982,141506
922.079,0.046045,179937,161836
925.923,0.047974,200504,179535
929.762,0.048957,222660,198923
933.597,0.048915,244426,218390
937.427,0.047951,263972,236378
941.254,0.048227,281845,252222
945.076,0.047635,297271,266390
950.165,0.046738,315605,283404
953.978,0.046348,328029,294825
957.786,0.046859,340470,305647
961.59,0.046554,352317,316504
965.389,0.046783,363056,325980
969.185,0.047693,373162,334352
972.976,0.047861,382632,342705
976.763,0.048113,391202,350177
981.806,0.048677,400190,357758
985.583,0.049798,406088,362095
989.355,0.049687,410162,365821
993.124,0.050640,412868,367427
996.888,0.050428,414263,368849
1000.65,0.051118,415476,369341
1004.4,0.053116,415479,367649
1009.41,0.054322,414358,365640
1013.15,0.054332,412923,364365
1016.89,0.055273,411526,362347
1020.63,0.054983,409066,360421
1024.36,0.055051,406777,358348
1028.09,0.054883,404427,356416
1031.82,0.054718,401911,354333
1036.78,0.054425,398410,351484
1040.49,0.053615,396204,350190
1044.2,0.053565,394236,348491
1047.91,0.053451,392042,346642
1051.61,0.052936,389823,345089
1055.31,0.052240,388234,344234
1059,0.051640,387599,344146
1063.92,0.050068,386688,344582
1067.61,0.049769,386598,344739
1071.29,0.049244,387377,345852
1074.96,0.048858,388536,347195
1078.63,0.048222,389855,348884
1082.3,0.047049,391215,351048
1085.96,0.046303,393215,353449
1090.84,0.046228,396270,356257
1094.49,0.045588,398760,359024
1098.14,0.045133,400987,361408
1101.79,0.044962,403477,363795
1105.43,0.044972,406116,366166
1109.06,0.043984,407701,368432
1112.7,0.044317,409859,370099
1117.53,0.044323,412494,372473
1121.15,0.045226,414909,373875
1124.77,0.045589,416559,375049
1128.38,0.046909,418532,375681
1131.99,0.047909,419956,376093
1135.6,0.050300,421946,375800
1139.2,0.051568,423881,376423
1143.99,0.053626,426786,377211
1147.58,0.055474,428617,377221
1151.17,0.056531,431169,378544
1154.75,0.057452,433579,379854
1158.33,0.059733,436264,380204
1161.91,0.061350,439132,381281
1165.48,0.063998,442389,381774
1169.04,0.066342,446101,382905
1173.79,0.070415,451929,384287
1177.34,0.072904,456026,385554
1180.9,0.074728,461306,388384
1184.44,0.076788,467657,391868
1187.99,0.077475,473969,396529
1191.52,0.077277,479856,401637
1195.06,0.076934,487372,408250
1199.76,0.076484,497347,417038
1203.29,0.075393,504311,423941
1206.81,0.074586,511507,430790
1210.33,0.073736,519078,438023
1213.84,0.072840,527163,445764
1217.35,0.072107,534208,452484
1220.85,0.071255,540472,458689
1225.51,0.070583,549929,467438
1229.01,0.070072,556888,473910
1232.5,0.069284,562180,479282
1235.98,0.068399,567975,485210
1239.46,0.067416,574815,492167
1242.94,0.066568,582782,499963
1246.41,0.066042,591476,508037
1251.03,0.065691,604016,519227
1254.5,0.065724,612289,526299
1257.96,0.066087,619125,531730
1261.41,0.067136,624551,535096
1264.86,0.067686,629900,538996
1268.31,0.068146,634345,542225
1271.75,0.068975,638574,544799
1276.33,0.069255,642499,547794
1279.76,0.069402,645905,550512
1283.19,0.068565,648307,553625
1286.61,0.068273,650446,555825
1290.03,0.067559,652132,558183
1293.44,0.067323,653907,560007
1296.85,0.067274,655963,561830
1301.39,0.066762,657349,563682
1304.8,0.067208,657558,563282
1308.19,0.067064,658515,564289
1311.58,0.067200,658804,564360
1314.97,0.068112,659011,563353
1318.36,0.068233,658272,562565
1321.73,0.068479,658022,562033
1326.23,0.069876,657870,560098
1329.6,0.070365,656482,558287
1332.97,0.071288,654926,555782
1336.33,0.072546,653727,553159
1339.69,0.074377,652497,549796
1343.04,0.075994,649913,545584
1346.39,0.078355,647671,540754
1349.73,0.080492,645338,536161
1354.18,0.083684,641175,528801
1357.52,0.086166,638376,523493
1360.85,0.088049,635805,519128
1364.17,0.090602,633413,514144
1367.49,0.092956,631026,509438
1370.81,0.095190,628050,504434
1374.12,0.097531,625034,499313
1378.54,0.101083,620272,491472
1381.84,0.104281,616892,485208
1385.14,0.108467,613613,478000
1388.43,0.112381,611526,472100
1391.72,0.117207,610663,466224
1395.01,0.122217,610634,460855
1398.29,0.127097,611700,456501
1402.66,0.134359,614051,450656
1405.93,0.140069,616268,446376
1409.2,0.145281,617795,442144
1412.46,0.150163,618872,437963
1415.72,0.154921,619795,433837
1418.98,0.159227,620495,430042
1422.23,0.162595,621087,427127
1426.56,0.166768,621375,423239
1429.8,0.169789,621616,420468
1433.04,0.172695,622129,418009
1436.27,0.175081,621526,415316
1439.5,0.176749,621113,413449
1442.72,0.179379,620921,410825
1445.94,0.182313,620270,407632
1450.23,0.185667,618860,403576
1453.44,0.188596,617697,400110
1456.64,0.191431,616264,396585
1459.85,0.194561,614413,392554
1463.04,0.197681,612307,388408
1466.24,0.201282,610032,383770
1469.43,0.204434,607345,379316
1473.67,0.210547,603789,371825
1476.85,0.216304,601175,365340
1480.02,0.222570,597737,358047
1483.19,0.229440,594479,350507
1486.36,0.235893,591232,343451
1489.52,0.240959,587853,337528
1492.68,0.244028,583875,332883
1496.89,0.246216,578062,327913
1500.03,0.247164,574159,324989
1503.18,0.247841,570285,322293
1506.32,0.247392,565444,319888
1509.45,0.244785,560571,319040
1512.58,0.243536,555821,317248
1515.71,0.241393,550344,315676
1519.87,0.237683,543983,314704
1522.99,0.235709,538764,313105
1526.1,0.232719,533692,312300
1529.21,0.229592,527902,311144
1532.32,0.227074,521886,309387
1535.42,0.223783,515888,308157
1538.51,0.220452,509987,306978
1541.6,0.217525,503936,305387
1545.72,0.212461,494694,303302
1548.8,0.209549,488378,301444
1551.88,0.206718,481832,299349
1554.95,0.204863,474989,296361
1558.02,0.202974,467818,293159
1561.08,0.202465,460730,289056
1564.15,0.201454,454170,285604
1568.22,0.200149,444181,280163
1571.27,0.199314,436947,276131
1574.32,0.198361,429598,272083
1577.36,0.196907,422039,268192
1580.4,0.195980,414375,263884
1583.43,0.193936,406354,259997
1586.46,0.191812,398475,256206
1590.49,0.189787,388982,251271
1593.51,0.189337,380708,246181
1596.53,0.185449,372727,243188
1599.54,0.183255,365060,239392
1602.55,0.181070,357543,235645
1605.55,0.179267,349495,231299
1608.55,0.176519,341154,227212
1612.54,0.174695,330877,221295
1615.53,0.172576,322904,217019
1618.51,0.171703,315116,212211
1621.49,0.170676,307217,207381
1624.47,0.168664,299481,203098
1627.44,0.166648,292112,199022
1630.41,0.167028,284245,193493
1634.36,0.164881,274079,187497
1637.32,0.164455,266916,182776
1640.27,0.163729,259612,178072
1643.22,0.162580,251804,173174
1646.16,0.160076,244348,169018
1649.1,0.161111,236703,163340
1652.04,0.159186,228171,158152
1655.95,0.156901,215408,150093
1658.88,0.152652,204937,144201
1661.8,0.148594,193395,137357
1664.72,0.142242,179728,129531
1667.63,0.130227,163642,121246
1670.54,0.119378,146312,111148
1673.44,0.106723,128451,100465
1677.31,0.089808,105080,85450
1680.21,0.082036,88906,73603
1683.1,0.079414,75033,62494
1685.99,0.080441,63520,52780
1688.87,0.083870,53714,44281
1691.75,0.093952,45653,36772
1694.62,0.092118,39137,31657
1697.49,0.102178,33776,26695
1701.31,0.102983,28175,22227

File: Column 1_050568_20150331_120832.csv
Method:,Column 1,,
Host Date-Time:,31/3/15 @ 12:8:32,,
Header Version:,1,,
System Temp (C):,34.01,,
Detector Temp (C):,33.99,,
Humidity (%):,1.76,,
Lamp PD:,3818,,
Shift Vector Coefficients:,-10.5391,0.0761263,-0.000134223,,
Pixel to Wavelength Coefficients:,1775.68,-0.916766,-0.000235065,,
Serial Number:,5510004,,
Scan Config Name:,Column 1,,
Scan Config Type:,Slew,,
Section 1,,
Start wavelength (nm):,900,,
End wavelength (nm):,1700,,
Pattern Pixel Width (nm):,   7.03,,,,
Exposure (ms):,  0.635,,,,
Digital Resolution:,228,,
Num Repeats:,6,,
PGA Gain:,64,,
Total Measurement Time in sec:,  2.677,,
Wavelength (nm),Absorbance (AU),Reference Signal (unitless),Sample Signal (unitless)
901.51,0.033312,108485,100475
905.376,0.040178,121306,110587
909.237,0.042111,131909,119719
913.095,0.043688,143299,129585
916.948,0.046366,156982,141086
922.079,0.048392,179937,160964
925.923,0.048216,200504,179435
929.762,0.048743,222660,199021
933.597,0.048662,244426,218517
937.427,0.048272,263972,236203
941.254,0.047787,281845,252478
945.076,0.047892,297271,266232
950.165,0.046974,315605,283250
953.978,0.045852,328029,295162
957.786,0.047042,340470,305518
961.59,0.047023,352317,316163
965.389,0.047549,363056,325405
969.185,0.047122,373162,334792
972.976,0.047799,382632,342754
976.763,0.047986,391202,350280
981.806,0.048942,400190,357540
985.583,0.049299,406088,362511
989.355,0.049709,410162,365802
993.124,0.050563,412868,367492
996.888,0.050602,414263,368701
1000.65,0.051799,415476,368763
1004.4,0.052983,415479,367761
1009.41,0.054589,414358,365415
1013.15,0.054623,412923,364121
1016.89,0.055660,411526,362024
1020.63,0.054911,409066,360481
1024.36,0.055056,406777,358344
1028.09,0.054787,404427,356495
1031.82,0.054613,401911,354419
1036.78,0.054448,398410,351465
1040.49,0.053907,396204,349955
1044.2,0.053617,394236,348449
1047.91,0.053173,392042,346864
1051.61,0.052921,389823,345101
1055.31,0.051933,388234,344477
1059,0.051669,387599,344123
1063.92,0.051121,386688,343748
1067.61,0.049842,386598,344681
1071.29,0.049152,387377,345925
1074.96,0.048710,388536,347313
1078.63,0.047836,389855,349194
1082.3,0.047540,391215,350651
1085.96,0.046830,393215,353021
1090.84,0.046172,396270,356303
1094.49,0.045666,398760,358960
1098.14,0.045239,400987,361319
1101.79,0.044299,403477,364351
1105.43,0.045249,406116,365933
1109.06,0.044096,407701,368337
1112.7,0.044666,409859,369801
1117.53,0.043988,412494,372760
1121.15,0.045545,414909,373601
1124.77,0.045715,416559,374940
1128.38,0.047001,418532,375602
1131.99,0.048506,419956,375576
1135.6,0.050053,421946,376014
1139.2,0.051602,423881,376393
1143.99,0.054188,426786,376723
1147.58,0.055471,428617,377223
1151.17,0.056368,431169,378686
1154.75,0.058146,433579,379247
1158.33,0.059465,436264,380438
1161.91,0.061351,439132,381280
1165.48,0.063989,442389,381782
1169.04,0.066622,446101,382658
1173.79,0.070551,451929,384166
1177.34,0.071972,456026,386383
1180.9,0.074616,461306,388484
1184.44,0.076737,467657,391914
1187.99,0.077934,473969,396110
1191.52,0.077242,479856,401670
1195.06,0.077029,487372,408161
1199.76,0.076503,497347,417020
1203.29,0.074948,504311,424376
1206.81,0.074415,511507,430960
1210.33,0.073562,519078,438198
1213.84,0.072817,527163,445788
1217.35,0.072328,534208,452254
1220.85,0.071288,540472,458654
1225.51,0.070485,549929,467543
1229.01,0.069843,556888,474160
1232.5,0.069217,562180,479356
1235.98,0.068559,567975,485032
1239.46,0.067629,574815,491925
1242.94,0.066671,582782,499845
1246.41,0.066236,591476,507810
1251.03,0.065609,604016,519325
1254.5,0.065994,612289,525972
1257.96,0.066621,619125,531077
1261.41,0.066978,624551,535291
1264.86,0.067798,629900,538857
1268.31,0.068430,634345,541871
1271.75,0.069051,638574,544703
1276.33,0.069115,642499,547971
1279.76,0.069293,645905,550650
1283.19,0.068732,648307,553412
1286.61,0.068369,650446,555702
1290.03,0.068079,652132,557515
1293.44,0.067295,653907,560043
1296.85,0.067577,655963,561439
1301.39,0.067214,657349,563095
1304.8,0.066787,657558,563828
1308.19,0.067209,658515,564101
1311.58,0.067435,658804,564055
1314.97,0.067724,659011,563857
1318.36,0.068613,658272,562073
1321.73,0.068897,658022,561492
1326.23,0.069819,657870,560171
1329.6,0.070521,656482,558087
1332.97,0.071549,654926,555448
1336.33,0.072570,653727,553129
1339.69,0.074446,652497,549708
1343.04,0.075992,649913,545586
1346.39,0.078299,647671,540823
1349.73,0.080230,645338,536484
1354.18,0.083474,641175,529057
1357.52,0.086101,638376,523571
1360.85,0.087932,635805,519268
1364.17,0.090404,633413,514379
1367.49,0.092657,631026,509789
1370.81,0.095380,628050,504213
1374.12,0.097573,625034,499264
1378.54,0.101168,620272,491376
1381.84,0.104283,616892,485206
1385.14,0.107993,613613,478522
1388.43,0.112172,611526,472327
1391.72,0.117324,610663,466098
1395.01,0.121981,610634,461105
1398.29,0.127564,611700,456010
1402.66,0.134124,614051,450900
1405.93,0.140069,616268,446376
1409.2,0.145712,617795,441705
1412.46,0.150115,618872,438012
1415.72,0.154598,619795,434160
1418.98,0.158858,620495,430408
1422.23,0.162649,621087,427074
1426.56,0.166765,621375,423242
1429.8,0.169299,621616,420943
1433.04,0.171794,622129,418877
1436.27,0.174924,621526,415466
1439.5,0.176904,621113,413301
1442.72,0.179416,620921,410790
1445.94,0.181947,620270,407975
1450.23,0.185562,618860,403674
1453.44,0.188705,617697,400010
1456.64,0.191331,616264,396676
1459.85,0.194510,614413,392600
1463.04,0.197692,612307,388398
1466.24,0.200587,610032,384384
1469.43,0.204974,607345,378845
1473.67,0.210306,603789,372031
1476.85,0.216712,601175,364997
1480.02,0.222529,597737,358081
1483.19,0.229563,594479,350408
1486.36,0.235532,591232,343737
1489.52,0.240533,587853,337859
1492.68,0.244156,583875,332785
1496.89,0.247259,578062,327126
1500.03,0.247321,574159,324871
1503.18,0.247749,570285,322361
1506.32,0.246734,565444,320373
1509.45,0.245362,560571,318617
1512.58,0.244116,555821,316825
1515.71,0.241537,550344,315571
1519.87,0.238845,543983,313863
1522.99,0.235453,538764,313289
1526.1,0.232659,533692,312343
1529.21,0.230079,527902,310795
1532.32,0.226376,521886,309884
1535.42,0.224146,515888,307900
1538.51,0.220333,509987,307062
1541.6,0.216593,503936,306043
1545.72,0.212387,494694,303354
1548.8,0.209531,488378,301457
1551.88,0.207207,481832,299012
1554.95,0.205232,474989,296109
1558.02,0.202766,467818,293299
1561.08,0.201724,460730,289549
1564.15,0.201146,454170,285807
1568.22,0.199677,444181,280468
1571.27,0.198818,436947,276446
1574.32,0.198369,429598,272078
1577.36,0.196886,422039,268205
1580.4,0.195512,414375,264169
1583.43,0.193612,406354,260191
1586.46,0.192219,398475,255966
1590.49,0.190337,388982,250953
1593.51,0.187776,380708,247068
1596.53,0.185256,372727,243296
1599.54,0.183705,365060,239144
1602.55,0.180562,357543,235921
1605.55,0.178958,349495,231464
1608.55,0.176317,341154,227318
1612.54,0.174703,330877,221291
1615.53,0.172048,322904,217283
1618.51,0.172114,315116,212010
1621.49,0.170926,307217,207262
1624.47,0.168245,299481,203294
1627.44,0.166921,292112,198897
1630.41,0.165555,284245,194150
1634.36,0.165183,274079,187367
1637.32,0.164631,266916,182702
1640.27,0.163612,259612,178120
1643.22,0.161946,251804,173427
1646.16,0.161131,244348,168608
1649.1,0.160633,236703,163520
1652.04,0.159282,228171,158117
1655.95,0.157040,215408,150045
1658.88,0.153225,204937,144011
1661.8,0.150604,193395,136723
1664.72,0.143215,179728,129241
1667.63,0.132576,163642,120592
1670.54,0.119695,146312,111067
1673.44,0.104554,128451,100968
1677.31,0.087436,105080,85918
1680.21,0.080575,88906,73851
1683.1,0.080980,75033,62269
1685.99,0.077669,63520,53118
1688.87,0.083116,53714,44358
1691.75,0.091185,45653,37007
1694.62,0.093107,39137,31585
1697.49,0.096104,33776,27071
1701.31,0.099655,28175,22398