Folder: textile_sorting_NIRSCAN_/samples/wool/wool-000811 (part 82)

File: Column 1_050575_20150331_121137.csv
Method:,Column 1,,
Host Date-Time:,31/3/15 @ 12:11:37,,
Header Version:,1,,
System Temp (C):,34.2,,
Detector Temp (C):,34.45,,
Humidity (%):,1.66,,
Lamp PD:,3818,,
Shift Vector Coefficients:,-10.5391,0.0761263,-0.000134223,,
Pixel to Wavelength Coefficients:,1775.68,-0.916766,-0.000235065,,
Serial Number:,5510004,,
Scan Config Name:,Column 1,,
Scan Config Type:,Slew,,
Section 1,,
Start wavelength (nm):,900,,
End wavelength (nm):,1700,,
Pattern Pixel Width (nm):,   7.03,,,,
Exposure (ms):,  0.635,,,,
Digital Resolution:,228,,
Num Repeats:,6,,
PGA Gain:,64,,
Total Measurement Time in sec:,  2.677,,
Wavelength (nm),Absorbance (AU),Reference Signal (unitless),Sample Signal (unitless)
901.51,0.034108,108485,100291
905.376,0.040206,121306,110580
909.237,0.042725,131909,119550
913.095,0.044577,143299,129320
916.948,0.045253,156982,141448
922.079,0.046547,179937,161649
925.923,0.048368,200504,179372
929.762,0.049718,222660,198575
933.597,0.048857,244426,218419
937.427,0.048696,263972,235973
941.254,0.048186,281845,252246
945.076,0.047354,297271,266562
950.165,0.047018,315605,283221
953.978,0.046018,328029,295049
957.786,0.046435,340470,305945
961.59,0.046460,352317,316573
965.389,0.046415,363056,326256
969.185,0.047201,373162,334731
972.976,0.046731,382632,343598
976.763,0.047949,391202,350310
981.806,0.048189,400190,358160
985.583,0.049032,406088,362734
989.355,0.049299,410162,366148
993.124,0.049913,412868,368043
996.888,0.050260,414263,368991
1000.65,0.051382,415476,369117
1004.4,0.052871,415479,367856
1009.41,0.053914,414358,365984
1013.15,0.054250,412923,364434
1016.89,0.054746,411526,362787
1020.63,0.054484,409066,360836
1024.36,0.054850,406777,358514
1028.09,0.054490,404427,356739
1031.82,0.053917,401911,354987
1036.78,0.053664,398410,352100
1040.49,0.053424,396204,350344
1044.2,0.053485,394236,348555
1047.91,0.053076,392042,346942
1051.61,0.052272,389823,345617
1055.31,0.051373,388234,344922
1059,0.051238,387599,344465
1063.92,0.049724,386688,344855
1067.61,0.049492,386598,344959
1071.29,0.048866,387377,346153
1074.96,0.048643,388536,347367
1078.63,0.047989,389855,349071
1082.3,0.046917,391215,351155
1085.96,0.046343,393215,353417
1090.84,0.045504,396270,356851
1094.49,0.045601,398760,359013
1098.14,0.044778,400987,361703
1101.79,0.044597,403477,364101
1105.43,0.044417,406116,366634
1109.06,0.043794,407701,368594
1112.7,0.043777,409859,370559
1117.53,0.043388,412494,373276
1121.15,0.044538,414909,374468
1124.77,0.045045,416559,375519
1128.38,0.046502,418532,376034
1131.99,0.047692,419956,376281
1135.6,0.049769,421946,376260
1139.2,0.051056,423881,376867
1143.99,0.053673,426786,377170
1147.58,0.054583,428617,377995
1151.17,0.055832,431169,379154
1154.75,0.056860,433579,380372
1158.33,0.058742,436264,381072
1161.91,0.060760,439132,381799
1165.48,0.062986,442389,382665
1169.04,0.065731,446101,383444
1173.79,0.069403,451929,385183
1177.34,0.071819,456026,386519
1180.9,0.074615,461306,388485
1184.44,0.075826,467657,392737
1187.99,0.076978,473969,396983
1191.52,0.076675,479856,402194
1195.06,0.076372,487372,408779
1199.76,0.075699,497347,417792
1203.29,0.075038,504311,424288
1206.81,0.073908,511507,431463
1210.33,0.073338,519078,438424
1213.84,0.073199,527163,445396
1217.35,0.071329,534208,453295
1220.85,0.070685,540472,459291
1225.51,0.070154,549929,467900
1229.01,0.069558,556888,474471
1232.5,0.068465,562180,480187
1235.98,0.068292,567975,485330
1239.46,0.067135,574815,492485
1242.94,0.066343,582782,500222
1246.41,0.065322,591476,508880
1251.03,0.065580,604016,519360
1254.5,0.065531,612289,526533
1257.96,0.065778,619125,532109
1261.41,0.066675,624551,535665
1264.86,0.067285,629900,539494
1268.31,0.067697,634345,542786
1271.75,0.068549,638574,545334
1276.33,0.068868,642499,548282
1279.76,0.068829,645905,551239
1283.19,0.068272,648307,553999
1286.61,0.067934,650446,556259
1290.03,0.067515,652132,558239
1293.44,0.066840,653907,560630
1296.85,0.066531,655963,562793
1301.39,0.066704,657349,563757
1304.8,0.066690,657558,563954
1308.19,0.066730,658515,564723
1311.58,0.066927,658804,564715
1314.97,0.067453,659011,564209
1318.36,0.067698,658272,563258
1321.73,0.068156,658022,562450
1326.23,0.068600,657870,561746
1329.6,0.069618,656482,559249
1332.97,0.070704,654926,556530
1336.33,0.071663,653727,554285
1339.69,0.073521,652497,550881
1343.04,0.074939,649913,546910
1346.39,0.077507,647671,541811
1349.73,0.079057,645338,537935
1354.18,0.082307,641175,530481
1357.52,0.084878,638376,525047
1360.85,0.086821,635805,520598
1364.17,0.089471,633413,515485
1367.49,0.091772,631026,510829
1370.81,0.094012,628050,505804
1374.12,0.096870,625034,500073
1378.54,0.099827,620272,492896
1381.84,0.102777,616892,486891
1385.14,0.107133,613613,479470
1388.43,0.111372,611526,473198
1391.72,0.115619,610663,467932
1395.01,0.120142,610634,463062
1398.29,0.125532,611700,458149
1402.66,0.132329,614051,452768
1405.93,0.137815,616268,448698
1409.2,0.142903,617795,444571
1412.46,0.148005,618872,440145
1415.72,0.152300,619795,436464
1418.98,0.156188,620495,433062
1422.23,0.159755,621087,429930
1426.56,0.163958,621375,425986
1429.8,0.165914,621616,424237
1433.04,0.169196,622129,421390
1436.27,0.171794,621526,418471
1439.5,0.173913,621113,416157
1442.72,0.176426,620921,413628
1445.94,0.178706,620270,411031
1450.23,0.182628,618860,406410
1453.44,0.185180,617697,403270
1456.64,0.188845,616264,398953
1459.85,0.191848,614413,395014
1463.04,0.194615,612307,391160
1466.24,0.198264,610032,386446
1469.43,0.201858,607345,381573
1473.67,0.207987,603789,374023
1476.85,0.214337,601175,366998
1480.02,0.220606,597737,359670
1483.19,0.227582,594479,352010
1486.36,0.234203,591232,344790
1489.52,0.240182,587853,338132
1492.68,0.243352,583875,333402
1496.89,0.245459,578062,328485
1500.03,0.245945,574159,325902
1503.18,0.246537,570285,323262
1506.32,0.245345,565444,321399
1509.45,0.244391,560571,319330
1512.58,0.242970,555821,317662
1515.71,0.239985,550344,316701
1519.87,0.236907,543983,315267
1522.99,0.234544,538764,313946
1526.1,0.231624,533692,313088
1529.21,0.227607,527902,312569
1532.32,0.225436,521886,310556
1535.42,0.222619,515888,308984
1538.51,0.219302,509987,307792
1541.6,0.215973,503936,306480
1545.72,0.210748,494694,304501
1548.8,0.207633,488378,302777
1551.88,0.205209,481832,300391
1554.95,0.202521,474989,297963
1558.02,0.201852,467818,293917
1561.08,0.200211,460730,290560
1564.15,0.199539,454170,286866
1568.22,0.198804,444181,281032
1571.27,0.197983,436947,276978
1574.32,0.196594,429598,273192
1577.36,0.195541,422039,269037
1580.4,0.194043,414375,265064
1583.43,0.192694,406354,260742
1586.46,0.190498,398475,256982
1590.49,0.188463,388982,252038
1593.51,0.186759,380708,247647
1596.53,0.183857,372727,244081
1599.54,0.181927,365060,240125
1602.55,0.179446,357543,236528
1605.55,0.177695,349495,232138
1608.55,0.175218,341154,227894
1612.54,0.173351,330877,221981
1615.53,0.171448,322904,217583
1618.51,0.169347,315116,213365
1621.49,0.168681,307217,208336
1624.47,0.167961,299481,203427
1627.44,0.167400,292112,198678
1630.41,0.169817,284245,192254
1634.36,0.163965,274079,187893
1637.32,0.162372,266916,183655
1640.27,0.161836,259612,178850
1643.22,0.160835,251804,173871
1646.16,0.159629,244348,169192
1649.1,0.159450,236703,163966
1652.04,0.157467,228171,158779
1655.95,0.154682,215408,150862
1658.88,0.152062,204937,144397
1661.8,0.146063,193395,138160
1664.72,0.139182,179728,130447
1667.63,0.127962,163642,121880
1670.54,0.116454,146312,111899
1673.44,0.101361,128451,101713
1677.31,0.083937,105080,86613
1680.21,0.075209,88906,74769
1683.1,0.067224,75033,64273
1685.99,0.072677,63520,53732
1688.87,0.075112,53714,45183
1691.75,0.080784,45653,37904
1694.62,0.083856,39137,32265
1697.49,0.087715,33776,27599
1701.31,0.100509,28175,22354

File: Column 1_050575_20150331_121149.csv
Method:,Column 1,,
Host Date-Time:,31/3/15 @ 12:11:49,,
Header Version:,1,,
System Temp (C):,34.22,,
Detector Temp (C):,34.45,,
Humidity (%):,1.66,,
Lamp PD:,3818,,
Shift Vector Coefficients:,-10.5391,0.0761263,-0.000134223,,
Pixel to Wavelength Coefficients:,1775.68,-0.916766,-0.000235065,,
Serial Number:,5510004,,
Scan Config Name:,Column 1,,
Scan Config Type:,Slew,,
Section 1,,
Start wavelength (nm):,900,,
End wavelength (nm):,1700,,
Pattern Pixel Width (nm):,   7.03,,,,
Exposure (ms):,  0.635,,,,
Digital Resolution:,228,,
Num Repeats:,6,,
PGA Gain:,64,,
Total Measurement Time in sec:,  2.724,,
Wavelength (nm),Absorbance (AU),Reference Signal (unitless),Sample Signal (unitless)
901.51,0.034342,108485,100237
905.376,0.040041,121306,110622
909.237,0.042681,131909,119562
913.095,0.044480,143299,129349
916.948,0.044922,156982,141556
922.079,0.047389,179937,161336
925.923,0.049027,200504,179100
929.762,0.049923,222660,198481
933.597,0.049464,244426,218114
937.427,0.048295,263972,236191
941.254,0.047892,281845,252417
945.076,0.047682,297271,266361
950.165,0.046850,315605,283331
953.978,0.045984,328029,295072
957.786,0.046139,340470,306154
961.59,0.047021,352317,316164
965.389,0.046349,363056,326306
969.185,0.046536,373162,335244
972.976,0.047483,382632,343003
976.763,0.048209,391202,350100
981.806,0.048186,400190,358163
985.583,0.048935,406088,362815
989.355,0.049728,410162,365786
993.124,0.049973,412868,367992
996.888,0.050873,414263,368471
1000.65,0.051421,415476,369084
1004.4,0.052377,415479,368275
1009.41,0.054063,414358,365858
1013.15,0.054425,412923,364287
1016.89,0.054853,411526,362697
1020.63,0.054559,409066,360773
1024.36,0.054523,406777,358784
1028.09,0.054972,404427,356343
1031.82,0.054343,401911,354639
1036.78,0.053694,398410,352076
1040.49,0.053636,396204,350173
1044.2,0.054046,394236,348105
1047.91,0.053542,392042,346570
1051.61,0.051977,389823,345852
1055.31,0.051960,388234,344456
1059,0.051520,387599,344241
1063.92,0.050179,386688,344494
1067.61,0.049898,386598,344637
1071.29,0.049171,387377,345910
1074.96,0.048626,388536,347380
1078.63,0.047325,389855,349605
1082.3,0.046807,391215,351244
1085.96,0.046853,393215,353002
1090.84,0.045583,396270,356786
1094.49,0.045073,398760,359450
1098.14,0.045184,400987,361365
1101.79,0.044550,403477,364140
1105.43,0.044608,406116,366473
1109.06,0.043598,407701,368760
1112.7,0.044175,409859,370220
1117.53,0.043418,412494,373250
1121.15,0.044909,414909,374148
1124.77,0.045225,416559,375363
1128.38,0.046236,418532,376264
1131.99,0.047988,419956,376024
1135.6,0.049813,421946,376222
1139.2,0.051324,423881,376634
1143.99,0.053954,426786,376926
1147.58,0.054274,428617,378264
1151.17,0.056105,431169,378916
1154.75,0.057228,433579,380050
1158.33,0.058906,436264,380928
1161.91,0.061272,439132,381349
1165.48,0.063286,442389,382400
1169.04,0.065994,446101,383212
1173.79,0.069785,451929,384844
1177.34,0.072087,456026,386280
1180.9,0.074308,461306,388760
1184.44,0.076407,467657,392212
1187.99,0.076926,473969,397031
1191.52,0.076863,479856,402020
1195.06,0.076891,487372,408291
1199.76,0.076257,497347,417256
1203.29,0.074811,504311,424510
1206.81,0.074181,511507,431192
1210.33,0.073391,519078,438371
1213.84,0.072296,527163,446323
1217.35,0.072493,534208,452082
1220.85,0.070972,540472,458988
1225.51,0.070421,549929,467612
1229.01,0.069798,556888,474209
1232.5,0.068402,562180,480257
1235.98,0.068314,567975,485306
1239.46,0.067231,574815,492376
1242.94,0.066120,582782,500479
1246.41,0.065501,591476,508670
1251.03,0.065490,604016,519467
1254.5,0.065613,612289,526434
1257.96,0.065925,619125,531929
1261.41,0.066935,624551,535344
1264.86,0.067461,629900,539275
1268.31,0.067810,634345,542645
1271.75,0.068499,638574,545396
1276.33,0.068800,642499,548368
1279.76,0.068874,645905,551181
1283.19,0.067913,648307,554457
1286.61,0.068048,650446,556113
1290.03,0.067501,652132,558257
1293.44,0.067181,653907,560189
1296.85,0.066667,655963,562616
1301.39,0.066598,657349,563895
1304.8,0.066164,657558,564638
1308.19,0.066806,658515,564625
1311.58,0.066822,658804,564852
1314.97,0.067496,659011,564153
1318.36,0.067565,658272,563430
1321.73,0.068058,658022,562578
1326.23,0.068760,657870,561539
1329.6,0.069856,656482,558942
1332.97,0.070687,654926,556551
1336.33,0.071806,653727,554103
1339.69,0.073583,652497,550802
1343.04,0.075306,649913,546449
1346.39,0.077313,647671,542053
1349.73,0.079865,645338,536936
1354.18,0.082602,641175,530120
1357.52,0.084998,638376,524902
1360.85,0.087218,635805,520123
1364.17,0.089044,633413,515992
1367.49,0.091888,631026,510692
1370.81,0.093972,628050,505851
1374.12,0.096706,625034,500262
1378.54,0.100149,620272,492531
1381.84,0.103216,616892,486399
1385.14,0.107101,613613,479505
1388.43,0.110803,611526,473818
1391.72,0.115566,610663,467989
1395.01,0.120398,610634,462789
1398.29,0.125203,611700,458496
1402.66,0.132120,614051,452986
1405.93,0.137744,616268,448772
1409.2,0.142895,617795,444579
1412.46,0.147342,618872,440818
1415.72,0.152089,619795,436676
1418.98,0.155915,620495,433335
1422.23,0.159929,621087,429757
1426.56,0.163458,621375,426477
1429.8,0.166097,621616,424058
1433.04,0.169037,622129,421545
1436.27,0.171500,621526,418754
1439.5,0.173316,621113,416730
1442.72,0.176332,620921,413718
1445.94,0.178723,620270,411015
1450.23,0.182384,618860,406638
1453.44,0.185907,617697,402595
1456.64,0.189044,616264,398770
1459.85,0.191909,614413,394958
1463.04,0.194462,612307,391298
1466.24,0.198103,610032,386589
1469.43,0.201664,607345,381743
1473.67,0.208238,603789,373807
1476.85,0.213855,601175,367406
1480.02,0.220671,597737,359616
1483.19,0.228143,594479,351555
1486.36,0.234139,591232,344841
1489.52,0.238871,587853,339155
1492.68,0.243044,583875,333638
1496.89,0.245177,578062,328698
1500.03,0.245949,574159,325899
1503.18,0.246922,570285,322976
1506.32,0.245601,565444,321210
1509.45,0.244245,560571,319437
1512.58,0.242528,555821,317985
1515.71,0.239680,550344,316923
1519.87,0.236766,543983,315369
1522.99,0.233902,538764,314410
1526.1,0.231856,533692,312921
1529.21,0.228549,527902,311892
1532.32,0.225056,521886,310828
1535.42,0.222850,515888,308820
1538.51,0.219104,509987,307932
1541.6,0.215924,503936,306515
1545.72,0.210998,494694,304326
1548.8,0.207726,488378,302712
1551.88,0.205580,481832,300134
1554.95,0.203768,474989,297109
1558.02,0.201833,467818,293930
1561.08,0.200442,460730,290405
1564.15,0.199582,454170,286838
1568.22,0.198372,444181,281312
1571.27,0.197797,436947,277097
1574.32,0.196893,429598,273004
1577.36,0.195432,422039,269104
1580.4,0.194003,414375,265088
1583.43,0.192181,406354,261050
1586.46,0.191537,398475,256368
1590.49,0.188153,388982,252218
1593.51,0.186319,380708,247898
1596.53,0.184386,372727,243784
1599.54,0.182392,365060,239868
1602.55,0.179578,357543,236456
1605.55,0.178069,349495,231938
1608.55,0.176208,341154,227375
1612.54,0.173122,330877,222098
1615.53,0.171820,322904,217397
1618.51,0.169942,315116,213073
1621.49,0.168791,307217,208283
1624.47,0.167515,299481,203636
1627.44,0.166626,292112,199032
1630.41,0.164789,284245,194493
1634.36,0.163362,274079,188154
1637.32,0.163807,266916,183049
1640.27,0.161576,259612,178957
1643.22,0.161248,251804,173706
1646.16,0.159572,244348,169214
1649.1,0.159675,236703,163881
1652.04,0.158053,228171,158565
1655.95,0.154837,215408,150808
1658.88,0.153098,204937,144053
1661.8,0.147555,193395,137686
1664.72,0.141341,179728,129800
1667.63,0.128643,163642,121689
1670.54,0.114900,146312,112300
1673.44,0.099971,128451,102039
1677.31,0.085293,105080,86343
1680.21,0.074699,88906,74857
1683.1,0.070500,75033,63790
1685.99,0.070589,63520,53991
1688.87,0.075680,53714,45124
1691.75,0.079377,45653,38027
1694.62,0.089655,39137,31837
1697.49,0.092668,33776,27286
1701.31,0.095717,28175,22602

File: Column 1_050575_20150331_121152.csv
Method:,Column 1,,
Host Date-Time:,31/3/15 @ 12:11:52,,
Header Version:,1,,
System Temp (C):,34.12,,
Detector Temp (C):,34.45,,
Humidity (%):,1.71,,
Lamp PD:,3817,,
Shift Vector Coefficients:,-10.5391,0.0761263,-0.000134223,,
Pixel to Wavelength Coefficients:,1775.68,-0.916766,-0.000235065,,
Serial Number:,5510004,,
Scan Config Name:,Column 1,,
Scan Config Type:,Slew,,
Section 1,,
Start wavelength (nm):,900,,
End wavelength (nm):,1700,,
Pattern Pixel Width (nm):,   7.03,,,,
Exposure (ms):,  0.635,,,,
Digital Resolution:,228,,
Num Repeats:,6,,
PGA Gain:,64,,
Total Measurement Time in sec:,  2.688,,
Wavelength (nm),Absorbance (AU),Reference Signal (unitless),Sample Signal (unitless)
901.51,0.073522,108485,91590
905.376,0.078706,121306,101199
909.237,0.080797,131909,109516
913.095,0.085231,143299,117764
916.948,0.084947,156982,129093
922.079,0.087201,179937,147204
925.923,0.087589,200504,163883
929.762,0.088419,222660,181645
933.597,0.088329,244426,199443
937.427,0.085775,263972,216662
941.254,0.085628,281845,231410
945.076,0.085051,297271,244400
950.165,0.084627,315605,259727
953.978,0.084156,328029,270244
957.786,0.084309,340470,280395
961.59,0.083814,352317,290482
965.389,0.084520,363056,298850
969.185,0.084538,373162,307156
972.976,0.084582,382632,314919
976.763,0.085401,391202,321366
981.806,0.085804,400190,328445
985.583,0.086086,406088,333069
989.355,0.086714,410162,335924
993.124,0.087750,412868,337335
996.888,0.087812,414263,338426
1000.65,0.088380,415476,338974
1004.4,0.088566,415479,338831
1009.41,0.090161,414358,336678
1013.15,0.090601,412923,335172
1016.89,0.091434,411526,333398
1020.63,0.090562,409066,332071
1024.36,0.090520,406777,330245
1028.09,0.089657,404427,328990
1031.82,0.089868,401911,326785
1036.78,0.089256,398410,324395
1040.49,0.089637,396204,322316
1044.2,0.089169,394236,321061
1047.91,0.089237,392042,319224
1051.61,0.088604,389823,317880
1055.31,0.088144,388234,316920
1059,0.087247,387599,317056
1063.92,0.086319,386688,316987
1067.61,0.085936,386598,317193
1071.29,0.085853,387377,317893
1074.96,0.084778,388536,319634
1078.63,0.084195,389855,321150
1082.3,0.083813,391215,322554
1085.96,0.083465,393215,324463
1090.84,0.082797,396270,327487
1094.49,0.082738,398760,329590
1098.14,0.082363,400987,331717
1101.79,0.083146,403477,333175
1105.43,0.083323,406116,335218
1109.06,0.082934,407701,336828
1112.7,0.082149,409859,339223
1117.53,0.083298,412494,340502
1121.15,0.084167,414909,341811
1124.77,0.084077,416559,343241
1128.38,0.085619,418532,343645
1131.99,0.086321,419956,344257
1135.6,0.087817,421946,344699
1139.2,0.090008,423881,344537
1143.99,0.092507,426786,344908
1147.58,0.093246,428617,345799
1151.17,0.094376,431169,346954
1154.75,0.095486,433579,348002
1158.33,0.097434,436264,348590
1161.91,0.099689,439132,349065
1165.48,0.102016,442389,349775
1169.04,0.104627,446101,350595
1173.79,0.108081,451929,352362
1177.34,0.110745,456026,353382
1180.9,0.113762,461306,354999
1184.44,0.115787,467657,358212
1187.99,0.117490,473969,361626
1191.52,0.116846,479856,366661
1195.06,0.116913,487372,372347
1199.76,0.116719,497347,380137
1203.29,0.115954,504311,386140
1206.81,0.115109,511507,392412
1210.33,0.114799,519078,398505
1213.84,0.113440,527163,405980
1217.35,0.113298,534208,411540
1220.85,0.112862,540472,416784
1225.51,0.111431,549929,425477
1229.01,0.111684,556888,430610
1232.5,0.110820,562180,435567
1235.98,0.110020,567975,440869
1239.46,0.109016,574815,447211
1242.94,0.108269,582782,454190
1246.41,0.107325,591476,461968
1251.03,0.107018,604016,472096
1254.5,0.107069,612289,478506
1257.96,0.107461,619125,483412
1261.41,0.107925,624551,487128
1264.86,0.108422,629900,490738
1268.31,0.108663,634345,493927
1271.75,0.109434,638574,496338
1276.33,0.109587,642499,499213
1279.76,0.109760,645905,501659
1283.19,0.108642,648307,504822
1286.61,0.109224,650446,505810
1290.03,0.108747,652132,507678
1293.44,0.108073,653907,509851
1296.85,0.108251,655963,511244
1301.39,0.108210,657349,512373
1304.8,0.107897,657558,512905
1308.19,0.108656,658515,512755
1311.58,0.108517,658804,513144
1314.97,0.109180,659011,512522
1318.36,0.109642,658272,511403
1321.73,0.109611,658022,511245
1326.23,0.111169,657870,509297
1329.6,0.111913,656482,507352
1332.97,0.112688,654926,505247
1336.33,0.114031,653727,502766
1339.69,0.115539,652497,500080
1343.04,0.117801,649913,495512
1346.39,0.119537,647671,491833
1349.73,0.121589,645338,487751
1354.18,0.124942,641175,480878
1357.52,0.126979,638376,476538
1360.85,0.129152,635805,472250
1364.17,0.131014,633413,468460
1367.49,0.133384,631026,464155
1370.81,0.134928,628050,460327
1374.12,0.136963,625034,455975
1378.54,0.139735,620272,449622
1381.84,0.143128,616892,443692
1385.14,0.147127,613613,437288
1388.43,0.151127,611526,431805
1391.72,0.156112,610663,426275
1395.01,0.161164,610634,421325
1398.29,0.166958,611700,416467
1402.66,0.174496,614051,410874
1405.93,0.180530,616268,406668
1409.2,0.186087,617795,402492
1412.46,0.192091,618872,397658
1415.72,0.197026,619795,393751
1418.98,0.201059,620495,390552
1422.23,0.205426,621087,387014
1426.56,0.211003,621375,382253
1429.8,0.214203,621616,379594
1433.04,0.217277,622129,377228
1436.27,0.220597,621526,373992
1439.5,0.223650,621113,371125
1442.72,0.226575,620921,368520
1445.94,0.229139,620270,365967
1450.23,0.233028,618860,361880
1453.44,0.235121,617697,359463
1456.64,0.239075,616264,355379
1459.85,0.241745,614413,352140
1463.04,0.244541,612307,348681
1466.24,0.247547,610032,344989
1469.43,0.250845,607345,340871
1473.67,0.256528,603789,334470
1476.85,0.260612,601175,329905
1480.02,0.265881,597737,324063
1483.19,0.271079,594479,318462
1486.36,0.276259,591232,312967
1489.52,0.280368,587853,308248
1492.68,0.283279,583875,304117
1496.89,0.284561,578062,300202
1500.03,0.285810,574159,297319
1503.18,0.285640,570285,295428
1506.32,0.284502,565444,293689
1509.45,0.282843,560571,292272
1512.58,0.281255,555821,290857
1515.71,0.279795,550344,288961
1519.87,0.276202,543983,287994
1522.99,0.273632,538764,286924
1526.1,0.271251,533692,285785
1529.21,0.267990,527902,284815
1532.32,0.265837,521886,282969
1535.42,0.262744,515888,281716
1538.51,0.260775,509987,279759
1541.6,0.256309,503936,279297
1545.72,0.253464,494694,275977
1548.8,0.250215,488378,274499
1551.88,0.246970,481832,272851
1554.95,0.245255,474989,270040
1558.02,0.243371,467818,267120
1561.08,0.242679,460730,263492
1564.15,0.240874,454170,260822
1568.22,0.239524,444181,255880
1571.27,0.238990,436947,252022
1574.32,0.237402,429598,248691
1577.36,0.236103,422039,245047
1580.4,0.234536,414375,241467
1583.43,0.233298,406354,237469
1586.46,0.231174,398475,234006
1590.49,0.229448,388982,229341
1593.51,0.227738,380708,225348
1596.53,0.225882,372727,221569
1599.54,0.224177,365060,217865
1602.55,0.222328,357543,214289
1605.55,0.219890,349495,210645
1608.55,0.217398,341154,206801
1612.54,0.216229,330877,201112
1615.53,0.213627,322904,197445
1618.51,0.212185,315116,193324
1621.49,0.211039,307217,188976
1624.47,0.210406,299481,184486
1627.44,0.208913,292112,180566
1630.41,0.207465,284245,176290
1634.36,0.206559,274079,170340
1637.32,0.204653,266916,166618
1640.27,0.203068,259612,162651
1643.22,0.201977,251804,158156
1646.16,0.201417,244348,153671
1649.1,0.200336,236703,149234
1652.04,0.199355,228171,144180
1655.95,0.195316,215408,137387
1658.88,0.190547,204937,132152
1661.8,0.185427,193395,126188
1664.72,0.178668,179728,119110
1667.63,0.164743,163642,111983
1670.54,0.150873,146312,103373
1673.44,0.135966,128451,93923
1677.31,0.116869,105080,80288
1680.21,0.104976,88906,69816
1683.1,0.100188,75033,59575
1685.99,0.101101,63520,50328
1688.87,0.104384,53714,42238
1691.75,0.106570,45653,35719
1694.62,0.107903,39137,30527
1697.49,0.111851,33776,26107
1701.31,0.117264,28175,21508