Folder: textile_sorting_NIRSCAN_/samples/wool/wool-000811 (part 119)

File: Column 1_050597_20150331_122224.csv
Method:,Column 1,,
Host Date-Time:,31/3/15 @ 12:22:24,,
Header Version:,1,,
System Temp (C):,33.94,,
Detector Temp (C):,34.72,,
Humidity (%):,1.76,,
Lamp PD:,3818,,
Shift Vector Coefficients:,-10.5391,0.0761263,-0.000134223,,
Pixel to Wavelength Coefficients:,1775.68,-0.916766,-0.000235065,,
Serial Number:,5510004,,
Scan Config Name:,Column 1,,
Scan Config Type:,Slew,,
Section 1,,
Start wavelength (nm):,900,,
End wavelength (nm):,1700,,
Pattern Pixel Width (nm):,   7.03,,,,
Exposure (ms):,  0.635,,,,
Digital Resolution:,228,,
Num Repeats:,6,,
PGA Gain:,64,,
Total Measurement Time in sec:,  2.669,,
Wavelength (nm),Absorbance (AU),Reference Signal (unitless),Sample Signal (unitless)
901.51,0.069425,108485,92458
905.376,0.073833,121306,102341
909.237,0.077482,131909,110355
913.095,0.076451,143299,120169
916.948,0.079737,156982,130651
922.079,0.079977,179937,149673
925.923,0.081385,200504,166241
929.762,0.082888,222660,183973
933.597,0.081905,244426,202415
937.427,0.081237,263972,218938
941.254,0.080626,281845,234091
945.076,0.079742,297271,247406
950.165,0.078860,315605,263199
953.978,0.077913,328029,274157
957.786,0.078667,340470,284061
961.59,0.078073,352317,294348
965.389,0.078005,363056,303367
969.185,0.078490,373162,311464
972.976,0.078633,382632,319263
976.763,0.079350,391202,325875
981.806,0.079542,400190,333215
985.583,0.080474,406088,337401
989.355,0.080466,410162,340792
993.124,0.080594,412868,342939
996.888,0.081685,414263,343235
1000.65,0.082246,415476,343795
1004.4,0.083700,415479,342649
1009.41,0.085010,414358,340695
1013.15,0.085968,412923,338767
1016.89,0.085491,411526,337992
1020.63,0.085430,409066,336019
1024.36,0.085258,406777,334271
1028.09,0.085305,404427,332304
1031.82,0.084626,401911,330753
1036.78,0.085180,398410,327454
1040.49,0.084755,396204,325960
1044.2,0.084496,394236,324534
1047.91,0.084261,392042,322903
1051.61,0.083993,389823,321273
1055.31,0.083503,388234,320325
1059,0.082907,387599,320240
1063.92,0.081668,386688,320400
1067.61,0.081376,386598,320541
1071.29,0.080943,387377,321507
1074.96,0.080531,388536,322775
1078.63,0.080625,389855,323801
1082.3,0.079852,391215,325509
1085.96,0.078224,393215,328402
1090.84,0.077851,396270,331238
1094.49,0.077518,398760,333575
1098.14,0.076238,400987,336428
1101.79,0.076589,403477,338244
1105.43,0.075723,406116,341136
1109.06,0.075145,407701,342923
1112.7,0.074218,409859,345475
1117.53,0.074600,412494,347390
1121.15,0.075361,414909,348812
1124.77,0.074976,416559,350510
1128.38,0.076405,418532,351013
1131.99,0.076391,419956,352219
1135.6,0.078513,421946,352163
1139.2,0.079952,423881,352608
1143.99,0.082102,426786,353271
1147.58,0.082856,428617,354171
1151.17,0.083505,431169,355748
1154.75,0.084270,433579,357107
1158.33,0.085863,436264,358003
1161.91,0.087438,439132,359052
1165.48,0.089531,442389,359976
1169.04,0.091779,446101,361122
1173.79,0.095191,451929,362977
1177.34,0.097302,456026,364492
1180.9,0.099396,461306,366938
1184.44,0.101099,467657,370534
1187.99,0.101796,473969,374933
1191.52,0.101839,479856,379553
1195.06,0.102122,487372,385246
1199.76,0.101352,497347,393829
1203.29,0.100984,504311,399682
1206.81,0.100635,511507,405711
1210.33,0.099690,519078,412613
1213.84,0.099174,527163,419538
1217.35,0.098925,534208,425388
1220.85,0.098222,540472,431073
1225.51,0.096716,549929,440140
1229.01,0.096769,556888,445655
1232.5,0.095805,562180,450890
1235.98,0.095210,567975,456162
1239.46,0.094584,574815,462321
1242.94,0.093940,582782,469425
1246.41,0.092854,591476,477621
1251.03,0.092444,604016,488208
1254.5,0.092848,612289,494434
1257.96,0.093333,619125,499396
1261.41,0.094206,624551,502761
1264.86,0.094618,629900,506587
1268.31,0.095018,634345,509692
1271.75,0.095705,638574,512279
1276.33,0.095621,642499,515527
1279.76,0.095673,645905,518198
1283.19,0.095133,648307,520772
1286.61,0.094563,650446,523177
1290.03,0.094397,652132,524733
1293.44,0.094285,653907,526297
1296.85,0.093631,655963,528747
1301.39,0.093874,657349,529568
1304.8,0.093197,657558,530563
1308.19,0.093718,658515,530698
1311.58,0.093901,658804,530708
1314.97,0.094295,659011,530393
1318.36,0.094585,658272,529444
1321.73,0.095364,658022,528295
1326.23,0.095774,657870,527674
1329.6,0.096877,656482,525226
1332.97,0.097609,654926,523098
1336.33,0.098658,653727,520881
1339.69,0.100121,652497,518152
1343.04,0.101684,649913,514246
1346.39,0.103622,647671,510191
1349.73,0.105668,645338,505964
1354.18,0.108311,641175,499650
1357.52,0.110489,638376,494980
1360.85,0.112349,635805,490879
1364.17,0.114175,633413,486981
1367.49,0.116605,631026,482439
1370.81,0.118899,628050,477634
1374.12,0.121059,625034,472982
1378.54,0.124109,620272,466094
1381.84,0.127223,616892,460242
1385.14,0.130171,613613,454699
1388.43,0.134047,611526,449126
1391.72,0.138129,610663,444296
1395.01,0.142678,610634,439646
1398.29,0.146734,611700,436319
1402.66,0.153416,614051,431309
1405.93,0.158438,616268,427889
1409.2,0.163935,617795,423555
1412.46,0.167993,618872,420347
1415.72,0.172160,619795,416954
1418.98,0.175900,620495,413846
1422.23,0.179127,621087,411174
1426.56,0.183528,621375,407217
1429.8,0.185515,621616,405515
1433.04,0.188766,622129,402823
1436.27,0.190222,621526,401086
1439.5,0.192863,621113,398389
1442.72,0.195055,620921,396261
1445.94,0.197674,620270,393466
1450.23,0.200693,618860,389852
1453.44,0.203497,617697,386615
1456.64,0.205962,616264,383535
1459.85,0.208988,614413,379728
1463.04,0.211898,612307,375899
1466.24,0.214971,610032,371862
1469.43,0.218727,607345,367036
1473.67,0.224281,603789,360250
1476.85,0.229447,601175,354449
1480.02,0.235634,597737,347437
1483.19,0.241698,594479,340752
1486.36,0.247616,591232,334304
1489.52,0.252383,587853,328765
1492.68,0.255329,583875,324333
1496.89,0.257659,578062,319386
1500.03,0.258157,574159,316866
1503.18,0.257612,570285,315123
1506.32,0.257845,565444,312280
1509.45,0.256049,560571,310872
1512.58,0.254667,555821,309220
1515.71,0.252168,550344,307940
1519.87,0.249272,543983,306417
1522.99,0.246602,538764,305349
1526.1,0.243502,533692,304641
1529.21,0.241142,527902,302978
1532.32,0.238258,521886,301521
1535.42,0.235747,515888,299784
1538.51,0.232055,509987,298885
1541.6,0.229552,503936,297046
1545.72,0.225867,494694,294083
1548.8,0.222969,488378,292272
1551.88,0.219956,481832,290362
1554.95,0.218430,474989,287246
1558.02,0.216974,467818,283859
1561.08,0.215695,460730,280383
1564.15,0.215239,454170,276681
1568.22,0.214403,444181,271117
1571.27,0.213313,436947,267372
1574.32,0.212399,429598,263429
1577.36,0.211468,422039,259349
1580.4,0.210050,414375,255472
1583.43,0.208329,406354,251522
1586.46,0.207363,398475,247194
1590.49,0.204996,388982,242624
1593.51,0.203402,380708,238336
1596.53,0.200985,372727,234642
1599.54,0.199268,365060,230726
1602.55,0.197919,357543,226678
1605.55,0.195701,349495,222710
1608.55,0.192937,341154,218783
1612.54,0.191768,330877,212764
1615.53,0.189231,322904,208854
1618.51,0.188589,315116,204118
1621.49,0.188409,307217,199084
1624.47,0.186542,299481,194907
1627.44,0.185404,292112,190610
1630.41,0.184357,284245,185924
1634.36,0.182782,274079,179926
1637.32,0.183394,266916,174977
1640.27,0.182565,259612,170514
1643.22,0.181167,251804,165919
1646.16,0.180827,244348,161132
1649.1,0.179481,236703,156575
1652.04,0.177530,228171,151611
1655.95,0.175597,215408,143769
1658.88,0.170215,204937,138486
1661.8,0.165224,193395,132197
1664.72,0.157466,179728,125069
1667.63,0.146240,163642,116857
1670.54,0.132138,146312,107930
1673.44,0.114513,128451,98679
1677.31,0.096151,105080,84211
1680.21,0.084076,88906,73258
1683.1,0.077763,75033,62732
1685.99,0.082313,63520,52553
1688.87,0.079120,53714,44768
1691.75,0.083647,45653,37655
1694.62,0.088457,39137,31925
1697.49,0.094806,33776,27152
1701.31,0.102300,28175,22262

File: Column 1_050598_20150331_122227.csv
Method:,Column 1,,
Host Date-Time:,31/3/15 @ 12:22:27,,
Header Version:,1,,
System Temp (C):,33.94,,
Detector Temp (C):,34.69,,
Humidity (%):,1.76,,
Lamp PD:,3818,,
Shift Vector Coefficients:,-10.5391,0.0761263,-0.000134223,,
Pixel to Wavelength Coefficients:,1775.68,-0.916766,-0.000235065,,
Serial Number:,5510004,,
Scan Config Name:,Column 1,,
Scan Config Type:,Slew,,
Section 1,,
Start wavelength (nm):,900,,
End wavelength (nm):,1700,,
Pattern Pixel Width (nm):,   7.03,,,,
Exposure (ms):,  0.635,,,,
Digital Resolution:,228,,
Num Repeats:,6,,
PGA Gain:,64,,
Total Measurement Time in sec:,  2.671,,
Wavelength (nm),Absorbance (AU),Reference Signal (unitless),Sample Signal (unitless)
901.51,0.070926,108485,92139
905.376,0.077510,121306,101478
909.237,0.078274,131909,110154
913.095,0.080729,143299,118991
916.948,0.079598,156982,130693
922.079,0.081151,179937,149269
925.923,0.081803,200504,166081
929.762,0.083590,222660,183676
933.597,0.082936,244426,201935
937.427,0.082267,263972,218419
941.254,0.080793,281845,234001
945.076,0.079844,297271,247348
950.165,0.079132,315605,263034
953.978,0.077908,328029,274160
957.786,0.078586,340470,284114
961.59,0.078561,352317,294017
965.389,0.078173,363056,303250
969.185,0.078027,373162,311796
972.976,0.079332,382632,318749
976.763,0.079817,391202,325525
981.806,0.079801,400190,333016
985.583,0.080745,406088,337190
989.355,0.080803,410162,340528
993.124,0.081241,412868,342429
996.888,0.081826,414263,343123
1000.65,0.082637,415476,343486
1004.4,0.084098,415479,342335
1009.41,0.084809,414358,340853
1013.15,0.085812,412923,338889
1016.89,0.085781,411526,337766
1020.63,0.086471,409066,335214
1024.36,0.086386,406777,333404
1028.09,0.085735,404427,331975
1031.82,0.085592,401911,330018
1036.78,0.084818,398410,327727
1040.49,0.084910,396204,325843
1044.2,0.085343,394236,323902
1047.91,0.084546,392042,322691
1051.61,0.084111,389823,321186
1055.31,0.083911,388234,320024
1059,0.083655,387599,319689
1063.92,0.082890,386688,319500
1067.61,0.081827,386598,320208
1071.29,0.081655,387377,320981
1074.96,0.081217,388536,322266
1078.63,0.080626,389855,323800
1082.3,0.079403,391215,325846
1085.96,0.078695,393215,328046
1090.84,0.077901,396270,331200
1094.49,0.076770,398760,334150
1098.14,0.077104,400987,335758
1101.79,0.076675,403477,338177
1105.43,0.076692,406116,340375
1109.06,0.075353,407701,342759
1112.7,0.074756,409859,345047
1117.53,0.074953,412494,347108
1121.15,0.075709,414909,348533
1124.77,0.075401,416559,350167
1128.38,0.076550,418532,350896
1131.99,0.077395,419956,351406
1135.6,0.078947,421946,351811
1139.2,0.080312,423881,352316
1143.99,0.081992,426786,353361
1147.58,0.083071,428617,353996
1151.17,0.084120,431169,355245
1154.75,0.084923,433579,356570
1158.33,0.086513,436264,357467
1161.91,0.087597,439132,358920
1165.48,0.089826,442389,359731
1169.04,0.092310,446101,360681
1173.79,0.095477,451929,362738
1177.34,0.098064,456026,363853
1180.9,0.099966,461306,366457
1184.44,0.101744,467657,369984
1187.99,0.102470,473969,374352
1191.52,0.102657,479856,378838
1195.06,0.102490,487372,384920
1199.76,0.101886,497347,393345
1203.29,0.101218,504311,399467
1206.81,0.101039,511507,405334
1210.33,0.100077,519078,412245
1213.84,0.099437,527163,419284
1217.35,0.098428,534208,425875
1220.85,0.098120,540472,431175
1225.51,0.097228,549929,439621
1229.01,0.097422,556888,444986
1232.5,0.096543,562180,450124
1235.98,0.096119,567975,455208
1239.46,0.094982,574815,461898
1242.94,0.093478,582782,469925
1246.41,0.093307,591476,477123
1251.03,0.093143,604016,487422
1254.5,0.093094,612289,494154
1257.96,0.093524,619125,499177
1261.41,0.094450,624551,502479
1264.86,0.094738,629900,506447
1268.31,0.095269,634345,509397
1271.75,0.096258,638574,511627
1276.33,0.095577,642499,515579
1279.76,0.095685,645905,518184
1283.19,0.095818,648307,519951
1286.61,0.094883,650446,522791
1290.03,0.094566,652132,524529
1293.44,0.094125,653907,526491
1296.85,0.094069,655963,528214
1301.39,0.093866,657349,529578
1304.8,0.093580,657558,530095
1308.19,0.093821,658515,530573
1311.58,0.093878,658804,530736
1314.97,0.094391,659011,530276
1318.36,0.095164,658272,528739
1321.73,0.095595,658022,528014
1326.23,0.096435,657870,526872
1329.6,0.097068,656482,524995
1332.97,0.097885,654926,522766
1336.33,0.098670,653727,520866
1339.69,0.100403,652497,517816
1343.04,0.101495,649913,514470
1346.39,0.103851,647671,509922
1349.73,0.105970,645338,505612
1354.18,0.108885,641175,498990
1357.52,0.111088,638376,494298
1360.85,0.112826,635805,490341
1364.17,0.114828,633413,486249
1367.49,0.117087,631026,481904
1370.81,0.119415,628050,477067
1374.12,0.121274,625034,472748
1378.54,0.124341,620272,465845
1381.84,0.127177,616892,460291
1385.14,0.130400,613613,454459
1388.43,0.134775,611526,448373
1391.72,0.138444,610663,443974
1395.01,0.142970,610634,439350
1398.29,0.147734,611700,435316
1402.66,0.153613,614051,431113
1405.93,0.159133,616268,427205
1409.2,0.164139,617795,423356
1412.46,0.168454,618872,419901
1415.72,0.172178,619795,416937
1418.98,0.176007,620495,413744
1422.23,0.179577,621087,410748
1426.56,0.183759,621375,407000
1429.8,0.186155,621616,404918
1433.04,0.187926,622129,403603
1436.27,0.190781,621526,400570
1439.5,0.192953,621113,398307
1442.72,0.194824,620921,396472
1445.94,0.197935,620270,393229
1450.23,0.200991,618860,389584
1453.44,0.204010,617697,386158
1456.64,0.206333,616264,383207
1459.85,0.209459,614413,379316
1463.04,0.212059,612307,375760
1466.24,0.215703,610032,371236
1469.43,0.218454,607345,367267
1473.67,0.225293,603789,359412
1476.85,0.230234,601175,353807
1480.02,0.236239,597737,346953
1483.19,0.242116,594479,340424
1486.36,0.247546,591232,334358
1489.52,0.252383,587853,328765
1492.68,0.255432,583875,324256
1496.89,0.257312,578062,319641
1500.03,0.258303,574159,316759
1503.18,0.258038,570285,314814
1506.32,0.257626,565444,312438
1509.45,0.255948,560571,310944
1512.58,0.254214,555821,309543
1515.71,0.252249,550344,307883
1519.87,0.249064,543983,306564
1522.99,0.247483,538764,304730
1526.1,0.244544,533692,303911
1529.21,0.241182,527902,302950
1532.32,0.238385,521886,301433
1535.42,0.235824,515888,299731
1538.51,0.233573,509987,297842
1541.6,0.230323,503936,296519
1545.72,0.226007,494694,293988
1548.8,0.223186,488378,292126
1551.88,0.220860,481832,289758
1554.95,0.218502,474989,287198
1558.02,0.217277,467818,283661
1561.08,0.216572,460730,279817
1564.15,0.215357,454170,276606
1568.22,0.214487,444181,271065
1571.27,0.213804,436947,267070
1574.32,0.213250,429598,262913
1577.36,0.212341,422039,258828
1580.4,0.209683,414375,255688
1583.43,0.208658,406354,251331
1586.46,0.208250,398475,246690
1590.49,0.205714,388982,242223
1593.51,0.204114,380708,237946
1596.53,0.201487,372727,234371
1599.54,0.199635,365060,230531
1602.55,0.198694,357543,226274
1605.55,0.196101,349495,222505
1608.55,0.194096,341154,218200
1612.54,0.192447,330877,212432
1615.53,0.190036,322904,208467
1618.51,0.189859,315116,203522
1621.49,0.188110,307217,199221
1624.47,0.187075,299481,194668
1627.44,0.185477,292112,190578
1630.41,0.186021,284245,185213
1634.36,0.184027,274079,179411
1637.32,0.183324,266916,175005
1640.27,0.183503,259612,170146
1643.22,0.181237,251804,165892
1646.16,0.180946,244348,161088
1649.1,0.180793,236703,156103
1652.04,0.178060,228171,151426
1655.95,0.175177,215408,143908
1658.88,0.173902,204937,137315
1661.8,0.172165,193395,130101
1664.72,0.157102,179728,125174
1667.63,0.146471,163642,116795
1670.54,0.132363,146312,107874
1673.44,0.115173,128451,98529
1677.31,0.097779,105080,83896
1680.21,0.086263,88906,72890
1683.1,0.081671,75033,62170
1685.99,0.080985,63520,52714
1688.87,0.082617,53714,44409
1691.75,0.088460,45653,37240
1694.62,0.102011,39137,30944
1697.49,0.094998,33776,27140
1701.31,0.107126,28175,22016

File: Column 1_050598_20150331_122229.csv
Method:,Column 1,,
Host Date-Time:,31/3/15 @ 12:22:29,,
Header Version:,1,,
System Temp (C):,33.98,,
Detector Temp (C):,34.69,,
Humidity (%):,1.76,,
Lamp PD:,3818,,
Shift Vector Coefficients:,-10.5391,0.0761263,-0.000134223,,
Pixel to Wavelength Coefficients:,1775.68,-0.916766,-0.000235065,,
Serial Number:,5510004,,
Scan Config Name:,Column 1,,
Scan Config Type:,Slew,,
Section 1,,
Start wavelength (nm):,900,,
End wavelength (nm):,1700,,
Pattern Pixel Width (nm):,   7.03,,,,
Exposure (ms):,  0.635,,,,
Digital Resolution:,228,,
Num Repeats:,6,,
PGA Gain:,64,,
Total Measurement Time in sec:,  2.731,,
Wavelength (nm),Absorbance (AU),Reference Signal (unitless),Sample Signal (unitless)
901.51,0.069204,108485,92505
905.376,0.076450,121306,101726
909.237,0.078945,131909,109984
913.095,0.079756,143299,119258
916.948,0.079687,156982,130666
922.079,0.080343,179937,149547
925.923,0.082148,200504,165949
929.762,0.082803,222660,184009
933.597,0.083317,244426,201758
937.427,0.081938,263972,218585
941.254,0.081192,281845,233786
945.076,0.080152,297271,247173
950.165,0.079160,315605,263017
953.978,0.078710,328029,273654
957.786,0.078887,340470,283917
961.59,0.078956,352317,293750
965.389,0.078369,363056,303113
969.185,0.078371,373162,311549
972.976,0.078746,382632,319180
976.763,0.079834,391202,325512
981.806,0.080096,400190,332790
985.583,0.080699,406088,337226
989.355,0.081415,410162,340048
993.124,0.081548,412868,342187
996.888,0.081906,414263,343060
1000.65,0.082776,415476,343376
1004.4,0.084439,415479,342066
1009.41,0.085588,414358,340242
1013.15,0.085174,412923,339387
1016.89,0.085879,411526,337690
1020.63,0.085321,409066,336103
1024.36,0.086163,406777,333575
1028.09,0.085136,404427,332433
1031.82,0.085323,401911,330223
1036.78,0.084749,398410,327779
1040.49,0.084592,396204,326082
1044.2,0.085103,394236,324081
1047.91,0.084499,392042,322726
1051.61,0.083966,389823,321293
1055.31,0.084117,388234,319872
1059,0.083546,387599,319769
1063.92,0.082444,386688,319828
1067.61,0.081385,386598,320534
1071.29,0.081719,387377,320933
1074.96,0.081362,388536,322158
1078.63,0.080502,389855,323893
1082.3,0.079311,391215,325915
1085.96,0.079360,393215,327544
1090.84,0.078180,396270,330987
1094.49,0.076697,398760,334206
1098.14,0.076773,400987,336014
1101.79,0.076772,403477,338101
1105.43,0.076121,406116,340823
1109.06,0.075714,407701,342474
1112.7,0.075423,409859,344518
1117.53,0.075272,412494,346853
1121.15,0.075611,414909,348612
1124.77,0.074997,416559,350493
1128.38,0.076146,418532,351223
1131.99,0.076980,419956,351742
1135.6,0.078776,421946,351950
1139.2,0.080238,423881,352376
1143.99,0.082645,426786,352830
1147.58,0.082941,428617,354102
1151.17,0.083831,431169,355481
1154.75,0.084789,433579,356680
1158.33,0.086415,436264,357548
1161.91,0.088045,439132,358550
1165.48,0.090204,442389,359418
1169.04,0.092428,446101,360583
1173.79,0.095538,451929,362687
1177.34,0.097508,456026,364319
1180.9,0.099458,461306,366886
1184.44,0.101458,467657,370228
1187.99,0.102553,473969,374280
1191.52,0.102175,479856,379259
1195.06,0.102399,487372,385001
1199.76,0.102155,497347,393101
1203.29,0.100911,504311,399749
1206.81,0.101124,511507,405254
1210.33,0.099928,519078,412387
1213.84,0.098932,527163,419771
1217.35,0.099015,534208,425300
1220.85,0.097829,540472,431464
1225.51,0.097384,549929,439463
1229.01,0.097319,556888,445091
1232.5,0.096071,562180,450614
1235.98,0.095705,567975,455642
1239.46,0.094534,574815,462375
1242.94,0.093151,582782,470279
1246.41,0.092662,591476,477832
1251.03,0.092515,604016,488128
1254.5,0.093156,612289,494084
1257.96,0.093769,619125,498895
1261.41,0.094148,624551,502828
1264.86,0.094383,629900,506861
1268.31,0.095112,634345,509581
1271.75,0.096133,638574,511774
1276.33,0.096071,642499,514993
1279.76,0.096142,645905,517639
1283.19,0.095383,648307,520473
1286.61,0.095232,650446,522371
1290.03,0.094757,652132,524298
1293.44,0.094085,653907,526539
1296.85,0.094186,655963,528072
1301.39,0.093891,657349,529548
1304.8,0.093678,657558,529976
1308.19,0.093893,658515,530484
1311.58,0.093766,658804,530873
1314.97,0.094655,659011,529953
1318.36,0.095060,658272,528866
1321.73,0.095495,658022,528136
1326.23,0.096465,657870,526836
1329.6,0.097147,656482,524899
1332.97,0.097640,654926,523061
1336.33,0.099135,653727,520309
1339.69,0.100263,652497,517983
1343.04,0.101889,649913,514004
1346.39,0.103482,647671,510355
1349.73,0.105895,645338,505699
1354.18,0.108982,641175,498878
1357.52,0.110735,638376,494700
1360.85,0.112838,635805,490327
1364.17,0.114700,633413,486393
1367.49,0.116998,631026,482002
1370.81,0.119072,628050,477444
1374.12,0.121256,625034,472767
1378.54,0.124271,620272,465920
1381.84,0.127497,616892,459952
1385.14,0.130343,613613,454518
1388.43,0.133509,611526,449682
1391.72,0.138453,610663,443965
1395.01,0.142852,610634,439470
1398.29,0.147629,611700,435421
1402.66,0.153800,614051,430928
1405.93,0.159370,616268,426972
1409.2,0.163872,617795,423616
1412.46,0.168488,618872,419868
1415.72,0.172366,619795,416756
1418.98,0.176378,620495,413390
1422.23,0.179443,621087,410875
1426.56,0.184131,621375,406652
1429.8,0.186374,621616,404714
1433.04,0.188956,622129,402647
1436.27,0.190861,621526,400496
1439.5,0.192916,621113,398341
1442.72,0.195557,620921,395803
1445.94,0.197489,620270,393633
1450.23,0.201112,618860,389476
1453.44,0.203617,617697,386508
1456.64,0.206366,616264,383178
1459.85,0.209067,614413,379659
1463.04,0.212029,612307,375786
1466.24,0.215416,610032,371481
1469.43,0.219020,607345,366788
1473.67,0.225220,603789,359472
1476.85,0.230194,601175,353840
1480.02,0.236608,597737,346659
1483.19,0.241566,594479,340856
1486.36,0.246786,591232,334944
1489.52,0.252662,587853,328554
1492.68,0.255976,583875,323850
1496.89,0.258344,578062,318882
1500.03,0.258019,574159,316966
1503.18,0.258598,570285,314408
1506.32,0.257437,565444,312574
1509.45,0.257029,560571,310171
1512.58,0.254826,555821,309107
1515.71,0.252428,550344,307756
1519.87,0.249692,543983,306121
1522.99,0.247453,538764,304751
1526.1,0.244450,533692,303977
1529.21,0.241347,527902,302835
1532.32,0.238762,521886,301171
1535.42,0.235874,515888,299696
1538.51,0.232107,509987,298849
1541.6,0.230061,503936,296698
1545.72,0.226564,494694,293611
1548.8,0.222859,488378,292346
1551.88,0.220510,481832,289992
1554.95,0.218841,474989,286974
1558.02,0.217829,467818,283301
1561.08,0.216053,460730,280152
1564.15,0.216061,454170,276158
1568.22,0.214358,444181,271145
1571.27,0.213784,436947,267082
1574.32,0.212973,429598,263081
1577.36,0.211013,422039,259621
1580.4,0.210767,414375,255051
1583.43,0.209478,406354,250857
1586.46,0.208214,398475,246710
1590.49,0.205495,388982,242345
1593.51,0.203554,380708,238253
1596.53,0.201704,372727,234254
1599.54,0.199633,365060,230532
1602.55,0.197779,357543,226751
1605.55,0.195807,349495,222656
1608.55,0.194241,341154,218127
1612.54,0.192338,330877,212485
1615.53,0.190655,322904,208170
1618.51,0.189863,315116,203520
1621.49,0.188854,307217,198880
1624.47,0.187244,299481,194592
1627.44,0.186819,292112,189990
1630.41,0.184350,284245,185927
1634.36,0.185054,274079,178987
1637.32,0.183431,266916,174962
1640.27,0.183633,259612,170095
1643.22,0.182774,251804,165306
1646.16,0.181590,244348,160849
1649.1,0.179626,236703,156523
1652.04,0.179235,228171,151017
1655.95,0.176283,215408,143542
1658.88,0.171883,204937,137955
1661.8,0.167985,193395,131359
1664.72,0.159007,179728,124626
1667.63,0.146854,163642,116692
1670.54,0.133569,146312,107575
1673.44,0.116449,128451,98240
1677.31,0.096337,105080,84175
1680.21,0.086770,88906,72805
1683.1,0.080346,75033,62360
1685.99,0.078463,63520,53021
1688.87,0.082978,53714,44372
1691.75,0.089967,45653,37111
1694.62,0.094263,39137,31501
1697.49,0.100911,33776,26773
1701.31,0.115249,28175,21608