Folder: textile_sorting_NIRSCAN_/samples/wool/wool-000811 (part 44)

File: Column 1_050555_20150331_120205.csv
Method:,Column 1,,
Host Date-Time:,31/3/15 @ 12:2:5,,
Header Version:,1,,
System Temp (C):,33.46,,
Detector Temp (C):,32.52,,
Humidity (%):,2.44,,
Lamp PD:,3821,,
Shift Vector Coefficients:,-10.5391,0.0761263,-0.000134223,,
Pixel to Wavelength Coefficients:,1775.68,-0.916766,-0.000235065,,
Serial Number:,5510004,,
Scan Config Name:,Column 1,,
Scan Config Type:,Slew,,
Section 1,,
Start wavelength (nm):,900,,
End wavelength (nm):,1700,,
Pattern Pixel Width (nm):,   7.03,,,,
Exposure (ms):,  0.635,,,,
Digital Resolution:,228,,
Num Repeats:,6,,
PGA Gain:,64,,
Total Measurement Time in sec:,  2.736,,
Wavelength (nm),Absorbance (AU),Reference Signal (unitless),Sample Signal (unitless)
901.51,0.033865,108485,100347
905.376,0.039456,121306,110771
909.237,0.041252,131909,119956
913.095,0.042801,143299,129850
916.948,0.041883,156982,142550
922.079,0.043597,179937,162751
925.923,0.045223,200504,180676
929.762,0.046213,222660,200184
933.597,0.045954,244426,219884
937.427,0.046440,263972,237202
941.254,0.046121,281845,253448
945.076,0.045921,297271,267443
950.165,0.046471,315605,283578
953.978,0.045389,328029,295477
957.786,0.046016,340470,306241
961.59,0.045989,352317,316916
965.389,0.046162,363056,326446
969.185,0.046431,373162,335325
972.976,0.046807,382632,343538
976.763,0.047978,391202,350286
981.806,0.048313,400190,358058
985.583,0.049100,406088,362677
989.355,0.049555,410162,365932
993.124,0.049599,412868,368309
996.888,0.050833,414263,368505
1000.65,0.051084,415476,369370
1004.4,0.052255,415479,368378
1009.41,0.053888,414358,366006
1013.15,0.054311,412923,364383
1016.89,0.055186,411526,362419
1020.63,0.054699,409066,360657
1024.36,0.054860,406777,358506
1028.09,0.054114,404427,357048
1031.82,0.054032,401911,354893
1036.78,0.053906,398410,351904
1040.49,0.053755,396204,350077
1044.2,0.053070,394236,348888
1047.91,0.053300,392042,346763
1051.61,0.052262,389823,345625
1055.31,0.051379,388234,344917
1059,0.051299,387599,344416
1063.92,0.050609,386688,344153
1067.61,0.049755,386598,344750
1071.29,0.049407,387377,345722
1074.96,0.048847,388536,347204
1078.63,0.048129,389855,348959
1082.3,0.047134,391215,350979
1085.96,0.046185,393215,353545
1090.84,0.046001,396270,356443
1094.49,0.044934,398760,359565
1098.14,0.045100,400987,361435
1101.79,0.044731,403477,363989
1105.43,0.044940,406116,366193
1109.06,0.044112,407701,368324
1112.7,0.043309,409859,370959
1117.53,0.044171,412494,372603
1121.15,0.044906,414909,374151
1124.77,0.046017,416559,374679
1128.38,0.046830,418532,375750
1131.99,0.048250,419956,375797
1135.6,0.050209,421946,375879
1139.2,0.052422,423881,375683
1143.99,0.054360,426786,376574
1147.58,0.055761,428617,376971
1151.17,0.056405,431169,378654
1154.75,0.058073,433579,379311
1158.33,0.059733,436264,380204
1161.91,0.061842,439132,380849
1165.48,0.064330,442389,381482
1169.04,0.067557,446101,381835
1173.79,0.071158,451929,383630
1177.34,0.073548,456026,384983
1180.9,0.075545,461306,387654
1184.44,0.076879,467657,391786
1187.99,0.077922,473969,396121
1191.52,0.078241,479856,400747
1195.06,0.077791,487372,407446
1199.76,0.077084,497347,416462
1203.29,0.075588,504311,423751
1206.81,0.075092,511507,430288
1210.33,0.073797,519078,437961
1213.84,0.074078,527163,444495
1217.35,0.072916,534208,451642
1220.85,0.071820,540472,458092
1225.51,0.070760,549929,467247
1229.01,0.070166,556888,473807
1232.5,0.069498,562180,479046
1235.98,0.068930,567975,484618
1239.46,0.068055,574815,491443
1242.94,0.066985,582782,499483
1246.41,0.066177,591476,507879
1251.03,0.066234,604016,518578
1254.5,0.066403,612289,525477
1257.96,0.066942,619125,530685
1261.41,0.067361,624551,534819
1264.86,0.067419,629900,539328
1268.31,0.068500,634345,541783
1271.75,0.069580,638574,544040
1276.33,0.069724,642499,547203
1279.76,0.069601,645905,550259
1283.19,0.069121,648307,552917
1286.61,0.068800,650446,555151
1290.03,0.068191,652132,557371
1293.44,0.067738,653907,559471
1296.85,0.067936,655963,560975
1301.39,0.067602,657349,562593
1304.8,0.067404,657558,563028
1308.19,0.067612,658515,563578
1311.58,0.068074,658804,563225
1314.97,0.068688,659011,562606
1318.36,0.069333,658272,561141
1321.73,0.069661,658022,560505
1326.23,0.070961,657870,558701
1329.6,0.071751,656482,556508
1332.97,0.072791,654926,553862
1336.33,0.073717,653727,551670
1339.69,0.075479,652497,548402
1343.04,0.077517,649913,543674
1346.39,0.080061,647671,538634
1349.73,0.082342,645338,533882
1354.18,0.085179,641175,526984
1357.52,0.087634,638376,521726
1360.85,0.089560,635805,517326
1364.17,0.091667,633413,512885
1367.49,0.094752,631026,507335
1370.81,0.096972,628050,502368
1374.12,0.099578,625034,496965
1378.54,0.103086,620272,489211
1381.84,0.106712,616892,482500
1385.14,0.110734,613613,475511
1388.43,0.115917,611526,468272
1391.72,0.120787,610663,462397
1395.01,0.125958,610634,456902
1398.29,0.131811,611700,451573
1402.66,0.139684,614051,445164
1405.93,0.145782,616268,440542
1409.2,0.151843,617795,435513
1412.46,0.157479,618872,430647
1415.72,0.161910,619795,426912
1418.98,0.166571,620495,422831
1422.23,0.170591,621087,419335
1426.56,0.175046,621375,415248
1429.8,0.178051,621616,412545
1433.04,0.180633,622129,410438
1436.27,0.183288,621526,407541
1439.5,0.185427,621113,405269
1442.72,0.187747,620921,402985
1445.94,0.190472,620270,400045
1450.23,0.194344,618860,395593
1453.44,0.196794,617697,392628
1456.64,0.200281,616264,388585
1459.85,0.202732,614413,385237
1463.04,0.205700,612307,381302
1466.24,0.208743,610032,377233
1469.43,0.211515,607345,373182
1473.67,0.217340,603789,366054
1476.85,0.222739,601175,359966
1480.02,0.228059,597737,353550
1483.19,0.234727,594479,346266
1486.36,0.240343,591232,339950
1489.52,0.245065,587853,334352
1492.68,0.248218,583875,329687
1496.89,0.250526,578062,324675
1500.03,0.251031,574159,322108
1503.18,0.251231,570285,319787
1506.32,0.250779,565444,317403
1509.45,0.249082,560571,315899
1512.58,0.247803,555821,314146
1515.71,0.245608,550344,312627
1519.87,0.241889,543983,311671
1522.99,0.238965,538764,310766
1526.1,0.236564,533692,309547
1529.21,0.233569,527902,308308
1532.32,0.231002,521886,306601
1535.42,0.226992,515888,305889
1538.51,0.224428,509987,304180
1541.6,0.221601,503936,302534
1545.72,0.217499,494694,299804
1548.8,0.214001,488378,298370
1551.88,0.212199,481832,295595
1554.95,0.208618,474989,293809
1558.02,0.207341,467818,290226
1561.08,0.206104,460730,286644
1564.15,0.205434,454170,282999
1568.22,0.203432,444181,278053
1571.27,0.202905,436947,273857
1574.32,0.201964,429598,269835
1577.36,0.200628,422039,265904
1580.4,0.199101,414375,261995
1583.43,0.197728,406354,257737
1586.46,0.195323,398475,254143
1590.49,0.193477,388982,249145
1593.51,0.191061,380708,245206
1596.53,0.188395,372727,241544
1599.54,0.186532,365060,237592
1602.55,0.184370,357543,233861
1605.55,0.181893,349495,229905
1608.55,0.180106,341154,225343
1612.54,0.178485,330877,219372
1615.53,0.175463,322904,215581
1618.51,0.173811,315116,211183
1621.49,0.173388,307217,206090
1624.47,0.172103,299481,201496
1627.44,0.170863,292112,197100
1630.41,0.169752,284245,192283
1634.36,0.168669,274079,185869
1637.32,0.168355,266916,181142
1640.27,0.166715,259612,176852
1643.22,0.165678,251804,171943
1646.16,0.165370,244348,166970
1649.1,0.164654,236703,162013
1652.04,0.162759,228171,156856
1655.95,0.161342,215408,148566
1658.88,0.157565,204937,142579
1661.8,0.153750,193395,135736
1664.72,0.150231,179728,127170
1667.63,0.141255,163642,118206
1670.54,0.131005,146312,108212
1673.44,0.119599,128451,97530
1677.31,0.108305,105080,81887
1680.21,0.101661,88906,70351
1683.1,0.105816,75033,58808
1685.99,0.109500,63520,49364
1688.87,0.111015,53714,41598
1691.75,0.119240,45653,34692
1694.62,0.120387,39137,29662
1697.49,0.122392,33776,25481
1701.31,0.126158,28175,21072

File: Column 1_050555_20150331_120208.csv
Method:,Column 1,,
Host Date-Time:,31/3/15 @ 12:2:8,,
Header Version:,1,,
System Temp (C):,33.45,,
Detector Temp (C):,32.5,,
Humidity (%):,2.44,,
Lamp PD:,3820,,
Shift Vector Coefficients:,-10.5391,0.0761263,-0.000134223,,
Pixel to Wavelength Coefficients:,1775.68,-0.916766,-0.000235065,,
Serial Number:,5510004,,
Scan Config Name:,Column 1,,
Scan Config Type:,Slew,,
Section 1,,
Start wavelength (nm):,900,,
End wavelength (nm):,1700,,
Pattern Pixel Width (nm):,   7.03,,,,
Exposure (ms):,  0.635,,,,
Digital Resolution:,228,,
Num Repeats:,6,,
PGA Gain:,64,,
Total Measurement Time in sec:,  2.677,,
Wavelength (nm),Absorbance (AU),Reference Signal (unitless),Sample Signal (unitless)
901.51,0.034220,108485,100265
905.376,0.040394,121306,110532
909.237,0.041647,131909,119847
913.095,0.041829,143299,130141
916.948,0.042651,156982,142298
922.079,0.045756,179937,161944
925.923,0.045805,200504,180434
929.762,0.046632,222660,199991
933.597,0.047020,244426,219345
937.427,0.046943,263972,236927
941.254,0.046564,281845,253190
945.076,0.045718,297271,267568
950.165,0.045475,315605,284229
953.978,0.044729,328029,295926
957.786,0.045796,340470,306396
961.59,0.046324,352317,316672
965.389,0.046504,363056,326189
969.185,0.046390,373162,335357
972.976,0.046984,382632,343398
976.763,0.048132,391202,350162
981.806,0.048534,400190,357876
985.583,0.048959,406088,362795
989.355,0.049549,410162,365937
993.124,0.050234,412868,367771
996.888,0.050671,414263,368642
1000.65,0.051751,415476,368803
1004.4,0.052497,415479,368173
1009.41,0.053902,414358,365994
1013.15,0.054490,412923,364233
1016.89,0.054761,411526,362774
1020.63,0.055277,409066,360177
1024.36,0.055385,406777,358073
1028.09,0.054445,404427,356776
1031.82,0.054659,401911,354381
1036.78,0.053648,398410,352113
1040.49,0.053187,396204,350535
1044.2,0.053782,394236,348317
1047.91,0.052897,392042,347085
1051.61,0.052519,389823,345421
1055.31,0.051835,388234,344555
1059,0.051291,387599,344423
1063.92,0.050295,386688,344402
1067.61,0.049464,386598,344981
1071.29,0.048811,387377,346197
1074.96,0.048800,388536,347241
1078.63,0.047887,389855,349153
1082.3,0.046868,391215,351194
1085.96,0.046167,393215,353560
1090.84,0.046113,396270,356351
1094.49,0.045724,398760,358912
1098.14,0.045344,400987,361232
1101.79,0.044506,403477,364177
1105.43,0.044896,406116,366230
1109.06,0.044436,407701,368049
1112.7,0.044466,409859,369972
1117.53,0.044125,412494,372643
1121.15,0.045255,414909,373850
1124.77,0.045680,416559,374970
1128.38,0.046906,418532,375684
1131.99,0.048319,419956,375738
1135.6,0.050010,421946,376051
1139.2,0.051876,423881,376156
1143.99,0.054606,426786,376361
1147.58,0.056056,428617,376715
1151.17,0.056892,431169,378230
1154.75,0.058171,433579,379225
1158.33,0.060523,436264,379513
1161.91,0.062089,439132,380633
1165.48,0.064469,442389,381360
1169.04,0.067113,446101,382226
1173.79,0.070840,451929,383911
1177.34,0.073159,456026,385328
1180.9,0.075443,461306,387745
1184.44,0.077416,467657,391301
1187.99,0.078133,473969,395929
1191.52,0.078141,479856,400839
1195.06,0.077977,487372,407271
1199.76,0.076969,497347,416572
1203.29,0.075660,504311,423680
1206.81,0.074739,511507,430638
1210.33,0.074797,519078,436954
1213.84,0.073912,527163,444665
1217.35,0.073059,534208,451493
1220.85,0.071815,540472,458098
1225.51,0.070804,549929,467200
1229.01,0.070206,556888,473764
1232.5,0.069963,562180,478534
1235.98,0.069584,567975,483888
1239.46,0.068003,574815,491502
1242.94,0.067279,582782,499146
1246.41,0.066953,591476,506972
1251.03,0.066314,604016,518483
1254.5,0.066687,612289,525133
1257.96,0.066596,619125,531107
1261.41,0.067522,624551,534621
1264.86,0.068029,629900,538571
1268.31,0.068703,634345,541530
1271.75,0.069432,638574,544226
1276.33,0.069799,642499,547109
1279.76,0.069416,645905,550494
1283.19,0.069369,648307,552601
1286.61,0.068859,650446,555076
1290.03,0.068630,652132,556808
1293.44,0.067933,653907,559221
1296.85,0.068081,655963,560787
1301.39,0.067879,657349,562234
1304.8,0.067658,657558,562699
1308.19,0.068043,658515,563018
1311.58,0.068368,658804,562844
1314.97,0.068475,659011,562882
1318.36,0.069362,658272,561104
1321.73,0.069511,658022,560698
1326.23,0.070964,657870,558697
1329.6,0.071832,656482,556405
1332.97,0.072768,654926,553891
1336.33,0.073412,653727,552058
1339.69,0.075659,652497,548176
1343.04,0.077549,649913,543634
1346.39,0.080100,647671,538585
1349.73,0.081930,645338,534389
1354.18,0.085669,641175,526390
1357.52,0.087690,638376,521659
1360.85,0.089742,635805,517109
1364.17,0.092057,633413,512425
1367.49,0.094675,631026,507426
1370.81,0.097099,628050,502221
1374.12,0.099446,625034,497116
1378.54,0.103296,620272,488974
1381.84,0.107214,616892,481942
1385.14,0.110883,613613,475348
1388.43,0.115387,611526,468844
1391.72,0.120721,610663,462467
1395.01,0.126077,610634,456777
1398.29,0.131656,611700,451734
1402.66,0.139871,614051,444973
1405.93,0.146145,616268,440174
1409.2,0.151952,617795,435404
1412.46,0.156895,618872,431227
1415.72,0.161980,619795,426843
1418.98,0.166222,620495,423171
1422.23,0.170499,621087,419424
1426.56,0.175178,621375,415122
1429.8,0.178408,621616,412206
1433.04,0.181128,622129,409970
1436.27,0.183196,621526,407627
1439.5,0.185122,621113,405554
1442.72,0.188814,620921,401997
1445.94,0.190650,620270,399881
1450.23,0.193909,618860,395989
1453.44,0.196902,617697,392531
1456.64,0.199903,616264,388923
1459.85,0.202334,614413,385591
1463.04,0.205774,612307,381237
1466.24,0.208921,610032,377078
1469.43,0.211998,607345,372767
1473.67,0.217342,603789,366052
1476.85,0.222417,601175,360233
1480.02,0.228547,597737,353153
1483.19,0.234391,594479,346534
1486.36,0.240500,591232,339827
1489.52,0.245030,587853,334379
1492.68,0.248343,583875,329592
1496.89,0.250552,578062,324655
1500.03,0.251159,574159,322013
1503.18,0.251499,570285,319590
1506.32,0.251100,565444,317168
1509.45,0.249209,560571,315807
1512.58,0.247462,555821,314393
1515.71,0.245373,550344,312796
1519.87,0.242501,543983,311232
1522.99,0.239611,538764,310304
1526.1,0.236824,533692,309362
1529.21,0.233862,527902,308100
1532.32,0.230347,521886,307064
1535.42,0.227891,515888,305256
1538.51,0.225037,509987,303754
1541.6,0.221232,503936,302791
1545.72,0.217074,494694,300098
1548.8,0.214094,488378,298306
1551.88,0.212088,481832,295670
1554.95,0.209033,474989,293529
1558.02,0.206971,467818,290473
1561.08,0.206035,460730,286689
1564.15,0.205297,454170,283088
1568.22,0.204040,444181,277664
1571.27,0.203924,436947,273215
1574.32,0.202568,429598,269460
1577.36,0.200593,422039,265925
1580.4,0.199557,414375,261720
1583.43,0.197394,406354,257935
1586.46,0.195745,398475,253896
1590.49,0.193980,388982,248857
1593.51,0.191848,380708,244762
1596.53,0.189440,372727,240963
1599.54,0.187361,365060,237139
1602.55,0.185341,357543,233339
1605.55,0.182549,349495,229558
1608.55,0.180579,341154,225098
1612.54,0.177882,330877,219677
1615.53,0.177160,322904,214740
1618.51,0.174134,315116,211026
1621.49,0.173989,307217,205805
1624.47,0.171672,299481,201696
1627.44,0.171070,292112,197006
1630.41,0.170071,284245,192142
1634.36,0.168634,274079,185884
1637.32,0.168950,266916,180894
1640.27,0.167275,259612,176624
1643.22,0.166029,251804,171804
1646.16,0.165227,244348,167025
1649.1,0.163960,236703,162272
1652.04,0.163277,228171,156669
1655.95,0.161693,215408,148446
1658.88,0.157266,204937,142677
1661.8,0.154397,193395,135534
1664.72,0.148622,179728,127642
1667.63,0.140730,163642,118349
1670.54,0.130896,146312,108239
1673.44,0.122284,128451,96929
1677.31,0.109325,105080,81695
1680.21,0.105586,88906,69718
1683.1,0.100984,75033,59466
1685.99,0.105045,63520,49873
1688.87,0.106549,53714,42028
1691.75,0.115389,45653,35001
1694.62,0.124669,39137,29371
1697.49,0.125969,33776,25272
1701.31,0.133831,28175,20703

File: Column 1_050555_20150331_120211.csv
Method:,Column 1,,
Host Date-Time:,31/3/15 @ 12:2:11,,
Header Version:,1,,
System Temp (C):,33.48,,
Detector Temp (C):,32.57,,
Humidity (%):,2.44,,
Lamp PD:,3820,,
Shift Vector Coefficients:,-10.5391,0.0761263,-0.000134223,,
Pixel to Wavelength Coefficients:,1775.68,-0.916766,-0.000235065,,
Serial Number:,5510004,,
Scan Config Name:,Column 1,,
Scan Config Type:,Slew,,
Section 1,,
Start wavelength (nm):,900,,
End wavelength (nm):,1700,,
Pattern Pixel Width (nm):,   7.03,,,,
Exposure (ms):,  0.635,,,,
Digital Resolution:,228,,
Num Repeats:,6,,
PGA Gain:,64,,
Total Measurement Time in sec:,  2.675,,
Wavelength (nm),Absorbance (AU),Reference Signal (unitless),Sample Signal (unitless)
901.51,0.033930,108485,100332
905.376,0.039021,121306,110882
909.237,0.041173,131909,119978
913.095,0.042708,143299,129878
916.948,0.043082,156982,142157
922.079,0.043866,179937,162650
925.923,0.044946,200504,180791
929.762,0.045968,222660,200297
933.597,0.046205,244426,219757
937.427,0.045229,263972,237864
941.254,0.046569,281845,253187
945.076,0.045400,297271,267764
950.165,0.046444,315605,283596
953.978,0.045293,328029,295542
957.786,0.045612,340470,306526
961.59,0.046170,352317,316784
965.389,0.046213,363056,326408
969.185,0.046847,373162,335004
972.976,0.046918,382632,343450
976.763,0.047495,391202,350676
981.806,0.048028,400190,358293
985.583,0.048942,406088,362809
989.355,0.049557,410162,365930
993.124,0.050149,412868,367843
996.888,0.050478,414263,368806
1000.65,0.051104,415476,369353
1004.4,0.052398,415479,368257
1009.41,0.054126,414358,365805
1013.15,0.054422,412923,364290
1016.89,0.054886,411526,362670
1020.63,0.054695,409066,360660
1024.36,0.054701,406777,358637
1028.09,0.055384,404427,356005
1031.82,0.054538,401911,354480
1036.78,0.053876,398410,351928
1040.49,0.053691,396204,350129
1044.2,0.053344,394236,348668
1047.91,0.053167,392042,346869
1051.61,0.052785,389823,345209
1055.31,0.051959,388234,344457
1059,0.051482,387599,344271
1063.92,0.050655,386688,344117
1067.61,0.049647,386598,344836
1071.29,0.049290,387377,345815
1074.96,0.048834,388536,347214
1078.63,0.047657,389855,349338
1082.3,0.046652,391215,351369
1085.96,0.046469,393215,353314
1090.84,0.046001,396270,356443
1094.49,0.045607,398760,359008
1098.14,0.045164,400987,361382
1101.79,0.044664,403477,364045
1105.43,0.045016,406116,366129
1109.06,0.044082,407701,368349
1112.7,0.043914,409859,370442
1117.53,0.044357,412494,372444
1121.15,0.045182,414909,373913
1124.77,0.045350,416559,375255
1128.38,0.047060,418532,375551
1131.99,0.048454,419956,375621
1135.6,0.049656,421946,376358
1139.2,0.052663,423881,375475
1143.99,0.054654,426786,376319
1147.58,0.055712,428617,377014
1151.17,0.057071,431169,378074
1154.75,0.058108,433579,379280
1158.33,0.059837,436264,380113
1161.91,0.061873,439132,380822
1165.48,0.064642,442389,381208
1169.04,0.067147,446101,382196
1173.79,0.071020,451929,383752
1177.34,0.073016,456026,385455
1180.9,0.075410,461306,387774
1184.44,0.077581,467657,391153
1187.99,0.078159,473969,395905
1191.52,0.077974,479856,400993
1195.06,0.077352,487372,407858
1199.76,0.077027,497347,416517
1203.29,0.075795,504311,423549
1206.81,0.074758,511507,430619
1210.33,0.073918,519078,437839
1213.84,0.073583,527163,445002
1217.35,0.072809,534208,451753
1220.85,0.071702,540472,458217
1225.51,0.070895,549929,467102
1229.01,0.070526,556888,473415
1232.5,0.069826,562180,478685
1235.98,0.069004,567975,484535
1239.46,0.068330,574815,491132
1242.94,0.067164,582782,499278
1246.41,0.066542,591476,507452
1251.03,0.066426,604016,518349
1254.5,0.066200,612289,525722
1257.96,0.066969,619125,530651
1261.41,0.067346,624551,534837
1264.86,0.068057,629900,538536
1268.31,0.068688,634345,541549
1271.75,0.069381,638574,544290
1276.33,0.069523,642499,547456
1279.76,0.069292,645905,550651
1283.19,0.068860,648307,553249
1286.61,0.068765,650446,555196
1290.03,0.068456,652132,557031
1293.44,0.067908,653907,559252
1296.85,0.067807,655963,561142
1301.39,0.067515,657349,562705
1304.8,0.067877,657558,562415
1308.19,0.067955,658515,563132
1311.58,0.067940,658804,563399
1314.97,0.068199,659011,563240
1318.36,0.069054,658272,561502
1321.73,0.069494,658022,560720
1326.23,0.070187,657870,559697
1329.6,0.071805,656482,556439
1332.97,0.072773,654926,553884
1336.33,0.073660,653727,551743
1339.69,0.075686,652497,548141
1343.04,0.077569,649913,543609
1346.39,0.079607,647671,539197
1349.73,0.081939,645338,534378
1354.18,0.085112,641175,527065
1357.52,0.087736,638376,521604
1360.85,0.089657,635805,517210
1364.17,0.092373,633413,512052
1367.49,0.094567,631026,507552
1370.81,0.097018,628050,502315
1374.12,0.099725,625034,496797
1378.54,0.103343,620272,488921
1381.84,0.106217,616892,483050
1385.14,0.110928,613613,475299
1388.43,0.115438,611526,468788
1391.72,0.120986,610663,462185
1395.01,0.125982,610634,456877
1398.29,0.131677,611700,451712
1402.66,0.139444,614051,445411
1405.93,0.145617,616268,440710
1409.2,0.151798,617795,435558
1412.46,0.156814,618872,431307
1415.72,0.161885,619795,426936
1418.98,0.166173,620495,423219
1422.23,0.170349,621087,419569
1426.56,0.174813,621375,415471
1429.8,0.178264,621616,412343
1433.04,0.180255,622129,410795
1436.27,0.182946,621526,407862
1439.5,0.185261,621113,405424
1442.72,0.188487,620921,402299
1445.94,0.190394,620270,400117
1450.23,0.194267,618860,395663
1453.44,0.196758,617697,392661
1456.64,0.199949,616264,388882
1459.85,0.202871,614413,385114
1463.04,0.205265,612307,381684
1466.24,0.208391,610032,377539
1469.43,0.211460,607345,373229
1473.67,0.216690,603789,366602
1476.85,0.222919,601175,359817
1480.02,0.228284,597737,353367
1483.19,0.234191,594479,346693
1486.36,0.239594,591232,340537
1489.52,0.244552,587853,334747
1492.68,0.248443,583875,329516
1496.89,0.250674,578062,324564
1500.03,0.251009,574159,322124
1503.18,0.251370,570285,319685
1506.32,0.250424,565444,317662
1509.45,0.248773,560571,316124
1512.58,0.247544,555821,314334
1515.71,0.245173,550344,312940
1519.87,0.242497,543983,311235
1522.99,0.239105,538764,310666
1526.1,0.236971,533692,309257
1529.21,0.233687,527902,308224
1532.32,0.230743,521886,306784
1535.42,0.227372,515888,305621
1538.51,0.224124,509987,304393
1541.6,0.221187,503936,302823
1545.72,0.217520,494694,299790
1548.8,0.214365,488378,298120
1551.88,0.210704,481832,296614
1554.95,0.209380,474989,293294
1558.02,0.207044,467818,290424
1561.08,0.206098,460730,286648
1564.15,0.205906,454170,282691
1568.22,0.203364,444181,278097
1571.27,0.202642,436947,274023
1574.32,0.202558,429598,269466
1577.36,0.200860,422039,265762
1580.4,0.198693,414375,262241
1583.43,0.197964,406354,257597
1586.46,0.194858,398475,254415
1590.49,0.193317,388982,249237
1593.51,0.191676,380708,244859
1596.53,0.188517,372727,241476
1599.54,0.187262,365060,237193
1602.55,0.183947,357543,234089
1605.55,0.182679,349495,229489
1608.55,0.180054,341154,225370
1612.54,0.178143,330877,219545
1615.53,0.175685,322904,215471
1618.51,0.174369,315116,210912
1621.49,0.173511,307217,206032
1624.47,0.172114,299481,201491
1627.44,0.171154,292112,196968
1630.41,0.169709,284245,192302
1634.36,0.167810,274079,186237
1637.32,0.167510,266916,181495
1640.27,0.167118,259612,176688
1643.22,0.165509,251804,172010
1646.16,0.164277,244348,167391
1649.1,0.164255,236703,162162
1652.04,0.162546,228171,156933
1655.95,0.162080,215408,148314
1658.88,0.158440,204937,142292
1661.8,0.154878,193395,135384
1664.72,0.147810,179728,127881
1667.63,0.140653,163642,118370
1670.54,0.129914,146312,108484
1673.44,0.121241,128451,97162
1677.31,0.110176,105080,81535
1680.21,0.102643,88906,70192
1683.1,0.101788,75033,59356
1685.99,0.107657,63520,49574
1688.87,0.110754,53714,41623
1691.75,0.114633,45653,35062
1694.62,0.118153,39137,29815
1697.49,0.126760,33776,25226
1701.31,0.134965,28175,20649