Folder: textile_sorting_NIRSCAN_/samples/wool/wool-000811 (part 86)

File: Column 1_050577_20150331_121248.csv
Method:,Column 1,,
Host Date-Time:,31/3/15 @ 12:12:48,,
Header Version:,1,,
System Temp (C):,33.83,,
Detector Temp (C):,34.61,,
Humidity (%):,2.25,,
Lamp PD:,3819,,
Shift Vector Coefficients:,-10.5391,0.0761263,-0.000134223,,
Pixel to Wavelength Coefficients:,1775.68,-0.916766,-0.000235065,,
Serial Number:,5510004,,
Scan Config Name:,Column 1,,
Scan Config Type:,Slew,,
Section 1,,
Start wavelength (nm):,900,,
End wavelength (nm):,1700,,
Pattern Pixel Width (nm):,   7.03,,,,
Exposure (ms):,  0.635,,,,
Digital Resolution:,228,,
Num Repeats:,6,,
PGA Gain:,64,,
Total Measurement Time in sec:,  2.679,,
Wavelength (nm),Absorbance (AU),Reference Signal (unitless),Sample Signal (unitless)
901.51,0.071303,108485,92059
905.376,0.076809,121306,101642
909.237,0.082231,131909,109155
913.095,0.080452,143299,119067
916.948,0.080892,156982,130304
922.079,0.082897,179937,148670
925.923,0.084505,200504,165051
929.762,0.084693,222660,183210
933.597,0.084604,244426,201161
937.427,0.084252,263972,217423
941.254,0.083860,281845,232354
945.076,0.082034,297271,246104
950.165,0.081564,315605,261565
953.978,0.081147,328029,272123
957.786,0.080919,340470,282592
961.59,0.080851,352317,292471
965.389,0.081234,363056,301120
969.185,0.081787,373162,309108
972.976,0.081764,382632,316969
976.763,0.082474,391202,323539
981.806,0.082568,400190,330901
985.583,0.083583,406088,334994
989.355,0.084507,410162,337636
993.124,0.083906,412868,340334
996.888,0.084643,414263,340905
1000.65,0.085436,415476,341279
1004.4,0.086776,415479,340230
1009.41,0.087752,414358,338551
1013.15,0.088295,412923,336957
1016.89,0.088542,411526,335626
1020.63,0.088275,409066,333825
1024.36,0.088525,406777,331766
1028.09,0.088300,404427,330020
1031.82,0.087993,401911,328199
1036.78,0.087619,398410,325620
1040.49,0.088273,396204,323330
1044.2,0.086883,394236,322755
1047.91,0.087215,392042,320714
1051.61,0.087375,389823,318781
1055.31,0.087083,388234,317695
1059,0.086564,387599,317555
1063.92,0.085711,386688,317431
1067.61,0.084695,386598,318101
1071.29,0.084693,387377,318743
1074.96,0.083587,388536,320512
1078.63,0.083457,389855,321696
1082.3,0.082674,391215,323401
1085.96,0.081596,393215,325862
1090.84,0.081458,396270,328498
1094.49,0.080379,398760,331385
1098.14,0.079955,400987,333561
1101.79,0.079796,403477,335755
1105.43,0.079023,406116,338553
1109.06,0.078220,407701,340504
1112.7,0.078009,409859,342472
1117.53,0.077874,412494,344781
1121.15,0.078537,414909,346271
1124.77,0.078892,416559,347364
1128.38,0.079773,418532,348302
1131.99,0.080706,419956,348737
1135.6,0.082074,421946,349287
1139.2,0.083753,423881,349535
1143.99,0.085564,426786,350466
1147.58,0.086364,428617,351322
1151.17,0.087756,431169,352283
1154.75,0.088450,433579,353686
1158.33,0.089749,436264,354814
1161.91,0.092050,439132,355259
1165.48,0.094265,442389,356073
1169.04,0.096583,446101,357150
1173.79,0.099411,451929,359467
1177.34,0.101589,456026,360911
1180.9,0.103338,461306,363623
1184.44,0.105402,467657,366881
1187.99,0.106337,473969,371033
1191.52,0.106535,479856,375471
1195.06,0.106405,487372,381466
1199.76,0.105706,497347,389900
1203.29,0.104177,504311,396754
1206.81,0.103975,511507,402603
1210.33,0.103588,519078,408926
1213.84,0.103182,527163,415684
1217.35,0.102852,534208,421559
1220.85,0.102060,540472,427281
1225.51,0.101359,549929,435459
1229.01,0.101122,556888,441211
1232.5,0.100238,562180,446311
1235.98,0.099934,567975,451227
1239.46,0.098835,574815,457818
1242.94,0.097470,582782,465625
1246.41,0.096902,591476,473189
1251.03,0.096954,604016,483164
1254.5,0.097390,612289,489290
1257.96,0.097241,619125,494923
1261.41,0.098279,624551,498068
1264.86,0.098436,629900,502153
1268.31,0.099093,634345,504931
1271.75,0.099285,638574,508073
1276.33,0.099998,642499,510358
1279.76,0.099804,645905,513292
1283.19,0.099279,648307,515824
1286.61,0.098934,650446,517937
1290.03,0.098849,652132,519382
1293.44,0.098236,653907,521531
1296.85,0.098148,655963,523277
1301.39,0.098004,657349,524556
1304.8,0.097849,657558,524910
1308.19,0.098363,658515,525053
1311.58,0.098750,658804,524815
1314.97,0.098810,659011,524907
1318.36,0.099237,658272,523803
1321.73,0.100138,658022,522519
1326.23,0.100816,657870,521584
1329.6,0.101427,656482,519751
1332.97,0.102572,654926,517155
1336.33,0.104125,653727,514365
1339.69,0.105902,652497,511301
1343.04,0.107033,649913,507952
1346.39,0.109199,647671,503681
1349.73,0.111696,645338,498989
1354.18,0.114480,641175,492602
1357.52,0.116307,638376,488393
1360.85,0.118486,635805,483992
1364.17,0.120560,633413,479874
1367.49,0.122309,631026,476144
1370.81,0.124924,628050,471053
1374.12,0.126640,625034,466943
1378.54,0.130427,620272,459362
1381.84,0.134053,616892,453060
1385.14,0.138050,613613,446524
1388.43,0.142162,611526,440812
1391.72,0.147517,610663,434795
1395.01,0.152351,610634,429962
1398.29,0.157870,611700,425274
1402.66,0.165549,614051,419426
1405.93,0.171585,616268,415130
1409.2,0.177569,617795,410464
1412.46,0.182975,618872,406093
1415.72,0.187580,619795,402409
1418.98,0.191842,620495,398930
1422.23,0.195132,621087,396297
1426.56,0.200429,621375,391674
1429.8,0.203211,621616,389324
1433.04,0.205618,622129,387492
1436.27,0.208185,621526,384835
1439.5,0.210356,621113,382661
1442.72,0.213068,620921,380162
1445.94,0.215169,620270,377930
1450.23,0.218139,618860,374501
1453.44,0.220763,617697,371546
1456.64,0.223345,616264,368487
1459.85,0.225291,614413,365737
1463.04,0.228340,612307,361934
1466.24,0.230897,610032,358472
1469.43,0.234021,607345,354335
1473.67,0.238664,603789,348515
1476.85,0.243327,601175,343300
1480.02,0.247998,597737,337685
1483.19,0.254218,594479,331069
1486.36,0.258576,591232,325973
1489.52,0.261919,587853,321625
1492.68,0.264857,583875,317295
1496.89,0.266848,578062,312699
1500.03,0.267287,574159,310274
1503.18,0.267090,570285,308320
1506.32,0.266150,565444,306365
1509.45,0.265414,560571,304240
1512.58,0.263964,555821,302671
1515.71,0.261271,550344,301553
1519.87,0.258746,543983,299805
1522.99,0.255963,538764,298838
1526.1,0.253994,533692,297370
1529.21,0.251579,527902,295784
1532.32,0.248284,521886,294640
1535.42,0.245285,515888,293272
1538.51,0.242618,509987,291703
1541.6,0.239735,503936,290162
1545.72,0.236172,494694,287187
1548.8,0.232914,488378,285655
1551.88,0.230721,481832,283253
1554.95,0.228723,474989,280518
1558.02,0.227536,467818,277039
1561.08,0.226186,460730,273691
1564.15,0.223828,454170,271263
1568.22,0.223422,444181,265545
1571.27,0.223156,436947,261380
1574.32,0.221951,429598,257698
1577.36,0.221164,422039,253623
1580.4,0.218799,414375,250377
1583.43,0.217185,406354,246445
1586.46,0.216473,398475,242063
1590.49,0.213747,388982,237784
1593.51,0.212536,380708,233376
1596.53,0.210281,372727,229673
1599.54,0.207634,365060,226324
1602.55,0.206205,357543,222394
1605.55,0.204377,349495,218305
1608.55,0.202277,341154,214128
1612.54,0.199676,330877,208925
1615.53,0.197523,322904,204904
1618.51,0.197087,315116,200163
1621.49,0.196030,307217,195621
1624.47,0.195074,299481,191115
1627.44,0.194514,292112,186653
1630.41,0.193216,284245,182170
1634.36,0.191429,274079,176379
1637.32,0.190417,266916,172170
1640.27,0.191055,259612,167213
1643.22,0.189102,251804,162915
1646.16,0.188580,244348,158281
1649.1,0.187657,236703,153655
1652.04,0.185958,228171,148697
1655.95,0.182558,215408,141483
1658.88,0.178455,204937,135883
1661.8,0.174259,193395,129475
1664.72,0.166746,179728,122425
1667.63,0.153737,163642,114857
1670.54,0.140774,146312,105805
1673.44,0.124107,128451,96523
1677.31,0.104614,105080,82586
1680.21,0.094625,88906,71500
1683.1,0.089922,75033,61000
1685.99,0.089160,63520,51731
1688.87,0.091109,53714,43549
1691.75,0.099359,45653,36317
1694.62,0.097946,39137,31235
1697.49,0.111535,33776,26126
1701.31,0.121872,28175,21281

File: Column 1_050577_20150331_121254.csv
Method:,Column 1,,
Host Date-Time:,31/3/15 @ 12:12:54,,
Header Version:,1,,
System Temp (C):,33.83,,
Detector Temp (C):,34.64,,
Humidity (%):,2.15,,
Lamp PD:,3818,,
Shift Vector Coefficients:,-10.5391,0.0761263,-0.000134223,,
Pixel to Wavelength Coefficients:,1775.68,-0.916766,-0.000235065,,
Serial Number:,5510004,,
Scan Config Name:,Column 1,,
Scan Config Type:,Slew,,
Section 1,,
Start wavelength (nm):,900,,
End wavelength (nm):,1700,,
Pattern Pixel Width (nm):,   7.03,,,,
Exposure (ms):,  0.635,,,,
Digital Resolution:,228,,
Num Repeats:,6,,
PGA Gain:,64,,
Total Measurement Time in sec:,  2.741,,
Wavelength (nm),Absorbance (AU),Reference Signal (unitless),Sample Signal (unitless)
901.51,0.071761,108485,91962
905.376,0.076689,121306,101670
909.237,0.078815,131909,110017
913.095,0.080331,143299,119100
916.948,0.081442,156982,130139
922.079,0.083520,179937,148457
925.923,0.083215,200504,165542
929.762,0.085027,222660,183069
933.597,0.084612,244426,201157
937.427,0.083219,263972,217941
941.254,0.083076,281845,232774
945.076,0.081390,297271,246469
950.165,0.081604,315605,261541
953.978,0.080814,328029,272332
957.786,0.081506,340470,282210
961.59,0.081247,352317,292204
965.389,0.081403,363056,301003
969.185,0.081519,373162,309299
972.976,0.081552,382632,317124
976.763,0.082724,391202,323353
981.806,0.082845,400190,330690
985.583,0.083201,406088,335289
989.355,0.083561,410162,338372
993.124,0.083709,412868,340488
996.888,0.084429,414263,341073
1000.65,0.085747,415476,341035
1004.4,0.086214,415479,340671
1009.41,0.087720,414358,338576
1013.15,0.087983,412923,337199
1016.89,0.089194,411526,335122
1020.63,0.088055,409066,333994
1024.36,0.088823,406777,331538
1028.09,0.088808,404427,329634
1031.82,0.087957,401911,328226
1036.78,0.087714,398410,325549
1040.49,0.087314,396204,324045
1044.2,0.088081,394236,321866
1047.91,0.087312,392042,320642
1051.61,0.087111,389823,318975
1055.31,0.086428,388234,318175
1059,0.086411,387599,317667
1063.92,0.085873,386688,317313
1067.61,0.084731,386598,318074
1071.29,0.083883,387377,319338
1074.96,0.083430,388536,320628
1078.63,0.083597,389855,321593
1082.3,0.082432,391215,323581
1085.96,0.082214,393215,325399
1090.84,0.081280,396270,328633
1094.49,0.080564,398760,331244
1098.14,0.079991,400987,333533
1101.79,0.080270,403477,335389
1105.43,0.079226,406116,338395
1109.06,0.078596,407701,340209
1112.7,0.078513,409859,342075
1117.53,0.077862,412494,344791
1121.15,0.078143,414909,346585
1124.77,0.078648,416559,347559
1128.38,0.079707,418532,348355
1131.99,0.080085,419956,349236
1135.6,0.081734,421946,349561
1139.2,0.083156,423881,350016
1143.99,0.085863,426786,350225
1147.58,0.086285,428617,351386
1151.17,0.087036,431169,352867
1154.75,0.088800,433579,353401
1158.33,0.090011,436264,354600
1161.91,0.092583,439132,354823
1165.48,0.094190,442389,356135
1169.04,0.096217,446101,357451
1173.79,0.099509,451929,359386
1177.34,0.101735,456026,360790
1180.9,0.103242,461306,363703
1184.44,0.105157,467657,367088
1187.99,0.106594,473969,370814
1191.52,0.106007,479856,375927
1195.06,0.106031,487372,381794
1199.76,0.105481,497347,390102
1203.29,0.104965,504311,396035
1206.81,0.104831,511507,401810
1210.33,0.103261,519078,409234
1213.84,0.103416,527163,415460
1217.35,0.102837,534208,421574
1220.85,0.102924,540472,426431
1225.51,0.101038,549929,435781
1229.01,0.101028,556888,441306
1232.5,0.099753,562180,446810
1235.98,0.099484,567975,451695
1239.46,0.098756,574815,457902
1242.94,0.097452,582782,465644
1246.41,0.096836,591476,473261
1251.03,0.096736,604016,483406
1254.5,0.096789,612289,489968
1257.96,0.097037,619125,495155
1261.41,0.097657,624551,498782
1264.86,0.098476,629900,502106
1268.31,0.098603,634345,505502
1271.75,0.099683,638574,507608
1276.33,0.099811,642499,510577
1279.76,0.099462,645905,513697
1283.19,0.099460,648307,515609
1286.61,0.099171,650446,517655
1290.03,0.098556,652132,519732
1293.44,0.098432,653907,521295
1296.85,0.098320,655963,523069
1301.39,0.097951,657349,524620
1304.8,0.097774,657558,525001
1308.19,0.098104,658515,525366
1311.58,0.098294,658804,525366
1314.97,0.099025,659011,524647
1318.36,0.099540,658272,523438
1321.73,0.099428,658022,523374
1326.23,0.100718,657870,521701
1329.6,0.101576,656482,519573
1332.97,0.102065,654926,517758
1336.33,0.103784,653727,514769
1339.69,0.105598,652497,511659
1343.04,0.107428,649913,507490
1346.39,0.109048,647671,503856
1349.73,0.111228,645338,499527
1354.18,0.114331,641175,492772
1357.52,0.116364,638376,488329
1360.85,0.118661,635805,483797
1364.17,0.120558,633413,479876
1367.49,0.122428,631026,476014
1370.81,0.124738,628050,471255
1374.12,0.127035,625034,466518
1378.54,0.130680,620272,459095
1381.84,0.134007,616892,453108
1385.14,0.137649,613613,446936
1388.43,0.142148,611526,440826
1391.72,0.146868,610663,435445
1395.01,0.151939,610634,430370
1398.29,0.157616,611700,425522
1402.66,0.165415,614051,419556
1405.93,0.171385,616268,415322
1409.2,0.177062,617795,410944
1412.46,0.183069,618872,406005
1415.72,0.187498,619795,402485
1418.98,0.191707,620495,399054
1422.23,0.196004,621087,395502
1426.56,0.199747,621375,392290
1429.8,0.202849,621616,389649
1433.04,0.205590,622129,387517
1436.27,0.207845,621526,385136
1439.5,0.209552,621113,383370
1442.72,0.212146,620921,380970
1445.94,0.214656,620270,378377
1450.23,0.218018,618860,374606
1453.44,0.220312,617697,371932
1456.64,0.223095,616264,368699
1459.85,0.225147,614413,365859
1463.04,0.227946,612307,362262
1466.24,0.230141,610032,359097
1469.43,0.233667,607345,354624
1473.67,0.238760,603789,348438
1476.85,0.243538,601175,343133
1480.02,0.247759,597737,337871
1483.19,0.254066,594479,331185
1486.36,0.258137,591232,326303
1489.52,0.262051,587853,321527
1492.68,0.265570,583875,316774
1496.89,0.266530,578062,312928
1500.03,0.266882,574159,310563
1503.18,0.266517,570285,308727
1506.32,0.266404,565444,306186
1509.45,0.264694,560571,304745
1512.58,0.263406,555821,303060
1515.71,0.260883,550344,301822
1519.87,0.258822,543983,299753
1522.99,0.255163,538764,299389
1526.1,0.253674,533692,297589
1529.21,0.250990,527902,296185
1532.32,0.248927,521886,294204
1535.42,0.245808,515888,292919
1538.51,0.242684,509987,291659
1541.6,0.240563,503936,289609
1545.72,0.235415,494694,287688
1548.8,0.232869,488378,285685
1551.88,0.230684,481832,283277
1554.95,0.228717,474989,280522
1558.02,0.226351,467818,277796
1561.08,0.224869,460730,274522
1564.15,0.224551,454170,270812
1568.22,0.223471,444181,265515
1571.27,0.223057,436947,261440
1574.32,0.222159,429598,257575
1577.36,0.220397,422039,254071
1580.4,0.220292,414375,249518
1583.43,0.218381,406354,245767
1586.46,0.215881,398475,242393
1590.49,0.214740,388982,237241
1593.51,0.212283,380708,233512
1596.53,0.210152,372727,229741
1599.54,0.207826,365060,226224
1602.55,0.206188,357543,222403
1605.55,0.203608,349495,218692
1608.55,0.201977,341154,214276
1612.54,0.199599,330877,208962
1615.53,0.197837,322904,204756
1618.51,0.195711,315116,200798
1621.49,0.196219,307217,195536
1624.47,0.194893,299481,191195
1627.44,0.193571,292112,187059
1630.41,0.192682,284245,182394
1634.36,0.190482,274079,176764
1637.32,0.189432,266916,172561
1640.27,0.190372,259612,167476
1643.22,0.188630,251804,163092
1646.16,0.187396,244348,158713
1649.1,0.187160,236703,153831
1652.04,0.184757,228171,149109
1655.95,0.181331,215408,141883
1658.88,0.178030,204937,136016
1661.8,0.172669,193395,129950
1664.72,0.167083,179728,122330
1667.63,0.154169,163642,114743
1670.54,0.140450,146312,105884
1673.44,0.124629,128451,96407
1677.31,0.105994,105080,82324
1680.21,0.094164,88906,71576
1683.1,0.087877,75033,61288
1685.99,0.094141,63520,51141
1688.87,0.093549,53714,43305
1691.75,0.097379,45653,36483
1694.62,0.102137,39137,30935
1697.49,0.104560,33776,26549
1701.31,0.115913,28175,21575

File: Column 1_050578_20150331_121300.csv
Method:,Column 1,,
Host Date-Time:,31/3/15 @ 12:13:0,,
Header Version:,1,,
System Temp (C):,33.83,,
Detector Temp (C):,34.65,,
Humidity (%):,2.15,,
Lamp PD:,3818,,
Shift Vector Coefficients:,-10.5391,0.0761263,-0.000134223,,
Pixel to Wavelength Coefficients:,1775.68,-0.916766,-0.000235065,,
Serial Number:,5510004,,
Scan Config Name:,Column 1,,
Scan Config Type:,Slew,,
Section 1,,
Start wavelength (nm):,900,,
End wavelength (nm):,1700,,
Pattern Pixel Width (nm):,   7.03,,,,
Exposure (ms):,  0.635,,,,
Digital Resolution:,228,,
Num Repeats:,6,,
PGA Gain:,64,,
Total Measurement Time in sec:,  2.730,,
Wavelength (nm),Absorbance (AU),Reference Signal (unitless),Sample Signal (unitless)
901.51,0.072920,108485,91717
905.376,0.077600,121306,101457
909.237,0.079229,131909,109912
913.095,0.080382,143299,119086
916.948,0.082535,156982,129812
922.079,0.084653,179937,148070
925.923,0.084100,200504,165205
929.762,0.084807,222660,183162
933.597,0.084824,244426,201059
937.427,0.084222,263972,217438
941.254,0.083419,281845,232590
945.076,0.082277,297271,245966
950.165,0.081916,315605,261353
953.978,0.080761,328029,272365
957.786,0.080933,340470,282583
961.59,0.081313,352317,292160
965.389,0.082220,363056,300437
969.185,0.081669,373162,309192
972.976,0.081944,382632,316838
976.763,0.082305,391202,323665
981.806,0.082975,400190,330591
985.583,0.083713,406088,334894
989.355,0.084118,410162,337938
993.124,0.084065,412868,340209
996.888,0.084566,414263,340965
1000.65,0.085965,415476,340864
1004.4,0.086751,415479,340250
1009.41,0.087799,414358,338514
1013.15,0.088733,412923,336617
1016.89,0.088557,411526,335614
1020.63,0.088883,409066,333358
1024.36,0.088619,406777,331694
1028.09,0.088512,404427,329859
1031.82,0.088092,401911,328124
1036.78,0.087950,398410,325372
1040.49,0.088089,396204,323467
1044.2,0.088093,394236,321857
1047.91,0.087557,392042,320461
1051.61,0.087436,389823,318736
1055.31,0.087231,388234,317587
1059,0.086402,387599,317673
1063.92,0.085558,386688,317543
1067.61,0.085588,386598,317447
1071.29,0.084960,387377,318547
1074.96,0.083949,388536,320245
1078.63,0.083740,389855,321487
1082.3,0.082980,391215,323173
1085.96,0.081843,393215,325677
1090.84,0.080956,396270,328878
1094.49,0.081199,398760,330760
1098.14,0.079600,400987,333834
1101.79,0.079614,403477,335896
1105.43,0.079425,406116,338240
1109.06,0.078651,407701,340166
1112.7,0.078809,409859,341842
1117.53,0.077653,412494,344957
1121.15,0.078594,414909,346225
1124.77,0.079224,416559,347098
1128.38,0.079050,418532,348882
1131.99,0.080822,419956,348644
1135.6,0.082327,421946,349084
1139.2,0.083538,423881,349708
1143.99,0.085854,426786,350232
1147.58,0.086994,428617,350813
1151.17,0.087535,431169,352462
1154.75,0.088684,433579,353496
1158.33,0.090126,436264,354506
1161.91,0.091949,439132,355342
1165.48,0.094123,442389,356190
1169.04,0.096004,446101,357626
1173.79,0.099481,451929,359409
1177.34,0.101688,456026,360829
1180.9,0.103925,461306,363132
1184.44,0.105673,467657,366652
1187.99,0.106175,473969,371172
1191.52,0.106232,479856,375733
1195.06,0.106170,487372,381672
1199.76,0.105415,497347,390162
1203.29,0.105055,504311,395953
1206.81,0.104602,511507,402022
1210.33,0.104075,519078,408468
1213.84,0.103209,527163,415658
1217.35,0.102672,534208,421734
1220.85,0.102021,540472,427319
1225.51,0.101214,549929,435605
1229.01,0.100745,556888,441594
1232.5,0.100117,562180,446435
1235.98,0.099799,567975,451367
1239.46,0.098292,574815,458391
1242.94,0.097760,582782,465314
1246.41,0.097415,591476,472631
1251.03,0.097076,604016,483028
1254.5,0.097220,612289,489482
1257.96,0.097556,619125,494564
1261.41,0.098166,624551,498198
1264.86,0.098845,629900,501680
1268.31,0.099022,634345,505014
1271.75,0.099687,638574,507603
1276.33,0.099939,642499,510427
1279.76,0.099814,645905,513280
1283.19,0.099170,648307,515954
1286.61,0.099153,650446,517676
1290.03,0.098854,652132,519376
1293.44,0.098098,653907,521696
1296.85,0.098235,655963,523172
1301.39,0.097829,657349,524767
1304.8,0.098170,657558,524523
1308.19,0.098344,658515,525076
1311.58,0.098519,658804,525094
1314.97,0.099117,659011,524537
1318.36,0.099568,658272,523404
1321.73,0.099578,658022,523193
1326.23,0.100902,657870,521480
1329.6,0.101535,656482,519622
1332.97,0.102710,654926,516990
1336.33,0.103996,653727,514518
1339.69,0.105531,652497,511738
1343.04,0.107524,649913,507378
1346.39,0.109194,647671,503687
1349.73,0.111313,645338,499429
1354.18,0.114658,641175,492401
1357.52,0.116488,638376,488190
1360.85,0.118113,635805,484408
1364.17,0.120060,633413,480426
1367.49,0.122925,631026,475469
1370.81,0.124486,628050,471529
1374.12,0.127413,625034,466112
1378.54,0.130760,620272,459010
1381.84,0.133834,616892,453289
1385.14,0.137297,613613,447299
1388.43,0.141971,611526,441005
1391.72,0.147543,610663,434769
1395.01,0.151814,610634,430494
1398.29,0.157747,611700,425394
1402.66,0.165227,614051,419737
1405.93,0.171550,616268,415164
1409.2,0.177093,617795,410914
1412.46,0.182563,618872,406479
1415.72,0.187191,619795,402770
1418.98,0.191849,620495,398923
1422.23,0.195860,621087,395633
1426.56,0.199355,621375,392644
1429.8,0.202823,621616,389672
1433.04,0.205185,622129,387878
1436.27,0.208012,621526,384988
1439.5,0.210186,621113,382811
1442.72,0.212113,620921,380999
1445.94,0.214562,620270,378459
1450.23,0.217903,618860,374705
1453.44,0.220404,617697,371853
1456.64,0.222792,616264,368956
1459.85,0.225482,614413,365577
1463.04,0.227697,612307,362470
1466.24,0.230579,610032,358735
1469.43,0.233769,607345,354541
1473.67,0.238837,603789,348376
1476.85,0.243681,601175,343020
1480.02,0.248135,597737,337579
1483.19,0.253441,594479,331662
1486.36,0.258616,591232,325943
1489.52,0.262253,587853,321378
1492.68,0.265043,583875,317159
1496.89,0.266354,578062,313055
1500.03,0.267362,574159,310220
1503.18,0.267397,570285,308102
1506.32,0.266945,565444,305805
1509.45,0.264918,560571,304588
1512.58,0.263563,555821,302951
1515.71,0.261117,550344,301660
1519.87,0.258822,543983,299753
1522.99,0.255825,538764,298933
1526.1,0.253810,533692,297496
1529.21,0.251510,527902,295831
1532.32,0.248592,521886,294431
1535.42,0.244882,515888,293544
1538.51,0.242514,509987,291773
1541.6,0.240058,503936,289946
1545.72,0.235986,494694,287310
1548.8,0.232779,488378,285744
1551.88,0.230828,481832,283183
1554.95,0.228780,474989,280481
1558.02,0.226745,467818,277544
1561.08,0.225625,460730,274045
1564.15,0.225101,454170,270469
1568.22,0.223159,444181,265706
1571.27,0.222623,436947,261701
1574.32,0.221897,429598,257730
1577.36,0.220587,422039,253960
1580.4,0.218775,414375,250391
1583.43,0.217639,406354,246187
1586.46,0.215734,398475,242475
1590.49,0.214304,388982,237479
1593.51,0.212506,380708,233392
1596.53,0.210707,372727,229448
1599.54,0.208217,365060,226020
1602.55,0.206490,357543,222248
1605.55,0.204405,349495,218291
1608.55,0.202734,341154,213903
1612.54,0.200190,330877,208678
1615.53,0.196932,322904,205183
1618.51,0.197362,315116,200036
1621.49,0.196219,307217,195536
1624.47,0.195315,299481,191009
1627.44,0.192743,292112,187416
1630.41,0.193006,284245,182258
1634.36,0.191833,274079,176215
1637.32,0.190185,266916,172262
1640.27,0.189675,259612,167745
1643.22,0.189123,251804,162907
1646.16,0.187276,244348,158757
1649.1,0.187762,236703,153618
1652.04,0.186367,228171,148557
1655.95,0.182039,215408,141652
1658.88,0.177919,204937,136051
1661.8,0.175748,193395,129032
1664.72,0.166423,179728,122516
1667.63,0.153091,163642,115028
1670.54,0.139025,146312,106232
1673.44,0.126819,128451,95922
1677.31,0.104761,105080,82558
1680.21,0.096909,88906,71125
1683.1,0.092021,75033,60706
1685.99,0.090716,63520,51546
1688.87,0.095550,53714,43106
1691.75,0.096356,45653,36569
1694.62,0.110658,39137,30334
1697.49,0.115610,33776,25882
1701.31,0.120364,28175,21355