Folder: textile_sorting_NIRSCAN_/samples/wool/wool-000811 (part 121)

File: Column 1_050598_20150331_122250.csv
Method:,Column 1,,
Host Date-Time:,31/3/15 @ 12:22:50,,
Header Version:,1,,
System Temp (C):,34,,
Detector Temp (C):,34.69,,
Humidity (%):,1.76,,
Lamp PD:,3818,,
Shift Vector Coefficients:,-10.5391,0.0761263,-0.000134223,,
Pixel to Wavelength Coefficients:,1775.68,-0.916766,-0.000235065,,
Serial Number:,5510004,,
Scan Config Name:,Column 1,,
Scan Config Type:,Slew,,
Section 1,,
Start wavelength (nm):,900,,
End wavelength (nm):,1700,,
Pattern Pixel Width (nm):,   7.03,,,,
Exposure (ms):,  0.635,,,,
Digital Resolution:,228,,
Num Repeats:,6,,
PGA Gain:,64,,
Total Measurement Time in sec:,  2.670,,
Wavelength (nm),Absorbance (AU),Reference Signal (unitless),Sample Signal (unitless)
901.51,0.069458,108485,92451
905.376,0.077870,121306,101394
909.237,0.077963,131909,110233
913.095,0.078211,143299,119683
916.948,0.079963,156982,130583
922.079,0.081317,179937,149212
925.923,0.082494,200504,165817
929.762,0.082678,222660,184062
933.597,0.083033,244426,201890
937.427,0.081548,263972,218781
941.254,0.081679,281845,233524
945.076,0.080037,297271,247238
950.165,0.079624,315605,262736
953.978,0.078070,328029,274058
957.786,0.078984,340470,283854
961.59,0.078551,352317,294024
965.389,0.078511,363056,303014
969.185,0.078561,373162,311413
972.976,0.078865,382632,319092
976.763,0.079976,391202,325406
981.806,0.080629,400190,332382
985.583,0.080636,406088,337275
989.355,0.081637,410162,339874
993.124,0.081491,412868,342232
996.888,0.081449,414263,343421
1000.65,0.082402,415476,343672
1004.4,0.083564,415479,342756
1009.41,0.085131,414358,340600
1013.15,0.085215,412923,339355
1016.89,0.085756,411526,337786
1020.63,0.086144,409066,335467
1024.36,0.086384,406777,333405
1028.09,0.085690,404427,332009
1031.82,0.085749,401911,329899
1036.78,0.085038,398410,327561
1040.49,0.085587,396204,325336
1044.2,0.084180,394236,324770
1047.91,0.084252,392042,322909
1051.61,0.084418,389823,320959
1055.31,0.084211,388234,319803
1059,0.083883,387599,319521
1063.92,0.082792,386688,319572
1067.61,0.082006,386598,320076
1071.29,0.081544,387377,321063
1074.96,0.081125,388536,322334
1078.63,0.080282,389855,324057
1082.3,0.079210,391215,325991
1085.96,0.078298,393215,328346
1090.84,0.077688,396270,331362
1094.49,0.077206,398760,333815
1098.14,0.077044,400987,335804
1101.79,0.076485,403477,338325
1105.43,0.076450,406116,340565
1109.06,0.074946,407701,343080
1112.7,0.075405,409859,344532
1117.53,0.074667,412494,347337
1121.15,0.075393,414909,348787
1124.77,0.075563,416559,350037
1128.38,0.076070,418532,351284
1131.99,0.077542,419956,351287
1135.6,0.078736,421946,351982
1139.2,0.080219,423881,352391
1143.99,0.082317,426786,353096
1147.58,0.083023,428617,354035
1151.17,0.083683,431169,355602
1154.75,0.084378,433579,357018
1158.33,0.086516,436264,357465
1161.91,0.087915,439132,358658
1165.48,0.089724,442389,359816
1169.04,0.092054,446101,360894
1173.79,0.095959,451929,362336
1177.34,0.097335,456026,364464
1180.9,0.099641,461306,366731
1184.44,0.101478,467657,370211
1187.99,0.102441,473969,374377
1191.52,0.102688,479856,378811
1195.06,0.102067,487372,385295
1199.76,0.101813,497347,393411
1203.29,0.100749,504311,399898
1206.81,0.100836,511507,405523
1210.33,0.099737,519078,412568
1213.84,0.099332,527163,419385
1217.35,0.098858,534208,425454
1220.85,0.098447,540472,430850
1225.51,0.097397,549929,439450
1229.01,0.096864,556888,445558
1232.5,0.096155,562180,450527
1235.98,0.095530,567975,455826
1239.46,0.094710,574815,462187
1242.94,0.093792,582782,469585
1246.41,0.093111,591476,477338
1251.03,0.092506,604016,488138
1254.5,0.093023,612289,494235
1257.96,0.093356,619125,499370
1261.41,0.094220,624551,502745
1264.86,0.094829,629900,506341
1268.31,0.095127,634345,509564
1271.75,0.095851,638574,512107
1276.33,0.096048,642499,515020
1279.76,0.096106,645905,517681
1283.19,0.095613,648307,520197
1286.61,0.095055,650446,522584
1290.03,0.094518,652132,524587
1293.44,0.094023,653907,526615
1296.85,0.093977,655963,528326
1301.39,0.093544,657349,529971
1304.8,0.093444,657558,530262
1308.19,0.094044,658515,530300
1311.58,0.093845,658804,530776
1314.97,0.094459,659011,530192
1318.36,0.094952,658272,528997
1321.73,0.095526,658022,528098
1326.23,0.095925,657870,527491
1329.6,0.096916,656482,525178
1332.97,0.097955,654926,522682
1336.33,0.098839,653727,520664
1339.69,0.100175,652497,518088
1343.04,0.101605,649913,514340
1346.39,0.103385,647671,510469
1349.73,0.105673,645338,505958
1354.18,0.108672,641175,499234
1357.52,0.110831,638376,494590
1360.85,0.112666,635805,490521
1364.17,0.114678,633413,486417
1367.49,0.117082,631026,481909
1370.81,0.119088,628050,477426
1374.12,0.121403,625034,472607
1378.54,0.124017,620272,466192
1381.84,0.126703,616892,460793
1385.14,0.130335,613613,454527
1388.43,0.134374,611526,448788
1391.72,0.138350,610663,444070
1395.01,0.142730,610634,439593
1398.29,0.147742,611700,435308
1402.66,0.153506,614051,431220
1405.93,0.158964,616268,427372
1409.2,0.163418,617795,424059
1412.46,0.167983,618872,420357
1415.72,0.172262,619795,416856
1418.98,0.176170,620495,413588
1422.23,0.179193,621087,411111
1426.56,0.183308,621375,407423
1429.8,0.186266,621616,404815
1433.04,0.188607,622129,402971
1436.27,0.190833,621526,400522
1439.5,0.192755,621113,398488
1442.72,0.194947,620921,396360
1445.94,0.197420,620270,393696
1450.23,0.200611,618860,389925
1453.44,0.204000,617697,386167
1456.64,0.206740,616264,382848
1459.85,0.208857,614413,379842
1463.04,0.211835,612307,375954
1466.24,0.214803,610032,372006
1469.43,0.218890,607345,366898
1473.67,0.224549,603789,360028
1476.85,0.230250,601175,353794
1480.02,0.235877,597737,347243
1483.19,0.241898,594479,340595
1486.36,0.248057,591232,333965
1489.52,0.252737,587853,328497
1492.68,0.255520,583875,324190
1496.89,0.258302,578062,318913
1500.03,0.257802,574159,317125
1503.18,0.258919,570285,314176
1506.32,0.256913,565444,312951
1509.45,0.256053,560571,310869
1512.58,0.254785,555821,309136
1515.71,0.251985,550344,308070
1519.87,0.249013,543983,306600
1522.99,0.246713,538764,305271
1526.1,0.243752,533692,304466
1529.21,0.240932,527902,303125
1532.32,0.239384,521886,300740
1535.42,0.234942,515888,300340
1538.51,0.233040,509987,298208
1541.6,0.229692,503936,296950
1545.72,0.226665,494694,293543
1548.8,0.223546,488378,291884
1551.88,0.220547,481832,289967
1554.95,0.219070,474989,286823
1558.02,0.217702,467818,283384
1561.08,0.216262,460730,280017
1564.15,0.215481,454170,276527
1568.22,0.215178,444181,270634
1571.27,0.214271,436947,266783
1574.32,0.213014,429598,263056
1577.36,0.211741,422039,259186
1580.4,0.211189,414375,254803
1583.43,0.209828,406354,250655
1586.46,0.207412,398475,247166
1590.49,0.205460,388982,242365
1593.51,0.203776,380708,238131
1596.53,0.202621,372727,233760
1599.54,0.199232,365060,230745
1602.55,0.197683,357543,226801
1605.55,0.195703,349495,222709
1608.55,0.193720,341154,218389
1612.54,0.193429,330877,211952
1615.53,0.190513,322904,208238
1618.51,0.188887,315116,203978
1621.49,0.188132,307217,199211
1624.47,0.186903,299481,194745
1627.44,0.186478,292112,190139
1630.41,0.184897,284245,185693
1634.36,0.184170,274079,179352
1637.32,0.183615,266916,174888
1640.27,0.181888,259612,170780
1643.22,0.181572,251804,165764
1646.16,0.181815,244348,160766
1649.1,0.180459,236703,156223
1652.04,0.178933,228171,151122
1655.95,0.175575,215408,143776
1658.88,0.171738,204937,138001
1661.8,0.166850,193395,131703
1664.72,0.157702,179728,125001
1667.63,0.147438,163642,116535
1670.54,0.132275,146312,107896
1673.44,0.116989,128451,98118
1677.31,0.096791,105080,84087
1680.21,0.086096,88906,72918
1683.1,0.080764,75033,62300
1685.99,0.084010,63520,52348
1688.87,0.081708,53714,44502
1691.75,0.091397,45653,36989
1694.62,0.096960,39137,31306
1697.49,0.102162,33776,26696
1701.31,0.097952,28175,22486

File: Column 1_050599_20150331_122258.csv
Method:,Column 1,,
Host Date-Time:,31/3/15 @ 12:22:58,,
Header Version:,1,,
System Temp (C):,34.01,,
Detector Temp (C):,34.79,,
Humidity (%):,1.76,,
Lamp PD:,3818,,
Shift Vector Coefficients:,-10.5391,0.0761263,-0.000134223,,
Pixel to Wavelength Coefficients:,1775.68,-0.916766,-0.000235065,,
Serial Number:,5510004,,
Scan Config Name:,Column 1,,
Scan Config Type:,Slew,,
Section 1,,
Start wavelength (nm):,900,,
End wavelength (nm):,1700,,
Pattern Pixel Width (nm):,   7.03,,,,
Exposure (ms):,  0.635,,,,
Digital Resolution:,228,,
Num Repeats:,6,,
PGA Gain:,64,,
Total Measurement Time in sec:,  2.669,,
Wavelength (nm),Absorbance (AU),Reference Signal (unitless),Sample Signal (unitless)
901.51,0.069125,108485,92522
905.376,0.076997,121306,101598
909.237,0.077482,131909,110355
913.095,0.077062,143299,120000
916.948,0.080892,156982,130304
922.079,0.079797,179937,149735
925.923,0.082504,200504,165813
929.762,0.083146,222660,183864
933.597,0.082448,244426,202162
937.427,0.081749,263972,218680
941.254,0.081283,281845,233737
945.076,0.079497,297271,247546
950.165,0.079330,315605,262914
953.978,0.078206,328029,273972
957.786,0.078603,340470,284103
961.59,0.078829,352317,293836
965.389,0.078908,363056,302737
969.185,0.078865,373162,311195
972.976,0.079076,382632,318937
976.763,0.079562,391202,325716
981.806,0.080174,400190,332730
985.583,0.080116,406088,337679
989.355,0.081249,410162,340178
993.124,0.081269,412868,342407
996.888,0.081831,414263,343119
1000.65,0.082799,415476,343358
1004.4,0.083401,415479,342885
1009.41,0.085233,414358,340520
1013.15,0.085418,412923,339196
1016.89,0.085626,411526,337887
1020.63,0.085653,409066,335846
1024.36,0.085320,406777,334223
1028.09,0.085774,404427,331945
1031.82,0.084994,401911,330473
1036.78,0.084444,398410,328009
1040.49,0.084712,396204,325992
1044.2,0.084816,394236,324295
1047.91,0.084117,392042,323010
1051.61,0.084341,389823,321016
1055.31,0.083701,388234,320179
1059,0.083068,387599,320121
1063.92,0.082064,386688,320108
1067.61,0.081281,386598,320611
1071.29,0.081068,387377,321415
1074.96,0.081023,388536,322410
1078.63,0.080515,389855,323883
1082.3,0.079410,391215,325841
1085.96,0.078290,393215,328352
1090.84,0.077831,396270,331253
1094.49,0.076979,398760,333989
1098.14,0.076614,400987,336137
1101.79,0.076188,403477,338556
1105.43,0.076096,406116,340843
1109.06,0.075459,407701,342675
1112.7,0.075006,409859,344849
1117.53,0.074723,412494,347292
1121.15,0.075677,414909,348559
1124.77,0.074958,416559,350525
1128.38,0.076477,418532,350955
1131.99,0.077334,419956,351455
1135.6,0.078465,421946,352202
1139.2,0.080340,423881,352293
1143.99,0.082030,426786,353330
1147.58,0.083110,428617,353964
1151.17,0.084088,431169,355271
1154.75,0.084604,433579,356832
1158.33,0.086561,436264,357428
1161.91,0.087980,439132,358604
1165.48,0.090317,442389,359325
1169.04,0.092564,446101,360470
1173.79,0.095633,451929,362608
1177.34,0.097982,456026,363921
1180.9,0.099465,461306,366880
1184.44,0.101479,467657,370210
1187.99,0.102302,473969,374497
1191.52,0.102750,479856,378757
1195.06,0.102401,487372,384999
1199.76,0.101606,497347,393599
1203.29,0.100891,504311,399767
1206.81,0.100882,511507,405480
1210.33,0.099432,519078,412858
1213.84,0.099299,527163,419417
1217.35,0.098748,534208,425562
1220.85,0.097809,540472,431484
1225.51,0.096982,549929,439870
1229.01,0.097092,556888,445324
1232.5,0.095955,562180,450734
1235.98,0.095508,567975,455849
1239.46,0.094864,574815,462024
1242.94,0.093802,582782,469574
1246.41,0.093022,591476,477436
1251.03,0.093090,604016,487482
1254.5,0.092424,612289,494917
1257.96,0.093343,619125,499385
1261.41,0.093964,624551,503042
1264.86,0.094798,629900,506376
1268.31,0.094853,634345,509885
1271.75,0.095700,638574,512285
1276.33,0.095780,642499,515338
1279.76,0.096041,645905,517759
1283.19,0.095277,648307,520600
1286.61,0.094936,650446,522727
1290.03,0.094676,652132,524396
1293.44,0.094024,653907,526614
1296.85,0.094122,655963,528150
1301.39,0.093468,657349,530064
1304.8,0.093611,657558,530058
1308.19,0.094018,658515,530332
1311.58,0.093955,658804,530642
1314.97,0.094258,659011,530438
1318.36,0.094740,658272,529255
1321.73,0.095287,658022,528389
1326.23,0.096087,657870,527294
1329.6,0.096948,656482,525140
1332.97,0.097474,654926,523261
1336.33,0.098791,653727,520721
1339.69,0.100293,652497,517947
1343.04,0.101461,649913,514510
1346.39,0.103805,647671,509976
1349.73,0.105414,645338,506259
1354.18,0.108358,641175,499596
1357.52,0.110279,638376,495219
1360.85,0.112290,635805,490946
1364.17,0.114448,633413,486675
1367.49,0.116574,631026,482473
1370.81,0.119102,628050,477411
1374.12,0.121233,625034,472793
1378.54,0.123790,620272,466436
1381.84,0.127303,616892,460157
1385.14,0.130048,613613,454827
1388.43,0.133662,611526,449524
1391.72,0.137971,610663,444458
1395.01,0.142480,610634,439846
1398.29,0.147191,611700,435860
1402.66,0.153538,614051,431188
1405.93,0.158287,616268,428038
1409.2,0.163552,617795,423928
1412.46,0.167904,618872,420433
1415.72,0.171882,619795,417221
1418.98,0.175443,620495,414281
1422.23,0.179115,621087,411185
1426.56,0.182958,621375,407752
1429.8,0.186017,621616,405047
1433.04,0.188288,622129,403267
1436.27,0.190555,621526,400778
1439.5,0.192881,621113,398373
1442.72,0.194727,620921,396560
1445.94,0.197467,620270,393653
1450.23,0.200352,618860,390158
1453.44,0.203039,617697,387023
1456.64,0.206166,616264,383355
1459.85,0.208453,614413,380196
1463.04,0.211393,612307,376336
1466.24,0.214548,610032,372224
1469.43,0.218805,607345,366970
1473.67,0.224243,603789,360282
1476.85,0.229989,601175,354007
1480.02,0.235954,597737,347181
1483.19,0.242035,594479,340488
1486.36,0.247711,591232,334231
1489.52,0.252237,587853,328876
1492.68,0.255447,583875,324245
1496.89,0.257691,578062,319362
1500.03,0.257983,574159,316993
1503.18,0.258228,570285,314676
1506.32,0.257617,565444,312444
1509.45,0.255694,560571,311126
1512.58,0.254986,555821,308993
1515.71,0.251585,550344,308354
1519.87,0.249260,543983,306426
1522.99,0.246790,538764,305217
1526.1,0.244421,533692,303997
1529.21,0.241382,527902,302811
1532.32,0.238523,521886,301337
1535.42,0.235404,515888,300021
1538.51,0.233529,509987,297872
1541.6,0.229663,503936,296970
1545.72,0.226118,494694,293913
1548.8,0.223235,488378,292093
1551.88,0.221126,481832,289581
1554.95,0.218266,474989,287354
1558.02,0.216384,467818,284245
1561.08,0.215766,460730,280337
1564.15,0.215244,454170,276678
1568.22,0.214422,444181,271105
1571.27,0.215074,436947,266290
1574.32,0.213107,429598,263000
1577.36,0.210718,422039,259797
1580.4,0.210576,414375,255163
1583.43,0.208662,406354,251329
1586.46,0.207460,398475,247139
1590.49,0.205499,388982,242343
1593.51,0.203333,380708,238374
1596.53,0.201526,372727,234350
1599.54,0.199573,365060,230564
1602.55,0.197676,357543,226805
1605.55,0.195805,349495,222657
1608.55,0.194259,341154,218118
1612.54,0.192003,330877,212649
1615.53,0.190169,322904,208403
1618.51,0.189134,315116,203862
1621.49,0.188867,307217,198874
1624.47,0.186725,299481,194825
1627.44,0.185693,292112,190483
1630.41,0.184832,284245,185721
1634.36,0.182806,274079,179916
1637.32,0.182355,266916,175396
1640.27,0.182521,259612,170531
1643.22,0.180500,251804,166174
1646.16,0.180665,244348,161192
1649.1,0.179814,236703,156455
1652.04,0.177553,228171,151603
1655.95,0.175835,215408,143690
1658.88,0.171241,204937,138159
1661.8,0.166546,193395,131795
1664.72,0.158189,179728,124861
1667.63,0.146192,163642,116870
1670.54,0.131173,146312,108170
1673.44,0.116016,128451,98338
1677.31,0.097132,105080,84021
1680.21,0.086806,88906,72799
1683.1,0.081595,75033,62181
1685.99,0.082338,63520,52550
1688.87,0.084272,53714,44240
1691.75,0.089850,45653,37121
1694.62,0.092571,39137,31624
1697.49,0.101252,33776,26752
1701.31,0.110532,28175,21844

File: Column 1_050599_20150331_122307.csv
Method:,Column 1,,
Host Date-Time:,31/3/15 @ 12:23:7,,
Header Version:,1,,
System Temp (C):,34.04,,
Detector Temp (C):,34.72,,
Humidity (%):,1.76,,
Lamp PD:,3818,,
Shift Vector Coefficients:,-10.5391,0.0761263,-0.000134223,,
Pixel to Wavelength Coefficients:,1775.68,-0.916766,-0.000235065,,
Serial Number:,5510004,,
Scan Config Name:,Column 1,,
Scan Config Type:,Slew,,
Section 1,,
Start wavelength (nm):,900,,
End wavelength (nm):,1700,,
Pattern Pixel Width (nm):,   7.03,,,,
Exposure (ms):,  0.635,,,,
Digital Resolution:,228,,
Num Repeats:,6,,
PGA Gain:,64,,
Total Measurement Time in sec:,  2.724,,
Wavelength (nm),Absorbance (AU),Reference Signal (unitless),Sample Signal (unitless)
901.51,0.070224,108485,92288
905.376,0.076536,121306,101706
909.237,0.077793,131909,110276
913.095,0.079181,143299,119416
916.948,0.080083,156982,130547
922.079,0.081413,179937,149179
925.923,0.082350,200504,165872
929.762,0.083410,222660,183752
933.597,0.082714,244426,202038
937.427,0.081626,263972,218742
941.254,0.081603,281845,233565
945.076,0.079172,297271,247731
950.165,0.078733,315605,263276
953.978,0.078436,328029,273827
957.786,0.078233,340470,284345
961.59,0.078279,352317,294208
965.389,0.078624,363056,302935
969.185,0.078257,373162,311631
972.976,0.079247,382632,318812
976.763,0.079545,391202,325729
981.806,0.079752,400190,333054
985.583,0.080133,406088,337666
989.355,0.080681,410162,340623
993.124,0.081186,412868,342472
996.888,0.081749,414263,343184
1000.65,0.082555,415476,343551
1004.4,0.083779,415479,342586
1009.41,0.084866,414358,340808
1013.15,0.084944,412923,339567
1016.89,0.085630,411526,337884
1020.63,0.085988,409066,335587
1024.36,0.086356,406777,333427
1028.09,0.085314,404427,332297
1031.82,0.085178,401911,330333
1036.78,0.084757,398410,327773
1040.49,0.084186,396204,326387
1044.2,0.084609,394236,324450
1047.91,0.084453,392042,322760
1051.61,0.083981,389823,321282
1055.31,0.083390,388234,320408
1059,0.083253,387599,319985
1063.92,0.082644,386688,319681
1067.61,0.081730,386598,320280
1071.29,0.082010,387377,320718
1074.96,0.080744,388536,322617
1078.63,0.080528,389855,323873
1082.3,0.079843,391215,325516
1085.96,0.078833,393215,327942
1090.84,0.077664,396270,331381
1094.49,0.076957,398760,334006
1098.14,0.076891,400987,335923
1101.79,0.076098,403477,338626
1105.43,0.076205,406116,340757
1109.06,0.075097,407701,342961
1112.7,0.074893,409859,344938
1117.53,0.074638,412494,347360
1121.15,0.075068,414909,349048
1124.77,0.074801,416559,350651
1128.38,0.076079,418532,351277
1131.99,0.076715,419956,351956
1135.6,0.078328,421946,352313
1139.2,0.079813,423881,352721
1143.99,0.081735,426786,353570
1147.58,0.082138,428617,354757
1151.17,0.084299,431169,355098
1154.75,0.084792,433579,356678
1158.33,0.085920,436264,357956
1161.91,0.087790,439132,358761
1165.48,0.090173,442389,359444
1169.04,0.092181,446101,360788
1173.79,0.095213,451929,362959
1177.34,0.097573,456026,364264
1180.9,0.099702,461306,366680
1184.44,0.101119,467657,370517
1187.99,0.102227,473969,374561
1191.52,0.102338,479856,379117
1195.06,0.101907,487372,385437
1199.76,0.101720,497347,393495
1203.29,0.100825,504311,399828
1206.81,0.100158,511507,406157
1210.33,0.099803,519078,412505
1213.84,0.099319,527163,419398
1217.35,0.098684,534208,425624
1220.85,0.097928,540472,431365
1225.51,0.097133,549929,439717
1229.01,0.096801,556888,445622
1232.5,0.096575,562180,450091
1235.98,0.095202,567975,456170
1239.46,0.094705,574815,462193
1242.94,0.093496,582782,469905
1246.41,0.092920,591476,477548
1251.03,0.092836,604016,487767
1254.5,0.093296,612289,493924
1257.96,0.093354,619125,499372
1261.41,0.093912,624551,503102
1264.86,0.094701,629900,506490
1268.31,0.095094,634345,509602
1271.75,0.095919,638574,512026
1276.33,0.096105,642499,514953
1279.76,0.095535,645905,518363
1283.19,0.095036,648307,520889
1286.61,0.094621,650446,523107
1290.03,0.094490,652132,524621
1293.44,0.094137,653907,526477
1296.85,0.093765,655963,528585
1301.39,0.093439,657349,530099
1304.8,0.093495,657558,530199
1308.19,0.093816,658515,530578
1311.58,0.093754,658804,530887
1314.97,0.094170,659011,530545
1318.36,0.094486,658272,529565
1321.73,0.095286,658022,528390
1326.23,0.095762,657870,527689
1329.6,0.096665,656482,525482
1332.97,0.097588,654926,523123
1336.33,0.098515,653727,521052
1339.69,0.099760,652497,518583
1343.04,0.101508,649913,514455
1346.39,0.103708,647671,510090
1349.73,0.105595,645338,506049
1354.18,0.108400,641175,499547
1357.52,0.110404,638376,495077
1360.85,0.112281,635805,490956
1364.17,0.114424,633413,486702
1367.49,0.116664,631026,482373
1370.81,0.118649,628050,477909
1374.12,0.120929,625034,473124
1378.54,0.123816,620272,466408
1381.84,0.126934,616892,460548
1385.14,0.130014,613613,454863
1388.43,0.133901,611526,449277
1391.72,0.137921,610663,444509
1395.01,0.142420,610634,439907
1398.29,0.146488,611700,436567
1402.66,0.153890,614051,430838
1405.93,0.157927,616268,428393
1409.2,0.162900,617795,424565
1412.46,0.167603,618872,420725
1415.72,0.172714,619795,416422
1418.98,0.175399,620495,414323
1422.23,0.178922,621087,411368
1426.56,0.182590,621375,408097
1429.8,0.185251,621616,405762
1433.04,0.188021,622129,403515
1436.27,0.189939,621526,401347
1439.5,0.191831,621113,399337
1442.72,0.194404,620921,396855
1445.94,0.197198,620270,393897
1450.23,0.200614,618860,389923
1453.44,0.203282,617697,386806
1456.64,0.206064,616264,383445
1459.85,0.208696,614413,379983
1463.04,0.210889,612307,376773
1466.24,0.214615,610032,372167
1469.43,0.218078,607345,367585
1473.67,0.223687,603789,360743
1476.85,0.229760,601175,354194
1480.02,0.235128,597737,347842
1483.19,0.242229,594479,340336
1486.36,0.247542,591232,334361
1489.52,0.252134,587853,328954
1492.68,0.255421,583875,324264
1496.89,0.257663,578062,319383
1500.03,0.257926,574159,317034
1503.18,0.257886,570285,314924
1506.32,0.256954,565444,312922
1509.45,0.256197,560571,310766
1512.58,0.253702,555821,309908
1515.71,0.251820,550344,308187
1519.87,0.248797,543983,306753
1522.99,0.246861,538764,305167
1526.1,0.243692,533692,304508
1529.21,0.241082,527902,303020
1532.32,0.238799,521886,301146
1535.42,0.235524,515888,299938
1538.51,0.233082,509987,298179
1541.6,0.229378,503936,297165
1545.72,0.225480,494694,294345
1548.8,0.222557,488378,292549
1551.88,0.220826,481832,289781
1554.95,0.218354,474989,287296
1558.02,0.216577,467818,284119
1561.08,0.215803,460730,280313
1564.15,0.215545,454170,276486
1568.22,0.214093,444181,271311
1571.27,0.213209,436947,267436
1574.32,0.212938,429598,263102
1577.36,0.211796,422039,259153
1580.4,0.210074,414375,255458
1583.43,0.208557,406354,251390
1586.46,0.206970,398475,247418
1590.49,0.204613,388982,242838
1593.51,0.203368,380708,238355
1596.53,0.201518,372727,234354
1599.54,0.199456,365060,230626
1602.55,0.196981,357543,227168
1605.55,0.194926,349495,223108
1608.55,0.192485,341154,219011
1612.54,0.191777,330877,212760
1615.53,0.189127,322904,208904
1618.51,0.189256,315116,203805
1621.49,0.187348,307217,199571
1624.47,0.187151,299481,194634
1627.44,0.186218,292112,190253
1630.41,0.184589,284245,185825
1634.36,0.183345,274079,179693
1637.32,0.182523,266916,175328
1640.27,0.182203,259612,170656
1643.22,0.181630,251804,165742
1646.16,0.180100,244348,161402
1649.1,0.180206,236703,156314
1652.04,0.179419,228171,150953
1655.95,0.174550,215408,144116
1658.88,0.170472,204937,138404
1661.8,0.166540,193395,131797
1664.72,0.157400,179728,125088
1667.63,0.146705,163642,116732
1670.54,0.132299,146312,107890
1673.44,0.115442,128451,98468
1677.31,0.097453,105080,83959
1680.21,0.086394,88906,72868
1683.1,0.080750,75033,62302
1685.99,0.082718,63520,52504
1688.87,0.082812,53714,44389
1691.75,0.089230,45653,37174
1694.62,0.097404,39137,31274
1697.49,0.101463,33776,26739
1701.31,0.097218,28175,22524