Folder: textile_sorting_NIRSCAN_/samples/wool/wool-000811 (part 142)

File: Column 1_050610_20150331_122832.csv
Method:,Column 1,,
Host Date-Time:,31/3/15 @ 12:28:32,,
Header Version:,1,,
System Temp (C):,34.06,,
Detector Temp (C):,34.88,,
Humidity (%):,1.66,,
Lamp PD:,3818,,
Shift Vector Coefficients:,-10.5391,0.0761263,-0.000134223,,
Pixel to Wavelength Coefficients:,1775.68,-0.916766,-0.000235065,,
Serial Number:,5510004,,
Scan Config Name:,Column 1,,
Scan Config Type:,Slew,,
Section 1,,
Start wavelength (nm):,900,,
End wavelength (nm):,1700,,
Pattern Pixel Width (nm):,   7.03,,,,
Exposure (ms):,  0.635,,,,
Digital Resolution:,228,,
Num Repeats:,6,,
PGA Gain:,64,,
Total Measurement Time in sec:,  2.673,,
Wavelength (nm),Absorbance (AU),Reference Signal (unitless),Sample Signal (unitless)
901.51,0.068276,108485,92703
905.376,0.074737,121306,102128
909.237,0.078046,131909,110212
913.095,0.076169,143299,120247
916.948,0.078072,156982,131153
922.079,0.081468,179937,149160
925.923,0.082759,200504,165716
929.762,0.082787,222660,184016
933.597,0.082785,244426,202005
937.427,0.080680,263972,219219
941.254,0.079442,281845,234730
945.076,0.078613,297271,248050
950.165,0.078325,315605,263523
953.978,0.077829,328029,274210
957.786,0.077607,340470,284755
961.59,0.077209,352317,294934
965.389,0.077404,363056,303787
969.185,0.077932,373162,311864
972.976,0.077705,382632,319946
976.763,0.078584,391202,326450
981.806,0.078108,400190,334317
985.583,0.079386,406088,338247
989.355,0.080019,410162,341143
993.124,0.080440,412868,343061
996.888,0.080783,414263,343948
1000.65,0.081349,415476,344506
1004.4,0.081958,415479,344026
1009.41,0.083649,414358,341764
1013.15,0.084158,412923,340182
1016.89,0.084808,411526,338524
1020.63,0.084370,409066,336840
1024.36,0.084620,406777,334762
1028.09,0.084824,404427,332672
1031.82,0.084659,401911,330728
1036.78,0.084012,398410,328336
1040.49,0.084109,396204,326445
1044.2,0.084207,394236,324750
1047.91,0.083932,392042,323147
1051.61,0.083133,389823,321910
1055.31,0.082873,388234,320790
1059,0.082217,387599,320749
1063.92,0.081564,386688,320477
1067.61,0.080907,386598,320887
1071.29,0.080398,387377,321911
1074.96,0.080011,388536,323162
1078.63,0.079171,389855,324887
1082.3,0.078326,391215,326655
1085.96,0.077879,393215,328663
1090.84,0.076747,396270,332081
1094.49,0.076338,398760,334483
1098.14,0.075343,400987,337122
1101.79,0.075139,403477,339375
1105.43,0.075315,406116,341456
1109.06,0.074177,407701,343688
1112.7,0.073054,409859,346402
1117.53,0.073573,412494,348213
1121.15,0.073711,414909,350140
1124.77,0.074244,416559,351101
1128.38,0.074751,418532,352353
1131.99,0.075768,419956,352725
1135.6,0.077239,421946,353198
1139.2,0.078647,423881,353669
1143.99,0.080833,426786,354305
1147.58,0.081607,428617,355191
1151.17,0.082962,431169,356193
1154.75,0.083427,433579,357801
1158.33,0.084569,436264,359071
1161.91,0.086430,439132,359886
1165.48,0.088373,442389,360937
1169.04,0.090481,446101,362203
1173.79,0.094237,451929,363775
1177.34,0.096134,456026,365473
1180.9,0.098507,461306,367690
1184.44,0.099833,467657,371616
1187.99,0.101336,473969,375331
1191.52,0.101354,479856,379977
1195.06,0.101044,487372,386204
1199.76,0.100756,497347,394370
1203.29,0.099145,504311,401378
1206.81,0.099133,511507,407116
1210.33,0.098362,519078,413876
1213.84,0.097827,527163,420841
1217.35,0.097199,534208,427082
1220.85,0.096540,540472,432746
1225.51,0.095911,549929,440956
1229.01,0.095379,556888,447084
1232.5,0.094564,562180,452180
1235.98,0.094254,567975,457167
1239.46,0.093285,574815,463706
1242.94,0.092314,582782,471186
1246.41,0.091931,591476,478637
1251.03,0.091703,604016,489041
1254.5,0.091467,612289,496009
1257.96,0.092064,619125,500858
1261.41,0.092536,624551,504698
1264.86,0.093245,629900,508190
1268.31,0.093399,634345,511595
1271.75,0.094143,638574,514125
1276.33,0.094924,642499,516355
1279.76,0.094850,645905,519181
1283.19,0.093980,648307,522157
1286.61,0.093499,650446,524460
1290.03,0.093311,652132,526047
1293.44,0.092853,653907,528035
1296.85,0.092233,655963,530452
1301.39,0.091987,657349,531874
1304.8,0.092410,657558,531525
1308.19,0.092125,658515,532649
1311.58,0.092552,658804,532358
1314.97,0.093001,659011,531975
1318.36,0.092952,658272,531439
1321.73,0.093400,658022,530690
1326.23,0.094365,657870,529389
1329.6,0.095054,656482,527435
1332.97,0.095936,654926,525117
1336.33,0.096767,653727,523154
1339.69,0.098124,652497,520541
1343.04,0.099925,649913,516333
1346.39,0.101870,647671,512253
1349.73,0.103636,645338,508336
1354.18,0.106415,641175,501836
1357.52,0.108423,638376,497340
1360.85,0.110657,635805,492796
1364.17,0.112559,633413,488796
1367.49,0.114622,631026,484647
1370.81,0.117080,628050,479639
1374.12,0.119104,625034,475116
1378.54,0.121668,620272,468721
1381.84,0.124656,616892,462970
1385.14,0.127505,613613,457498
1388.43,0.131347,611526,451927
1391.72,0.135448,610663,447047
1395.01,0.139360,610634,443018
1398.29,0.143672,611700,439407
1402.66,0.149901,614051,434814
1405.93,0.155055,616268,431236
1409.2,0.159963,617795,427446
1412.46,0.164111,618872,424121
1415.72,0.167315,619795,421632
1418.98,0.170959,620495,418581
1422.23,0.174670,621087,415415
1426.56,0.178265,621375,412182
1429.8,0.180786,621616,409955
1433.04,0.183353,622129,407875
1436.27,0.185130,621526,405816
1439.5,0.187213,621113,403606
1442.72,0.190083,620921,400824
1445.94,0.192384,620270,398288
1450.23,0.195591,618860,394459
1453.44,0.198535,617697,391057
1456.64,0.201358,616264,387622
1459.85,0.204186,614413,383950
1463.04,0.207127,612307,380051
1466.24,0.210890,610032,375373
1469.43,0.214618,607345,370525
1473.67,0.220987,603789,362993
1476.85,0.226289,601175,357036
1480.02,0.232175,597737,350215
1483.19,0.238927,594479,342933
1486.36,0.244916,591232,336389
1489.52,0.249397,587853,331033
1492.68,0.252243,583875,326646
1496.89,0.255202,578062,321198
1500.03,0.255438,574159,318856
1503.18,0.255986,570285,316305
1506.32,0.254414,565444,314757
1509.45,0.253281,560571,312860
1512.58,0.252328,555821,310890
1515.71,0.249537,550344,309811
1519.87,0.246472,543983,308399
1522.99,0.244105,538764,307110
1526.1,0.241105,533692,306327
1529.21,0.239056,527902,304437
1532.32,0.235516,521886,303431
1535.42,0.232720,515888,301881
1538.51,0.230130,509987,300213
1541.6,0.226687,503936,299012
1545.72,0.223190,494694,295901
1548.8,0.220726,488378,293785
1551.88,0.218504,481832,291334
1554.95,0.215817,474989,288979
1558.02,0.214218,467818,285666
1561.08,0.213526,460730,281787
1564.15,0.212446,454170,278466
1568.22,0.211499,444181,272936
1571.27,0.211124,436947,268723
1574.32,0.209813,429598,265002
1577.36,0.208880,422039,260899
1580.4,0.207760,414375,256823
1583.43,0.206992,406354,252297
1586.46,0.204437,398475,248865
1590.49,0.203618,388982,243395
1593.51,0.201203,380708,239546
1596.53,0.199109,372727,235658
1599.54,0.197062,365060,231901
1602.55,0.195203,357543,228100
1605.55,0.193711,349495,223733
1608.55,0.190962,341154,219780
1612.54,0.189866,330877,213698
1615.53,0.188674,322904,209122
1618.51,0.186736,315116,204991
1621.49,0.185164,307217,200577
1624.47,0.185442,299481,195401
1627.44,0.184062,292112,191200
1630.41,0.184054,284245,186054
1634.36,0.182490,274079,180047
1637.32,0.180379,266916,176196
1640.27,0.179610,259612,171678
1643.22,0.178458,251804,166957
1646.16,0.178127,244348,162137
1649.1,0.177561,236703,157269
1652.04,0.177427,228171,151647
1655.95,0.172886,215408,144669
1658.88,0.170669,204937,138341
1661.8,0.164311,193395,132475
1664.72,0.156311,179728,125402
1667.63,0.144042,163642,117450
1670.54,0.130147,146312,108426
1673.44,0.113989,128451,98798
1677.31,0.095245,105080,84387
1680.21,0.082331,88906,73553
1683.1,0.073259,75033,63386
1685.99,0.075117,63520,53431
1688.87,0.077493,53714,44936
1691.75,0.082265,45653,37775
1694.62,0.087587,39137,31989
1697.49,0.091587,33776,27354
1701.31,0.104529,28175,22148

File: Column 1_050611_20150331_122837.csv
Method:,Column 1,,
Host Date-Time:,31/3/15 @ 12:28:37,,
Header Version:,1,,
System Temp (C):,34.07,,
Detector Temp (C):,34.9,,
Humidity (%):,1.66,,
Lamp PD:,3818,,
Shift Vector Coefficients:,-10.5391,0.0761263,-0.000134223,,
Pixel to Wavelength Coefficients:,1775.68,-0.916766,-0.000235065,,
Serial Number:,5510004,,
Scan Config Name:,Column 1,,
Scan Config Type:,Slew,,
Section 1,,
Start wavelength (nm):,900,,
End wavelength (nm):,1700,,
Pattern Pixel Width (nm):,   7.03,,,,
Exposure (ms):,  0.635,,,,
Digital Resolution:,228,,
Num Repeats:,6,,
PGA Gain:,64,,
Total Measurement Time in sec:,  2.674,,
Wavelength (nm),Absorbance (AU),Reference Signal (unitless),Sample Signal (unitless)
901.51,0.068168,108485,92726
905.376,0.073247,121306,102479
909.237,0.075409,131909,110883
913.095,0.075750,143299,120363
916.948,0.077817,156982,131230
922.079,0.079191,179937,149944
925.923,0.082015,200504,166000
929.762,0.081545,222660,184543
933.597,0.081735,244426,202494
937.427,0.080699,263972,219209
941.254,0.079917,281845,234473
945.076,0.078885,297271,247895
950.165,0.078388,315605,263485
953.978,0.076150,328029,275272
957.786,0.077143,340470,285060
961.59,0.077630,352317,294648
965.389,0.077339,363056,303833
969.185,0.076928,373162,312586
972.976,0.077147,382632,320357
976.763,0.078098,391202,326816
981.806,0.078716,400190,333849
985.583,0.079104,406088,338467
989.355,0.079722,410162,341376
993.124,0.079702,412868,343644
996.888,0.080857,414263,343890
1000.65,0.081332,415476,344520
1004.4,0.082627,415479,343496
1009.41,0.083576,414358,341822
1013.15,0.084053,412923,340264
1016.89,0.084640,411526,338655
1020.63,0.084895,409066,336433
1024.36,0.083918,406777,335304
1028.09,0.084327,404427,333053
1031.82,0.084478,401911,330866
1036.78,0.083759,398410,328527
1040.49,0.083876,396204,326620
1044.2,0.083534,394236,325254
1047.91,0.082652,392042,324101
1051.61,0.083013,389823,321999
1055.31,0.082962,388234,320724
1059,0.082205,387599,320758
1063.92,0.081166,386688,320771
1067.61,0.080204,386598,321407
1071.29,0.080433,387377,321885
1074.96,0.079455,388536,323576
1078.63,0.079067,389855,324965
1082.3,0.077604,391215,327199
1085.96,0.077323,393215,329084
1090.84,0.075987,396270,332663
1094.49,0.075977,398760,334761
1098.14,0.076021,400987,336596
1101.79,0.074645,403477,339761
1105.43,0.074296,406116,342258
1109.06,0.074285,407701,343603
1112.7,0.073380,409859,346142
1117.53,0.073154,412494,348549
1121.15,0.074163,414909,349776
1124.77,0.074369,416559,351000
1128.38,0.074748,418532,352355
1131.99,0.075990,419956,352544
1135.6,0.076457,421946,353834
1139.2,0.078140,423881,354082
1143.99,0.080168,426786,354848
1147.58,0.081126,428617,355585
1151.17,0.081238,431169,357610
1154.75,0.082909,433579,358228
1158.33,0.083976,436264,359562
1161.91,0.086442,439132,359876
1165.48,0.088413,442389,360904
1169.04,0.090750,446101,361979
1173.79,0.093503,451929,364391
1177.34,0.096427,456026,365227
1180.9,0.097616,461306,368445
1184.44,0.099895,467657,371563
1187.99,0.101339,473969,375328
1191.52,0.100545,479856,380685
1195.06,0.101134,487372,386124
1199.76,0.099824,497347,395217
1203.29,0.099321,504311,401215
1206.81,0.098567,511507,407647
1210.33,0.098328,519078,413909
1213.84,0.097573,527163,421087
1217.35,0.097550,534208,426737
1220.85,0.096518,540472,432768
1225.51,0.095163,549929,441717
1229.01,0.095151,556888,447319
1232.5,0.094503,562180,452244
1235.98,0.094118,567975,457311
1239.46,0.093069,574815,463937
1242.94,0.091951,582782,471580
1246.41,0.091606,591476,478995
1251.03,0.091161,604016,489652
1254.5,0.090884,612289,496675
1257.96,0.092353,619125,500525
1261.41,0.092714,624551,504492
1264.86,0.092901,629900,508593
1268.31,0.093355,634345,511647
1271.75,0.093779,638574,514555
1276.33,0.094332,642499,517059
1279.76,0.094384,645905,519738
1283.19,0.093853,648307,522309
1286.61,0.093262,650446,524746
1290.03,0.092954,652132,526479
1293.44,0.092451,653907,528524
1296.85,0.092522,655963,530099
1301.39,0.092240,657349,531564
1304.8,0.091845,657558,532217
1308.19,0.092028,658515,532768
1311.58,0.092202,658804,532788
1314.97,0.092391,659011,532723
1318.36,0.092832,658272,531586
1321.73,0.093271,658022,530847
1326.23,0.094027,657870,529801
1329.6,0.094972,656482,527534
1332.97,0.095543,654926,525592
1336.33,0.096677,653727,523262
1339.69,0.098173,652497,520482
1343.04,0.099630,649913,516684
1346.39,0.101508,647671,512680
1349.73,0.103045,645338,509029
1354.18,0.106389,641175,501866
1357.52,0.108011,638376,497812
1360.85,0.110836,635805,492593
1364.17,0.112894,633413,488420
1367.49,0.114913,631026,484322
1370.81,0.116890,628050,479849
1374.12,0.118807,625034,475441
1378.54,0.121768,620272,468613
1381.84,0.124692,616892,462932
1385.14,0.127936,613613,457045
1388.43,0.130706,611526,452594
1391.72,0.135237,610663,447265
1395.01,0.139288,610634,443091
1398.29,0.143542,611700,439538
1402.66,0.149125,614051,435592
1405.93,0.154806,616268,431483
1409.2,0.159024,617795,428371
1412.46,0.163880,618872,424347
1415.72,0.167406,619795,421543
1418.98,0.171046,620495,418497
1422.23,0.174064,621087,415995
1426.56,0.178184,621375,412259
1429.8,0.180209,621616,410500
1433.04,0.183298,622129,407927
1436.27,0.185366,621526,405596
1439.5,0.186994,621113,403810
1442.72,0.189782,620921,401102
1445.94,0.192069,620270,398577
1450.23,0.196051,618860,394041
1453.44,0.198420,617697,391161
1456.64,0.201580,616264,387424
1459.85,0.204329,614413,383823
1463.04,0.207035,612307,380132
1466.24,0.210262,610032,375916
1469.43,0.214236,607345,370851
1473.67,0.220106,603789,363730
1476.85,0.225879,601175,357373
1480.02,0.231971,597737,350380
1483.19,0.238869,594479,342979
1486.36,0.243868,591232,337202
1489.52,0.249085,587853,331271
1492.68,0.253081,583875,326016
1496.89,0.255099,578062,321274
1500.03,0.255003,574159,319175
1503.18,0.255401,570285,316731
1506.32,0.254286,565444,314850
1509.45,0.252801,560571,313206
1512.58,0.251922,555821,311181
1515.71,0.249443,550344,309878
1519.87,0.246078,543983,308679
1522.99,0.242758,538764,308064
1526.1,0.241166,533692,306284
1529.21,0.238591,527902,304763
1532.32,0.235114,521886,303712
1535.42,0.232081,515888,302325
1538.51,0.229185,509987,300867
1541.6,0.226482,503936,299153
1545.72,0.222715,494694,296225
1548.8,0.219439,488378,294657
1551.88,0.216869,481832,292433
1554.95,0.214865,474989,289613
1558.02,0.213969,467818,285830
1561.08,0.212387,460730,282527
1564.15,0.212314,454170,278551
1568.22,0.211759,444181,272773
1571.27,0.210991,436947,268805
1574.32,0.210415,429598,264635
1577.36,0.209210,422039,260701
1580.4,0.208225,414375,256548
1583.43,0.206251,406354,252728
1586.46,0.204289,398475,248950
1590.49,0.202775,388982,243868
1593.51,0.200962,380708,239679
1596.53,0.199094,372727,235666
1599.54,0.197161,365060,231848
1602.55,0.194568,357543,228434
1605.55,0.193721,349495,223728
1608.55,0.189504,341154,220519
1612.54,0.189062,330877,214094
1615.53,0.187359,322904,209756
1618.51,0.186482,315116,205111
1621.49,0.185758,307217,200303
1624.47,0.184255,299481,195936
1627.44,0.183360,292112,191509
1630.41,0.183301,284245,186377
1634.36,0.181252,274079,180561
1637.32,0.180282,266916,176235
1640.27,0.179807,259612,171600
1643.22,0.178645,251804,166885
1646.16,0.177963,244348,162198
1649.1,0.177105,236703,157434
1652.04,0.176960,228171,151810
1655.95,0.172403,215408,144830
1658.88,0.168393,204937,139068
1661.8,0.164138,193395,132528
1664.72,0.155408,179728,125663
1667.63,0.142046,163642,117991
1670.54,0.126215,146312,109412
1673.44,0.114042,128451,98786
1677.31,0.091488,105080,85120
1680.21,0.081776,88906,73647
1683.1,0.075540,75033,63054
1685.99,0.070975,63520,53943
1688.87,0.075824,53714,45109
1691.75,0.080979,45653,37887
1694.62,0.090830,39137,31751
1697.49,0.095222,33776,27126
1701.31,0.098532,28175,22456

File: Column 1_050611_20150331_122840.csv
Method:,Column 1,,
Host Date-Time:,31/3/15 @ 12:28:40,,
Header Version:,1,,
System Temp (C):,34.06,,
Detector Temp (C):,34.95,,
Humidity (%):,1.66,,
Lamp PD:,3818,,
Shift Vector Coefficients:,-10.5391,0.0761263,-0.000134223,,
Pixel to Wavelength Coefficients:,1775.68,-0.916766,-0.000235065,,
Serial Number:,5510004,,
Scan Config Name:,Column 1,,
Scan Config Type:,Slew,,
Section 1,,
Start wavelength (nm):,900,,
End wavelength (nm):,1700,,
Pattern Pixel Width (nm):,   7.03,,,,
Exposure (ms):,  0.635,,,,
Digital Resolution:,228,,
Num Repeats:,6,,
PGA Gain:,64,,
Total Measurement Time in sec:,  2.668,,
Wavelength (nm),Absorbance (AU),Reference Signal (unitless),Sample Signal (unitless)
901.51,0.068806,108485,92590
905.376,0.075998,121306,101832
909.237,0.076720,131909,110549
913.095,0.076216,143299,120234
916.948,0.077760,156982,131247
922.079,0.080668,179937,149435
925.923,0.080852,200504,166445
929.762,0.082067,222660,184321
933.597,0.081810,244426,202459
937.427,0.080664,263972,219227
941.254,0.079371,281845,234768
945.076,0.078802,297271,247942
950.165,0.077660,315605,263927
953.978,0.076990,328029,274740
957.786,0.077460,340470,284852
961.59,0.077825,352317,294516
965.389,0.077556,363056,303681
969.185,0.076801,373162,312677
972.976,0.077937,382632,319775
976.763,0.077976,391202,326908
981.806,0.078556,400190,333972
985.583,0.079608,406088,338074
989.355,0.079622,410162,341455
993.124,0.080131,412868,343305
996.888,0.080550,414263,344133
1000.65,0.081680,415476,344244
1004.4,0.082653,415479,343476
1009.41,0.084140,414358,341378
1013.15,0.084559,412923,339868
1016.89,0.084860,411526,338483
1020.63,0.084384,409066,336829
1024.36,0.085178,406777,334332
1028.09,0.084310,404427,333066
1031.82,0.084391,401911,330932
1036.78,0.083733,398410,328547
1040.49,0.083191,396204,327136
1044.2,0.083856,394236,325013
1047.91,0.083313,392042,323608
1051.61,0.083063,389823,321962
1055.31,0.082383,388234,321152
1059,0.082250,387599,320725
1063.92,0.081308,386688,320666
1067.61,0.080722,386598,321024
1071.29,0.080123,387377,322115
1074.96,0.079655,388536,323427
1078.63,0.078671,389855,325261
1082.3,0.078244,391215,326717
1085.96,0.077641,393215,328843
1090.84,0.076543,396270,332237
1094.49,0.075908,398760,334814
1098.14,0.075712,400987,336836
1101.79,0.075332,403477,339224
1105.43,0.074324,406116,342236
1109.06,0.073733,407701,344040
1112.7,0.074178,409859,345507
1117.53,0.073554,412494,348228
1121.15,0.073766,414909,350096
1124.77,0.073717,416559,351528
1128.38,0.074905,418532,352228
1131.99,0.076029,419956,352513
1135.6,0.077219,421946,353214
1139.2,0.078570,423881,353732
1143.99,0.080727,426786,354391
1147.58,0.081642,428617,355163
1151.17,0.081922,431169,357047
1154.75,0.083470,433579,357765
1158.33,0.084579,436264,359063
1161.91,0.086833,439132,359552
1165.48,0.087984,442389,361260
1169.04,0.090481,446101,362203
1173.79,0.093960,451929,364007
1177.34,0.096379,456026,365267
1180.9,0.098265,461306,367895
1184.44,0.100171,467657,371327
1187.99,0.100903,473969,375705
1191.52,0.100600,479856,380637
1195.06,0.100409,487372,386769
1199.76,0.100333,497347,394754
1203.29,0.099619,504311,400940
1206.81,0.098936,511507,407301
1210.33,0.098727,519078,413529
1213.84,0.097942,527163,420729
1217.35,0.097291,534208,426992
1220.85,0.096510,540472,432776
1225.51,0.096072,549929,440793
1229.01,0.095387,556888,447075
1232.5,0.094505,562180,452241
1235.98,0.094391,567975,457023
1239.46,0.092961,574815,464053
1242.94,0.092404,582782,471088
1246.41,0.091861,591476,478714
1251.03,0.091540,604016,489225
1254.5,0.091644,612289,495807
1257.96,0.091782,619125,501183
1261.41,0.092846,624551,504338
1264.86,0.093259,629900,508174
1268.31,0.093426,634345,511564
1271.75,0.094232,638574,514019
1276.33,0.094677,642499,516649
1279.76,0.094455,645905,519653
1283.19,0.093676,648307,522522
1286.61,0.093371,650446,524615
1290.03,0.093049,652132,526364
1293.44,0.092899,653907,527979
1296.85,0.092321,655963,530345
1301.39,0.091785,657349,532122
1304.8,0.092187,657558,531798
1308.19,0.092506,658515,532181
1311.58,0.092455,658804,532477
1314.97,0.092682,659011,532367
1318.36,0.093097,658272,531261
1321.73,0.093123,658022,531028
1326.23,0.094300,657870,529469
1329.6,0.094893,656482,527630
1332.97,0.095997,654926,525044
1336.33,0.096715,653727,523216
1339.69,0.098272,652497,520363
1343.04,0.099751,649913,516540
1346.39,0.101725,647671,512424
1349.73,0.103924,645338,508000
1354.18,0.106361,641175,501898
1357.52,0.108317,638376,497462
1360.85,0.110559,635805,492907
1364.17,0.112550,633413,488806
1367.49,0.114409,631026,484885
1370.81,0.116927,628050,479808
1374.12,0.118835,625034,475410
1378.54,0.121490,620272,468913
1381.84,0.124565,616892,463067
1385.14,0.127392,613613,457617
1388.43,0.131534,611526,451732
1391.72,0.135386,610663,447111
1395.01,0.139107,610634,443276
1398.29,0.143762,611700,439315
1402.66,0.149647,614051,435068
1405.93,0.154892,616268,431397
1409.2,0.158999,617795,428396
1412.46,0.163572,618872,424648
1415.72,0.167378,619795,421570
1418.98,0.170857,620495,418679
1422.23,0.174141,621087,415922
1426.56,0.177904,621375,412525
1429.8,0.180362,621616,410355
1433.04,0.183231,622129,407990
1436.27,0.185188,621526,405762
1439.5,0.187115,621113,403697
1442.72,0.189652,620921,401222
1445.94,0.192507,620270,398175
1450.23,0.195682,618860,394376
1453.44,0.198372,617697,391204
1456.64,0.201135,616264,387821
1459.85,0.204065,614413,384057
1463.04,0.206741,612307,380389
1466.24,0.210248,610032,375928
1469.43,0.214088,607345,370977
1473.67,0.220621,603789,363299
1476.85,0.225789,601175,357447
1480.02,0.232199,597737,350196
1483.19,0.239105,594479,342793
1486.36,0.244116,591232,337009
1489.52,0.249268,587853,331132
1492.68,0.252421,583875,326512
1496.89,0.254523,578062,321700
1500.03,0.255069,574159,319127
1503.18,0.255585,570285,316597
1506.32,0.254064,565444,315011
1509.45,0.253056,560571,313022
1512.58,0.251200,555821,311699
1515.71,0.248563,550344,310507
1519.87,0.246539,543983,308352
1522.99,0.244961,538764,306505
1526.1,0.241464,533692,306074
1529.21,0.238218,527902,305025
1532.32,0.236058,521886,303052
1535.42,0.232579,515888,301979
1538.51,0.229424,509987,300701
1541.6,0.227326,503936,298572
1545.72,0.222366,494694,296463
1548.8,0.219615,488378,294538
1551.88,0.217676,481832,291890
1554.95,0.215802,474989,288989
1558.02,0.214138,467818,285719
1561.08,0.212434,460730,282496
1564.15,0.212099,454170,278689
1568.22,0.210939,444181,273288
1571.27,0.210945,436947,268834
1574.32,0.209903,429598,264947
1577.36,0.208742,422039,260982
1580.4,0.207677,414375,256872
1583.43,0.206093,406354,252820
1586.46,0.204940,398475,248577
1590.49,0.203229,388982,243613
1593.51,0.200804,380708,239766
1596.53,0.198967,372727,235735
1599.54,0.196867,365060,232005
1602.55,0.194288,357543,228581
1605.55,0.192881,349495,224161
1608.55,0.190609,341154,219959
1612.54,0.189702,330877,213779
1615.53,0.187247,322904,209810
1618.51,0.186721,315116,204998
1621.49,0.186352,307217,200029
1624.47,0.184887,299481,195651
1627.44,0.183778,292112,191325
1630.41,0.182360,284245,186781
1634.36,0.181464,274079,180473
1637.32,0.180702,266916,176065
1640.27,0.179764,259612,171617
1643.22,0.178783,251804,166832
1646.16,0.178416,244348,162029
1649.1,0.178296,236703,157003
1652.04,0.176451,228171,151988
1655.95,0.172742,215408,144717
1658.88,0.169863,204937,138598
1661.8,0.163542,193395,132710
1664.72,0.154952,179728,125795
1667.63,0.143347,163642,117638
1670.54,0.129230,146312,108655
1673.44,0.113278,128451,98960
1677.31,0.090943,105080,85227
1680.21,0.081770,88906,73648
1683.1,0.074501,75033,63205
1685.99,0.076224,63520,53295
1688.87,0.074767,53714,45219
1691.75,0.082426,45653,37761
1694.62,0.089314,39137,31862
1697.49,0.096730,33776,27032
1701.31,0.098822,28175,22441