Folder: textile_sorting_NIRSCAN_/samples/wool/wool-000811 (part 28)

File: Column 1_050545_20150331_115743.csv
Method:,Column 1,,
Host Date-Time:,31/3/15 @ 11:57:43,,
Header Version:,1,,
System Temp (C):,32.93,,
Detector Temp (C):,31.43,,
Humidity (%):,2.54,,
Lamp PD:,3823,,
Shift Vector Coefficients:,-10.5391,0.0761263,-0.000134223,,
Pixel to Wavelength Coefficients:,1775.68,-0.916766,-0.000235065,,
Serial Number:,5510004,,
Scan Config Name:,Column 1,,
Scan Config Type:,Slew,,
Section 1,,
Start wavelength (nm):,900,,
End wavelength (nm):,1700,,
Pattern Pixel Width (nm):,   7.03,,,,
Exposure (ms):,  0.635,,,,
Digital Resolution:,228,,
Num Repeats:,6,,
PGA Gain:,64,,
Total Measurement Time in sec:,  2.675,,
Wavelength (nm),Absorbance (AU),Reference Signal (unitless),Sample Signal (unitless)
901.51,0.044889,108485,97832
905.376,0.051356,121306,107777
909.237,0.052237,131909,116960
913.095,0.053117,143299,126802
916.948,0.053961,156982,138640
922.079,0.053456,179937,159098
925.923,0.054850,200504,176715
929.762,0.055114,222660,196123
933.597,0.055990,244426,214861
937.427,0.055995,263972,232040
941.254,0.056212,281845,247627
945.076,0.055417,297271,261659
950.165,0.054754,315605,278221
953.978,0.054945,328029,289046
957.786,0.054777,340470,300125
961.59,0.055620,352317,309966
965.389,0.055476,363056,319520
969.185,0.056420,373162,327701
972.976,0.056438,382632,336003
976.763,0.057362,391202,342799
981.806,0.058422,400190,349820
985.583,0.058830,406088,354642
989.355,0.059398,410162,357732
993.124,0.059593,412868,359930
996.888,0.060256,414263,360595
1000.65,0.061068,415476,360976
1004.4,0.062224,415479,360019
1009.41,0.063939,414358,357632
1013.15,0.064141,412923,356228
1016.89,0.064646,411526,354610
1020.63,0.063894,409066,353101
1024.36,0.063692,406777,351289
1028.09,0.064134,404427,348904
1031.82,0.063439,401911,347289
1036.78,0.062894,398410,344696
1040.49,0.062815,396204,342850
1044.2,0.062124,394236,341690
1047.91,0.061671,392042,340143
1051.61,0.060800,389823,338897
1055.31,0.059546,388234,338491
1059,0.058961,387599,338393
1063.92,0.058363,386688,338063
1067.61,0.056374,386598,339536
1071.29,0.056243,387377,340323
1074.96,0.055780,388536,341705
1078.63,0.055053,389855,343439
1082.3,0.053726,391215,345692
1085.96,0.053080,393215,347977
1090.84,0.052925,396270,350805
1094.49,0.052315,398760,353506
1098.14,0.051332,400987,356286
1101.79,0.051525,403477,358339
1105.43,0.051216,406116,360939
1109.06,0.050738,407701,362747
1112.7,0.050896,409859,364534
1117.53,0.050762,412494,366991
1121.15,0.051588,414909,368438
1124.77,0.052231,416559,369356
1128.38,0.053345,418532,370155
1131.99,0.055219,419956,369815
1135.6,0.057639,421946,369503
1139.2,0.059434,423881,369666
1143.99,0.062697,426786,369414
1147.58,0.063595,428617,370232
1151.17,0.064895,431169,371324
1154.75,0.066595,433579,371940
1158.33,0.068100,436264,372949
1161.91,0.070588,439132,373256
1165.48,0.074356,442389,372776
1169.04,0.076495,446101,374057
1173.79,0.080792,451929,375213
1177.34,0.083626,456026,376152
1180.9,0.086233,461306,378230
1184.44,0.088132,467657,381764
1187.99,0.088744,473969,386372
1191.52,0.088297,479856,391574
1195.06,0.087255,487372,398663
1199.76,0.086210,497347,407802
1203.29,0.085254,504311,414424
1206.81,0.083713,511507,421831
1210.33,0.082314,519078,429456
1213.84,0.081743,527163,436719
1217.35,0.080630,534208,443691
1220.85,0.079238,540472,450334
1225.51,0.078097,549929,459420
1229.01,0.077580,556888,465787
1232.5,0.076662,562180,471209
1235.98,0.075333,567975,477525
1239.46,0.074300,574815,484427
1242.94,0.073318,582782,492253
1246.41,0.072642,591476,500375
1251.03,0.071897,604016,511860
1254.5,0.071962,612289,518793
1257.96,0.072689,619125,523708
1261.41,0.073200,624551,527677
1264.86,0.073888,629900,531354
1268.31,0.074171,634345,534755
1271.75,0.075265,638574,536965
1276.33,0.075424,642499,540068
1279.76,0.075247,645905,543152
1283.19,0.074810,648307,545721
1286.61,0.074573,650446,547821
1290.03,0.074244,652132,549657
1293.44,0.073151,653907,552541
1296.85,0.073126,655963,554311
1301.39,0.072996,657349,555648
1304.8,0.073265,657558,555481
1308.19,0.073195,658515,556379
1311.58,0.073255,658804,556546
1314.97,0.074115,659011,555620
1318.36,0.074486,658272,554523
1321.73,0.075281,658022,553299
1326.23,0.076301,657870,551873
1329.6,0.077130,656482,549658
1332.97,0.078210,654926,546993
1336.33,0.079588,653727,544263
1339.69,0.080922,652497,541573
1343.04,0.083493,649913,536244
1346.39,0.086145,647671,531141
1349.73,0.088208,645338,526719
1354.18,0.091634,641175,519209
1357.52,0.093770,638376,514407
1360.85,0.096893,635805,508664
1364.17,0.098997,633413,504301
1367.49,0.102021,631026,498915
1370.81,0.104186,628050,494092
1374.12,0.107020,625034,488521
1378.54,0.111236,620272,480116
1381.84,0.114469,616892,473958
1385.14,0.119472,613613,466039
1388.43,0.123929,611526,459712
1391.72,0.130131,610663,452554
1395.01,0.135869,610634,446593
1398.29,0.141731,611700,441375
1402.66,0.150082,614051,434633
1405.93,0.156132,616268,430168
1409.2,0.162400,617795,425054
1412.46,0.168835,618872,419533
1415.72,0.173401,619795,415764
1418.98,0.178187,620495,411672
1422.23,0.182714,621087,407792
1426.56,0.187294,621375,403701
1429.8,0.190036,621616,401316
1433.04,0.192689,622129,399201
1436.27,0.195398,621526,396334
1439.5,0.197441,621113,394212
1442.72,0.201003,620921,390871
1445.94,0.202785,620270,388862
1450.23,0.206645,618860,384545
1453.44,0.210006,617697,380864
1456.64,0.212365,616264,377922
1459.85,0.215332,614413,374221
1463.04,0.217986,612307,370666
1466.24,0.220853,610032,366859
1469.43,0.224226,607345,362418
1473.67,0.230149,603789,355415
1476.85,0.235469,601175,349568
1480.02,0.240884,597737,343262
1483.19,0.248284,594479,335624
1486.36,0.254117,591232,329337
1489.52,0.258907,587853,323863
1492.68,0.262209,583875,319235
1496.89,0.265364,578062,313769
1500.03,0.265952,574159,311229
1503.18,0.266840,570285,308498
1506.32,0.265800,565444,306612
1509.45,0.265244,560571,304359
1512.58,0.263462,555821,303021
1515.71,0.261066,550344,301695
1519.87,0.257838,543983,300433
1522.99,0.255151,538764,299397
1526.1,0.252613,533692,298317
1529.21,0.249202,527902,297407
1532.32,0.245908,521886,296256
1535.42,0.243357,515888,294577
1538.51,0.239519,509987,293792
1541.6,0.236561,503936,292290
1545.72,0.231397,494694,290362
1548.8,0.227667,488378,289127
1551.88,0.224990,481832,287016
1554.95,0.223165,474989,284131
1558.02,0.221014,467818,281231
1561.08,0.219525,460730,277921
1564.15,0.218951,454170,274326
1568.22,0.217758,444181,269031
1571.27,0.217096,436947,265053
1574.32,0.215429,429598,261597
1577.36,0.214129,422039,257765
1580.4,0.213088,414375,253691
1583.43,0.211143,406354,249897
1586.46,0.209113,398475,246200
1590.49,0.205983,388982,242073
1593.51,0.204035,380708,237989
1596.53,0.201383,372727,234427
1599.54,0.199151,365060,230788
1602.55,0.196966,357543,227176
1605.55,0.195253,349495,222940
1608.55,0.191858,341154,219327
1612.54,0.189653,330877,213803
1615.53,0.186788,322904,210032
1618.51,0.186018,315116,205330
1621.49,0.184744,307217,200771
1624.47,0.182753,299481,196615
1627.44,0.181688,292112,192248
1630.41,0.180520,284245,187574
1634.36,0.178466,274079,181723
1637.32,0.177730,266916,177274
1640.27,0.176681,259612,172840
1643.22,0.175126,251804,168243
1646.16,0.173902,244348,163722
1649.1,0.172397,236703,159150
1652.04,0.172285,228171,153453
1655.95,0.170083,215408,145606
1658.88,0.168100,204937,139162
1661.8,0.165779,193395,132028
1664.72,0.162668,179728,123580
1667.63,0.154843,163642,114565
1670.54,0.147583,146312,104159
1673.44,0.141049,128451,92830
1677.31,0.133183,105080,77328
1680.21,0.131776,88906,65638
1683.1,0.131476,75033,55434
1685.99,0.138240,63520,46203
1688.87,0.139101,53714,38993
1691.75,0.146812,45653,32558
1694.62,0.152135,39137,27571
1697.49,0.148198,33776,24011
1701.31,0.155133,28175,19712

File: Column 1_050546_20150331_115749.csv
Method:,Column 1,,
Host Date-Time:,31/3/15 @ 11:57:49,,
Header Version:,1,,
System Temp (C):,32.91,,
Detector Temp (C):,31.47,,
Humidity (%):,2.54,,
Lamp PD:,3823,,
Shift Vector Coefficients:,-10.5391,0.0761263,-0.000134223,,
Pixel to Wavelength Coefficients:,1775.68,-0.916766,-0.000235065,,
Serial Number:,5510004,,
Scan Config Name:,Column 1,,
Scan Config Type:,Slew,,
Section 1,,
Start wavelength (nm):,900,,
End wavelength (nm):,1700,,
Pattern Pixel Width (nm):,   7.03,,,,
Exposure (ms):,  0.635,,,,
Digital Resolution:,228,,
Num Repeats:,6,,
PGA Gain:,64,,
Total Measurement Time in sec:,  2.679,,
Wavelength (nm),Absorbance (AU),Reference Signal (unitless),Sample Signal (unitless)
901.51,0.047373,108485,97274
905.376,0.050994,121306,107867
909.237,0.053624,131909,116587
913.095,0.053295,143299,126750
916.948,0.053686,156982,138728
922.079,0.054273,179937,158799
925.923,0.054601,200504,176816
929.762,0.055176,222660,196095
933.597,0.056216,244426,214749
937.427,0.056042,263972,232015
941.254,0.055934,281845,247786
945.076,0.054757,297271,262057
950.165,0.055861,315605,277513
953.978,0.055153,328029,288908
957.786,0.055412,340470,299686
961.59,0.056197,352317,309554
965.389,0.056256,363056,318946
969.185,0.056340,373162,327761
972.976,0.057144,382632,335457
976.763,0.057282,391202,342862
981.806,0.058188,400190,350008
985.583,0.058661,406088,354780
989.355,0.059846,410162,357363
993.124,0.059681,412868,359857
996.888,0.060240,414263,360609
1000.65,0.061456,415476,360653
1004.4,0.062486,415479,359802
1009.41,0.064009,414358,357575
1013.15,0.064187,412923,356190
1016.89,0.064635,411526,354619
1020.63,0.064335,409066,352743
1024.36,0.064473,406777,350658
1028.09,0.063737,404427,349223
1031.82,0.063872,401911,346943
1036.78,0.063599,398410,344137
1040.49,0.062865,396204,342810
1044.2,0.061985,394236,341799
1047.91,0.061596,392042,340202
1051.61,0.061295,389823,338511
1055.31,0.060475,388234,337768
1059,0.059429,387599,338029
1063.92,0.057901,386688,338423
1067.61,0.057872,386598,338367
1071.29,0.056587,387377,340053
1074.96,0.055791,388536,341696
1078.63,0.055643,389855,342973
1082.3,0.053926,391215,345533
1085.96,0.054084,393215,347173
1090.84,0.052927,396270,350804
1094.49,0.052462,398760,353386
1098.14,0.052456,400987,355365
1101.79,0.051932,403477,358003
1105.43,0.051758,406116,360489
1109.06,0.050890,407701,362620
1112.7,0.051181,409859,364295
1117.53,0.050843,412494,366923
1121.15,0.051713,414909,368332
1124.77,0.052352,416559,369253
1128.38,0.054058,418532,369548
1131.99,0.055775,419956,369342
1135.6,0.057838,421946,369334
1139.2,0.059485,423881,369623
1143.99,0.062278,426786,369770
1147.58,0.063543,428617,370277
1151.17,0.064858,431169,371355
1154.75,0.066228,433579,372255
1158.33,0.068458,436264,372642
1161.91,0.071182,439132,372746
1165.48,0.073795,442389,373258
1169.04,0.076795,446101,373799
1173.79,0.081042,451929,374997
1177.34,0.083902,456026,375913
1180.9,0.086324,461306,378151
1184.44,0.088760,467657,381213
1187.99,0.088762,473969,386356
1191.52,0.088472,479856,391416
1195.06,0.088038,487372,397945
1199.76,0.086695,497347,407347
1203.29,0.085058,504311,414611
1206.81,0.083732,511507,421813
1210.33,0.082540,519078,429233
1213.84,0.082401,527163,436058
1217.35,0.080963,534208,443351
1220.85,0.079377,540472,450190
1225.51,0.078355,549929,459147
1229.01,0.077740,556888,465616
1232.5,0.076508,562180,471376
1235.98,0.075984,567975,476810
1239.46,0.074881,574815,483779
1242.94,0.073801,582782,491706
1246.41,0.072878,591476,500103
1251.03,0.072238,604016,511458
1254.5,0.072338,612289,518344
1257.96,0.073092,619125,523223
1261.41,0.073670,624551,527106
1264.86,0.073981,629900,531240
1268.31,0.074680,634345,534128
1271.75,0.075607,638574,536543
1276.33,0.075894,642499,539484
1279.76,0.075649,645905,542650
1283.19,0.074819,648307,545710
1286.61,0.074504,650446,547907
1290.03,0.074264,652132,549632
1293.44,0.073573,653907,552005
1296.85,0.073659,655963,553631
1301.39,0.073182,657349,555411
1304.8,0.073420,657558,555282
1308.19,0.073256,658515,556301
1311.58,0.073729,658804,555939
1314.97,0.074254,659011,555442
1318.36,0.074772,658272,554158
1321.73,0.074957,658022,553711
1326.23,0.076103,657870,552124
1329.6,0.077404,656482,549312
1332.97,0.078440,654926,546704
1336.33,0.079596,653727,544253
1339.69,0.081300,652497,541101
1343.04,0.083532,649913,536196
1346.39,0.085959,647671,531368
1349.73,0.088635,645338,526202
1354.18,0.091990,641175,518784
1357.52,0.094187,638376,513913
1360.85,0.096968,635805,508576
1364.17,0.099205,633413,504060
1367.49,0.101914,631026,499038
1370.81,0.104811,628050,493382
1374.12,0.107313,625034,488192
1378.54,0.111101,620272,480265
1381.84,0.114939,616892,473446
1385.14,0.119680,613613,465816
1388.43,0.124485,611526,459124
1391.72,0.130012,610663,452678
1395.01,0.135468,610634,447006
1398.29,0.141909,611700,441194
1402.66,0.150384,614051,434331
1405.93,0.156835,616268,429472
1409.2,0.162608,617795,424851
1412.46,0.168617,618872,419743
1415.72,0.173867,619795,415318
1418.98,0.178309,620495,411556
1422.23,0.182659,621087,407843
1426.56,0.186961,621375,404011
1429.8,0.190075,621616,401280
1433.04,0.193016,622129,398900
1436.27,0.195302,621526,396422
1439.5,0.197592,621113,394075
1442.72,0.200149,620921,391640
1445.94,0.202972,620270,388695
1450.23,0.206802,618860,384406
1453.44,0.209196,617697,381575
1456.64,0.212126,616264,378130
1459.85,0.215445,614413,374124
1463.04,0.217710,612307,370902
1466.24,0.221370,610032,366423
1469.43,0.224554,607345,362144
1473.67,0.229678,603789,355801
1476.85,0.234672,601175,350210
1480.02,0.240580,597737,343503
1483.19,0.247452,594479,336267
1486.36,0.253409,591232,329875
1489.52,0.258365,587853,324268
1492.68,0.262818,583875,318788
1496.89,0.264736,578062,314223
1500.03,0.266269,574159,311002
1503.18,0.266716,570285,308586
1506.32,0.265929,565444,306521
1509.45,0.264841,560571,304642
1512.58,0.263305,555821,303131
1515.71,0.261361,550344,301490
1519.87,0.257830,543983,300438
1522.99,0.254716,538764,299697
1526.1,0.252767,533692,298211
1529.21,0.249423,527902,297256
1532.32,0.246623,521886,295769
1535.42,0.242588,515888,295099
1538.51,0.240000,509987,293467
1541.6,0.236649,503936,292231
1545.72,0.231834,494694,290070
1548.8,0.228175,488378,288789
1551.88,0.225435,481832,286722
1554.95,0.222954,474989,284269
1558.02,0.220722,467818,281420
1561.08,0.219927,460730,277664
1564.15,0.219086,454170,274241
1568.22,0.217821,444181,268992
1571.27,0.217557,436947,264772
1574.32,0.216026,429598,261238
1577.36,0.214125,422039,257767
1580.4,0.212714,414375,253910
1583.43,0.211281,406354,249818
1586.46,0.208211,398475,246712
1590.49,0.206432,388982,241823
1593.51,0.204601,380708,237679
1596.53,0.202422,372727,233867
1599.54,0.199140,365060,230794
1602.55,0.197279,357543,227012
1605.55,0.193965,349495,223602
1608.55,0.191765,341154,219374
1612.54,0.189484,330877,213886
1615.53,0.187210,322904,209828
1618.51,0.186302,315116,205196
1621.49,0.184396,307217,200932
1624.47,0.183836,299481,196125
1627.44,0.183140,292112,191606
1630.41,0.180351,284245,187647
1634.36,0.178239,274079,181818
1637.32,0.177245,266916,177472
1640.27,0.177375,259612,172564
1643.22,0.175402,251804,168136
1646.16,0.174661,244348,163436
1649.1,0.174745,236703,158292
1652.04,0.173166,228171,153142
1655.95,0.170590,215408,145436
1658.88,0.167853,204937,139241
1661.8,0.163866,193395,132611
1664.72,0.161303,179728,123969
1667.63,0.154123,163642,114755
1670.54,0.147221,146312,104246
1673.44,0.140904,128451,92861
1677.31,0.132061,105080,77528
1680.21,0.128769,88906,66094
1683.1,0.132252,75033,55335
1685.99,0.140530,63520,45960
1688.87,0.145361,53714,38435
1691.75,0.146745,45653,32563
1694.62,0.150108,39137,27700
1697.49,0.158595,33776,23443
1701.31,0.166269,28175,19213

File: Column 1_050546_20150331_115803.csv
Method:,Column 1,,
Host Date-Time:,31/3/15 @ 11:58:3,,
Header Version:,1,,
System Temp (C):,32.99,,
Detector Temp (C):,31.57,,
Humidity (%):,2.44,,
Lamp PD:,3823,,
Shift Vector Coefficients:,-10.5391,0.0761263,-0.000134223,,
Pixel to Wavelength Coefficients:,1775.68,-0.916766,-0.000235065,,
Serial Number:,5510004,,
Scan Config Name:,Column 1,,
Scan Config Type:,Slew,,
Section 1,,
Start wavelength (nm):,900,,
End wavelength (nm):,1700,,
Pattern Pixel Width (nm):,   7.03,,,,
Exposure (ms):,  0.635,,,,
Digital Resolution:,228,,
Num Repeats:,6,,
PGA Gain:,64,,
Total Measurement Time in sec:,  2.670,,
Wavelength (nm),Absorbance (AU),Reference Signal (unitless),Sample Signal (unitless)
901.51,0.047226,108485,97307
905.376,0.052248,121306,107556
909.237,0.053137,131909,116718
913.095,0.053806,143299,126601
916.948,0.055414,156982,138177
922.079,0.055818,179937,158235
925.923,0.055073,200504,176624
929.762,0.056667,222660,195423
933.597,0.056801,244426,214460
937.427,0.056857,263972,231580
941.254,0.056382,281845,247530
945.076,0.056381,297271,261079
950.165,0.056703,315605,276975
953.978,0.056006,328029,288341
957.786,0.056312,340470,299066
961.59,0.056794,352317,309129
965.389,0.056579,363056,318709
969.185,0.057275,373162,327056
972.976,0.057472,382632,335204
976.763,0.058473,391202,341923
981.806,0.059073,400190,349296
985.583,0.059867,406088,353796
989.355,0.060051,410162,357194
993.124,0.061001,412868,358765
996.888,0.061671,414263,359422
1000.65,0.062299,415476,359954
1004.4,0.063337,415479,359097
1009.41,0.064771,414358,356948
1013.15,0.064751,412923,355728
1016.89,0.065652,411526,353790
1020.63,0.065452,409066,351837
1024.36,0.064909,406777,350306
1028.09,0.064823,404427,348351
1031.82,0.064829,401911,346179
1036.78,0.063807,398410,343972
1040.49,0.063818,396204,342059
1044.2,0.063089,394236,340932
1047.91,0.062278,392042,339668
1051.61,0.061654,389823,338231
1055.31,0.061243,388234,337171
1059,0.060534,387599,337170
1063.92,0.058970,386688,337591
1067.61,0.057965,386598,338294
1071.29,0.057558,387377,339294
1074.96,0.056719,388536,340967
1078.63,0.056440,389855,342344
1082.3,0.055529,391215,344260
1085.96,0.054488,393215,346850
1090.84,0.053753,396270,350137
1094.49,0.053570,398760,352486
1098.14,0.052540,400987,355296
1101.79,0.052354,403477,357655
1105.43,0.052591,406116,359798
1109.06,0.051886,407701,361789
1112.7,0.051595,409859,363948
1117.53,0.051697,412494,366202
1121.15,0.052629,414909,367556
1124.77,0.053008,416559,368696
1128.38,0.054702,418532,369000
1131.99,0.055966,419956,369180
1135.6,0.058821,421946,368499
1139.2,0.060211,423881,369006
1143.99,0.063011,426786,369147
1147.58,0.064729,428617,369267
1151.17,0.065682,431169,370651
1154.75,0.067064,433579,371539
1158.33,0.069085,436264,372104
1161.91,0.071975,439132,372066
1165.48,0.074255,442389,372863
1169.04,0.077218,446101,373435
1173.79,0.081512,451929,374592
1177.34,0.084271,456026,375594
1180.9,0.086672,461306,377848
1184.44,0.088731,467657,381238
1187.99,0.089738,473969,385489
1191.52,0.089235,479856,390729
1195.06,0.088258,487372,397743
1199.76,0.087070,497347,406995
1203.29,0.085177,504311,414497
1206.81,0.084419,511507,421146
1210.33,0.083478,519078,428306
1213.84,0.082553,527163,435905
1217.35,0.081876,534208,442420
1220.85,0.080045,540472,449498
1225.51,0.078331,549929,459172
1229.01,0.077999,556888,465338
1232.5,0.077062,562180,470775
1235.98,0.076530,567975,476211
1239.46,0.075065,574815,483574
1242.94,0.073860,582782,491639
1246.41,0.073206,591476,499725
1251.03,0.073097,604016,510448
1254.5,0.072850,612289,517734
1257.96,0.073578,619125,522637
1261.41,0.074002,624551,526703
1264.86,0.074329,629900,530814
1268.31,0.074868,634345,533897
1271.75,0.075962,638574,536104
1276.33,0.076339,642499,538931
1279.76,0.076140,645905,542037
1283.19,0.075505,648307,544848
1286.61,0.075110,650446,547143
1290.03,0.074624,652132,549176
1293.44,0.074501,653907,550827
1296.85,0.074276,655963,552845
1301.39,0.073573,657349,554911
1304.8,0.073591,657558,555064
1308.19,0.074183,658515,555114
1311.58,0.073989,658804,555607
1314.97,0.074530,659011,555089
1318.36,0.075358,658272,553410
1321.73,0.075608,658022,552882
1326.23,0.076890,657870,551125
1329.6,0.077537,656482,549143
1332.97,0.078716,654926,546357
1336.33,0.080141,653727,543570
1339.69,0.082112,652497,540090
1343.04,0.083930,649913,535704
1346.39,0.086271,647671,530986
1349.73,0.088699,645338,526124
1354.18,0.092372,641175,518328
1357.52,0.095004,638376,512947
1360.85,0.097309,635805,508177
1364.17,0.100052,633413,503078
1367.49,0.102548,631026,498310
1370.81,0.105206,628050,492933
1374.12,0.107521,625034,487958
1378.54,0.111898,620272,479385
1381.84,0.115273,616892,473082
1385.14,0.120447,613613,464994
1388.43,0.125316,611526,458246
1391.72,0.130728,610663,451933
1395.01,0.136168,610634,446286
1398.29,0.142169,611700,440930
1402.66,0.150471,614051,434244
1405.93,0.157312,616268,429000
1409.2,0.163031,617795,424437
1412.46,0.168901,618872,419469
1415.72,0.173935,619795,415253
1418.98,0.178659,620495,411225
1422.23,0.182727,621087,407780
1426.56,0.187384,621375,403617
1429.8,0.189881,621616,401459
1433.04,0.193258,622129,398678
1436.27,0.195753,621526,396010
1439.5,0.198225,621113,393501
1442.72,0.200413,620921,391402
1445.94,0.203103,620270,388578
1450.23,0.206784,618860,384422
1453.44,0.210138,617697,380748
1456.64,0.212692,616264,377637
1459.85,0.215607,614413,373984
1463.04,0.218460,612307,370262
1466.24,0.221829,610032,366036
1469.43,0.224721,607345,362005
1473.67,0.230171,603789,355397
1476.85,0.235682,601175,349397
1480.02,0.241371,597737,342878
1483.19,0.248246,594479,335653
1486.36,0.253939,591232,329472
1489.52,0.259781,587853,323212
1492.68,0.262923,583875,318711
1496.89,0.266193,578062,313171
1500.03,0.266688,574159,310702
1503.18,0.266885,570285,308466
1506.32,0.266434,565444,306165
1509.45,0.265369,560571,304272
1512.58,0.263537,555821,302969
1515.71,0.261639,550344,301297
1519.87,0.258400,543983,300044
1522.99,0.255533,538764,299134
1526.1,0.252591,533692,298332
1529.21,0.250682,527902,296395
1532.32,0.246931,521886,295559
1535.42,0.243498,515888,294481
1538.51,0.240582,509987,293074
1541.6,0.236342,503936,292438
1545.72,0.232175,494694,289842
1548.8,0.227893,488378,288977
1551.88,0.225973,481832,286367
1554.95,0.223429,474989,283958
1558.02,0.221235,467818,281088
1561.08,0.219811,460730,277738
1564.15,0.219392,454170,274048
1568.22,0.217688,444181,269074
1571.27,0.216857,436947,265199
1574.32,0.216294,429598,261077
1577.36,0.214452,422039,257573
1580.4,0.213388,414375,253516
1583.43,0.211900,406354,249462
1586.46,0.209272,398475,246110
1590.49,0.206798,388982,241619
1593.51,0.203592,380708,238232
1596.53,0.202218,372727,233977
1599.54,0.199816,365060,230435
1602.55,0.197639,357543,226824
1605.55,0.194819,349495,223163
1608.55,0.193310,341154,218595
1612.54,0.190240,330877,213514
1615.53,0.187552,322904,209663
1618.51,0.187834,315116,204473
1621.49,0.185259,307217,200533
1624.47,0.183575,299481,196243
1627.44,0.181744,292112,192223
1630.41,0.180599,284245,187540
1634.36,0.179088,274079,181463
1637.32,0.177306,266916,177447
1640.27,0.177463,259612,172529
1643.22,0.174924,251804,168321
1646.16,0.174515,244348,163491
1649.1,0.173947,236703,158583
1652.04,0.171592,228171,153698
1655.95,0.170936,215408,145320
1658.88,0.167962,204937,139206
1661.8,0.167014,193395,131653
1664.72,0.161215,179728,123994
1667.63,0.155989,163642,114263
1670.54,0.148259,146312,103997
1673.44,0.139876,128451,93081
1677.31,0.131345,105080,77656
1680.21,0.128907,88906,66073
1683.1,0.130138,75033,55605
1685.99,0.135402,63520,46506
1688.87,0.143129,53714,38633
1691.75,0.149058,45653,32390
1694.62,0.155376,39137,27366
1697.49,0.154410,33776,23670
1701.31,0.151579,28175,19874