Folder: textile_sorting_NIRSCAN_/samples/wool/wool-000811 (part 70)

File: Column 1_050569_20150331_120844.csv
Method:,Column 1,,
Host Date-Time:,31/3/15 @ 12:8:44,,
Header Version:,1,,
System Temp (C):,34.03,,
Detector Temp (C):,33.99,,
Humidity (%):,1.76,,
Lamp PD:,3818,,
Shift Vector Coefficients:,-10.5391,0.0761263,-0.000134223,,
Pixel to Wavelength Coefficients:,1775.68,-0.916766,-0.000235065,,
Serial Number:,5510004,,
Scan Config Name:,Column 1,,
Scan Config Type:,Slew,,
Section 1,,
Start wavelength (nm):,900,,
End wavelength (nm):,1700,,
Pattern Pixel Width (nm):,   7.03,,,,
Exposure (ms):,  0.635,,,,
Digital Resolution:,228,,
Num Repeats:,6,,
PGA Gain:,64,,
Total Measurement Time in sec:,  2.664,,
Wavelength (nm),Absorbance (AU),Reference Signal (unitless),Sample Signal (unitless)
901.51,0.036792,108485,99673
905.376,0.041567,121306,110234
909.237,0.043012,131909,119471
913.095,0.043384,143299,129676
916.948,0.046686,156982,140982
922.079,0.047494,179937,161297
925.923,0.049010,200504,179107
929.762,0.048846,222660,198974
933.597,0.049785,244426,217953
937.427,0.049606,263972,235479
941.254,0.047785,281845,252479
945.076,0.047245,297271,266629
950.165,0.046813,315605,283355
953.978,0.046895,328029,294454
957.786,0.046710,340470,305752
961.59,0.047623,352317,315726
965.389,0.047124,363056,325724
969.185,0.047510,373162,334493
972.976,0.047732,382632,342807
976.763,0.048233,391202,350081
981.806,0.049028,400190,357469
985.583,0.049450,406088,362385
989.355,0.050179,410162,365407
993.124,0.050281,412868,367731
996.888,0.051093,414263,368284
1000.65,0.052310,415476,368329
1004.4,0.053276,415479,367513
1009.41,0.054566,414358,365435
1013.15,0.055113,412923,363711
1016.89,0.055251,411526,362365
1020.63,0.054904,409066,360487
1024.36,0.055204,406777,358222
1028.09,0.055341,404427,356040
1031.82,0.054756,401911,354302
1036.78,0.054247,398410,351628
1040.49,0.054275,396204,349658
1044.2,0.054241,394236,347949
1047.91,0.053426,392042,346662
1051.61,0.052826,389823,345177
1055.31,0.053302,388234,343393
1059,0.052064,387599,343810
1063.92,0.050357,386688,344353
1067.61,0.049536,386598,344924
1071.29,0.049397,387377,345730
1074.96,0.049192,388536,346928
1078.63,0.048175,389855,348922
1082.3,0.047718,391215,350508
1085.96,0.047118,393215,352787
1090.84,0.046183,396270,356294
1094.49,0.045467,398760,359124
1098.14,0.044749,400987,361727
1101.79,0.045230,403477,363571
1105.43,0.044488,406116,366574
1109.06,0.045047,407701,367532
1112.7,0.044347,409859,370073
1117.53,0.044348,412494,372451
1121.15,0.045218,414909,373882
1124.77,0.045795,416559,374871
1128.38,0.047652,418532,375039
1131.99,0.048707,419956,375402
1135.6,0.050155,421946,375926
1139.2,0.051747,423881,376268
1143.99,0.054663,426786,376311
1147.58,0.055322,428617,377353
1151.17,0.056862,431169,378256
1154.75,0.057436,433579,379868
1158.33,0.060077,436264,379903
1161.91,0.061760,439132,380921
1165.48,0.063676,442389,382057
1169.04,0.067291,446101,382069
1173.79,0.070452,451929,384254
1177.34,0.072574,456026,385847
1180.9,0.075048,461306,388098
1184.44,0.076865,467657,391798
1187.99,0.077579,473969,396434
1191.52,0.077398,479856,401525
1195.06,0.077286,487372,407920
1199.76,0.076304,497347,417211
1203.29,0.075039,504311,424287
1206.81,0.074576,511507,430800
1210.33,0.073935,519078,437822
1213.84,0.073392,527163,445198
1217.35,0.072383,534208,452197
1220.85,0.071410,540472,458525
1225.51,0.070647,549929,467369
1229.01,0.070044,556888,473940
1232.5,0.069668,562180,478859
1235.98,0.068601,567975,484985
1239.46,0.067611,574815,491946
1242.94,0.066766,582782,499735
1246.41,0.066063,591476,508012
1251.03,0.065989,604016,518871
1254.5,0.066233,612289,525683
1257.96,0.066121,619125,531688
1261.41,0.067054,624551,535197
1264.86,0.067687,629900,538995
1268.31,0.068686,634345,541551
1271.75,0.069067,638574,544684
1276.33,0.069482,642499,547508
1279.76,0.069654,645905,550193
1283.19,0.069049,648307,553009
1286.61,0.068548,650446,555474
1290.03,0.067845,652132,557816
1293.44,0.067578,653907,559678
1296.85,0.067397,655963,561671
1301.39,0.067342,657349,562930
1304.8,0.067124,657558,563391
1308.19,0.067364,658515,563900
1311.58,0.067862,658804,563501
1314.97,0.068093,659011,563378
1318.36,0.068643,658272,562034
1321.73,0.068833,658022,561574
1326.23,0.069965,657870,559983
1329.6,0.070479,656482,558141
1332.97,0.071409,654926,555627
1336.33,0.072604,653727,553086
1339.69,0.074556,652497,549570
1343.04,0.076154,649913,545383
1346.39,0.078748,647671,540264
1349.73,0.080265,645338,536441
1354.18,0.083580,641175,528928
1357.52,0.086056,638376,523625
1360.85,0.088428,635805,518676
1364.17,0.090226,633413,514589
1367.49,0.092679,631026,509763
1370.81,0.095492,628050,504083
1374.12,0.097937,625034,498846
1378.54,0.100973,620272,491597
1381.84,0.104263,616892,485228
1385.14,0.108192,613613,478302
1388.43,0.112174,611526,472325
1391.72,0.117391,610663,466027
1395.01,0.121977,610634,461109
1398.29,0.127243,611700,456347
1402.66,0.134208,614051,450813
1405.93,0.139998,616268,446449
1409.2,0.145658,617795,441760
1412.46,0.150455,618872,437669
1415.72,0.154756,619795,434002
1418.98,0.158385,620495,430877
1422.23,0.162370,621087,427349
1426.56,0.166302,621375,423693
1429.8,0.169468,621616,420779
1433.04,0.172212,622129,418474
1436.27,0.174931,621526,415459
1439.5,0.177044,621113,413168
1442.72,0.179142,620921,411050
1445.94,0.181764,620270,408147
1450.23,0.185703,618860,403543
1453.44,0.188610,617697,400097
1456.64,0.191134,616264,396856
1459.85,0.194334,614413,392759
1463.04,0.196969,612307,389045
1466.24,0.200524,610032,384440
1469.43,0.204419,607345,379329
1473.67,0.210656,603789,371731
1476.85,0.216310,601175,365335
1480.02,0.222477,597737,358124
1483.19,0.228916,594479,350930
1486.36,0.235595,591232,343687
1489.52,0.240684,587853,337742
1492.68,0.244839,583875,332262
1496.89,0.247327,578062,327075
1500.03,0.248068,574159,324313
1503.18,0.247937,570285,322222
1506.32,0.247113,565444,320093
1509.45,0.245802,560571,318294
1512.58,0.244534,555821,316520
1515.71,0.241544,550344,315566
1519.87,0.237860,543983,314576
1522.99,0.235958,538764,312925
1526.1,0.232674,533692,312332
1529.21,0.229968,527902,310875
1532.32,0.227447,521886,309121
1535.42,0.223369,515888,308451
1538.51,0.220666,509987,306827
1541.6,0.217577,503936,305350
1545.72,0.213649,494694,302474
1548.8,0.209483,488378,301490
1551.88,0.206966,481832,299178
1554.95,0.204964,474989,296292
1558.02,0.202957,467818,293170
1561.08,0.201960,460730,289392
1564.15,0.201605,454170,285505
1568.22,0.200106,444181,280191
1571.27,0.199817,436947,275811
1574.32,0.199115,429598,271611
1577.36,0.197716,422039,267693
1580.4,0.195605,414375,264112
1583.43,0.197733,406354,257734
1586.46,0.192115,398475,256027
1590.49,0.189423,388982,251482
1593.51,0.188196,380708,246829
1596.53,0.185549,372727,243132
1599.54,0.183429,365060,239296
1602.55,0.181614,357543,235350
1605.55,0.177998,349495,231976
1608.55,0.177116,341154,226900
1612.54,0.175406,330877,220933
1615.53,0.171858,322904,217378
1618.51,0.171056,315116,212527
1621.49,0.170392,307217,207517
1624.47,0.168989,299481,202946
1627.44,0.167905,292112,198447
1630.41,0.166424,284245,193762
1634.36,0.165774,274079,187112
1637.32,0.163746,266916,183075
1640.27,0.163458,259612,178183
1643.22,0.162653,251804,173145
1646.16,0.162948,244348,167904
1649.1,0.161702,236703,163118
1652.04,0.159832,228171,157917
1655.95,0.158464,215408,149554
1658.88,0.153318,204937,143980
1661.8,0.148180,193395,137488
1664.72,0.143269,179728,129225
1667.63,0.131864,163642,120790
1670.54,0.120662,146312,110820
1673.44,0.106753,128451,100458
1677.31,0.088560,105080,85696
1680.21,0.082325,88906,73554
1683.1,0.076408,75033,62928
1685.99,0.080696,63520,52749
1688.87,0.081474,53714,44526
1691.75,0.092008,45653,36937
1694.62,0.099032,39137,31157
1697.49,0.098549,33776,26919
1701.31,0.112644,28175,21738

File: Column 1_050569_20150331_120847.csv
Method:,Column 1,,
Host Date-Time:,31/3/15 @ 12:8:47,,
Header Version:,1,,
System Temp (C):,34.01,,
Detector Temp (C):,33.99,,
Humidity (%):,1.76,,
Lamp PD:,3818,,
Shift Vector Coefficients:,-10.5391,0.0761263,-0.000134223,,
Pixel to Wavelength Coefficients:,1775.68,-0.916766,-0.000235065,,
Serial Number:,5510004,,
Scan Config Name:,Column 1,,
Scan Config Type:,Slew,,
Section 1,,
Start wavelength (nm):,900,,
End wavelength (nm):,1700,,
Pattern Pixel Width (nm):,   7.03,,,,
Exposure (ms):,  0.635,,,,
Digital Resolution:,228,,
Num Repeats:,6,,
PGA Gain:,64,,
Total Measurement Time in sec:,  2.669,,
Wavelength (nm),Absorbance (AU),Reference Signal (unitless),Sample Signal (unitless)
901.51,0.035196,108485,100040
905.376,0.040953,121306,110390
909.237,0.042097,131909,119723
913.095,0.045028,143299,129186
916.948,0.045483,156982,141373
922.079,0.047728,179937,161210
925.923,0.048068,200504,179496
929.762,0.048962,222660,198921
933.597,0.049402,244426,218145
937.427,0.048357,263972,236157
941.254,0.048741,281845,251924
945.076,0.047892,297271,266232
950.165,0.046899,315605,283299
953.978,0.046192,328029,294931
957.786,0.046431,340470,305948
961.59,0.047227,352317,316014
965.389,0.046780,363056,325982
969.185,0.047082,373162,334823
972.976,0.047485,382632,343002
976.763,0.048478,391202,349883
981.806,0.048474,400190,357925
985.583,0.049355,406088,362464
989.355,0.049764,410162,365756
993.124,0.050400,412868,367630
996.888,0.050934,414263,368419
1000.65,0.051357,415476,369138
1004.4,0.053039,415479,367714
1009.41,0.054239,414358,365710
1013.15,0.054947,412923,363850
1016.89,0.055557,411526,362110
1020.63,0.055139,409066,360292
1024.36,0.054971,406777,358414
1028.09,0.054960,404427,356353
1031.82,0.055232,401911,353914
1036.78,0.054621,398410,351325
1040.49,0.053665,396204,350150
1044.2,0.054097,394236,348064
1047.91,0.053569,392042,346548
1051.61,0.052638,389823,345326
1055.31,0.051940,388234,344472
1059,0.051625,387599,344158
1063.92,0.050115,386688,344545
1067.61,0.049831,386598,344690
1071.29,0.049118,387377,345952
1074.96,0.048299,388536,347642
1078.63,0.048155,389855,348938
1082.3,0.047197,391215,350928
1085.96,0.046889,393215,352973
1090.84,0.046018,396270,356429
1094.49,0.046187,398760,358529
1098.14,0.045137,400987,361404
1101.79,0.045257,403477,363548
1105.43,0.045167,406116,366002
1109.06,0.044367,407701,368108
1112.7,0.044650,409859,369815
1117.53,0.044087,412494,372675
1121.15,0.045537,414909,373608
1124.77,0.046072,416559,374632
1128.38,0.046640,418532,375914
1131.99,0.048092,419956,375934
1135.6,0.049907,421946,376140
1139.2,0.052107,423881,375956
1143.99,0.054588,426786,376376
1147.58,0.055294,428617,377377
1151.17,0.056333,431169,378717
1154.75,0.058062,433579,379320
1158.33,0.059178,436264,380690
1161.91,0.061423,439132,381217
1165.48,0.063826,442389,381925
1169.04,0.066960,446101,382361
1173.79,0.070123,451929,384545
1177.34,0.071846,456026,386495
1180.9,0.075146,461306,388010
1184.44,0.076781,467657,391874
1187.99,0.077708,473969,396316
1191.52,0.077497,479856,401434
1195.06,0.077037,487372,408154
1199.76,0.075986,497347,417516
1203.29,0.075486,504311,423850
1206.81,0.074449,511507,430926
1210.33,0.073947,519078,437810
1213.84,0.073090,527163,445507
1217.35,0.072141,534208,452449
1220.85,0.071173,540472,458776
1225.51,0.070535,549929,467489
1229.01,0.070469,556888,473477
1232.5,0.069232,562180,479340
1235.98,0.069151,567975,484371
1239.46,0.067395,574815,492190
1242.94,0.066036,582782,500576
1246.41,0.066179,591476,507877
1251.03,0.065837,604016,519053
1254.5,0.066189,612289,525736
1257.96,0.066519,619125,531201
1261.41,0.067136,624551,535096
1264.86,0.067637,629900,539057
1268.31,0.068168,634345,542198
1271.75,0.069095,638574,544648
1276.33,0.069450,642499,547548
1279.76,0.069477,645905,550417
1283.19,0.068440,648307,553784
1286.61,0.068403,650446,555659
1290.03,0.067712,652132,557986
1293.44,0.067324,653907,560005
1296.85,0.067299,655963,561798
1301.39,0.067019,657349,563348
1304.8,0.067042,657558,563498
1308.19,0.067083,658515,564264
1311.58,0.067194,658804,564368
1314.97,0.067963,659011,563546
1318.36,0.068294,658272,562485
1321.73,0.068675,658022,561779
1326.23,0.069661,657870,560376
1329.6,0.070454,656482,558173
1332.97,0.071522,654926,555482
1336.33,0.072374,653727,553379
1339.69,0.074344,652497,549838
1343.04,0.076256,649913,545255
1346.39,0.078080,647671,541096
1349.73,0.079969,645338,536807
1354.18,0.083247,641175,529334
1357.52,0.085628,638376,524142
1360.85,0.087884,635805,519326
1364.17,0.090171,633413,514655
1367.49,0.092873,631026,509535
1370.81,0.095535,628050,504033
1374.12,0.097539,625034,499304
1378.54,0.101121,620272,491429
1381.84,0.104443,616892,485027
1385.14,0.108154,613613,478344
1388.43,0.111986,611526,472530
1391.72,0.117045,610663,466398
1395.01,0.122171,610634,460903
1398.29,0.127160,611700,456434
1402.66,0.133995,614051,451034
1405.93,0.140366,616268,446071
1409.2,0.145201,617795,442225
1412.46,0.150135,618872,437992
1415.72,0.154757,619795,434001
1418.98,0.158833,620495,430433
1422.23,0.162413,621087,427306
1426.56,0.166565,621375,423437
1429.8,0.169572,621616,420678
1433.04,0.172080,622129,418601
1436.27,0.174463,621526,415907
1439.5,0.176744,621113,413453
1442.72,0.179225,620921,410971
1445.94,0.181644,620270,408260
1450.23,0.185734,618860,403514
1453.44,0.188271,617697,400410
1456.64,0.191716,616264,396324
1459.85,0.194365,614413,392731
1463.04,0.197319,612307,388732
1466.24,0.200857,610032,384145
1469.43,0.204073,607345,379632
1473.67,0.210053,603789,372248
1476.85,0.216409,601175,365251
1480.02,0.223079,597737,357628
1483.19,0.229470,594479,350483
1486.36,0.235594,591232,343688
1489.52,0.240824,587853,337633
1492.68,0.244109,583875,332821
1496.89,0.246872,578062,327418
1500.03,0.248111,574159,324281
1503.18,0.247526,570285,322527
1506.32,0.246952,565444,320212
1509.45,0.245764,560571,318322
1512.58,0.244545,555821,316512
1515.71,0.241680,550344,315467
1519.87,0.238950,543983,313787
1522.99,0.236064,538764,312849
1526.1,0.233124,533692,312009
1529.21,0.229803,527902,310993
1532.32,0.226605,521886,309721
1535.42,0.223647,515888,308254
1538.51,0.220395,509987,307018
1541.6,0.217057,503936,305716
1545.72,0.212709,494694,303129
1548.8,0.209450,488378,301513
1551.88,0.207362,481832,298905
1554.95,0.205147,474989,296167
1558.02,0.202463,467818,293504
1561.08,0.201639,460730,289606
1564.15,0.201670,454170,285462
1568.22,0.199466,444181,280604
1571.27,0.199679,436947,275899
1574.32,0.197755,429598,272463
1577.36,0.197297,422039,267951
1580.4,0.195226,414375,264343
1583.43,0.194362,406354,259742
1586.46,0.192263,398475,255940
1590.49,0.189455,388982,251463
1593.51,0.188016,380708,246931
1596.53,0.184985,372727,243448
1599.54,0.183148,365060,239451
1602.55,0.180849,357543,235765
1605.55,0.178333,349495,231797
1608.55,0.176751,341154,227091
1612.54,0.173962,330877,221669
1615.53,0.172342,322904,217136
1618.51,0.172114,315116,212010
1621.49,0.170302,307217,207560
1624.47,0.169104,299481,202892
1627.44,0.167931,292112,198435
1630.41,0.166216,284245,193855
1634.36,0.164951,274079,187467
1637.32,0.163582,266916,183144
1640.27,0.163980,259612,177969
1643.22,0.161250,251804,173705
1646.16,0.161095,244348,168622
1649.1,0.160455,236703,163587
1652.04,0.158791,228171,158296
1655.95,0.155696,215408,150510
1658.88,0.151858,204937,144465
1661.8,0.148465,193395,137398
1664.72,0.141840,179728,129651
1667.63,0.131911,163642,120777
1670.54,0.120070,146312,110971
1673.44,0.105182,128451,100822
1677.31,0.089463,105080,85518
1680.21,0.080322,88906,73894
1683.1,0.077791,75033,62728
1685.99,0.081405,63520,52663
1688.87,0.087168,53714,43946
1691.75,0.091749,45653,36959
1694.62,0.093932,39137,31525
1697.49,0.096891,33776,27022
1701.31,0.108984,28175,21922

File: Column 1_050569_20150331_120849.csv
Method:,Column 1,,
Host Date-Time:,31/3/15 @ 12:8:49,,
Header Version:,1,,
System Temp (C):,34.05,,
Detector Temp (C):,34.02,,
Humidity (%):,1.76,,
Lamp PD:,3818,,
Shift Vector Coefficients:,-10.5391,0.0761263,-0.000134223,,
Pixel to Wavelength Coefficients:,1775.68,-0.916766,-0.000235065,,
Serial Number:,5510004,,
Scan Config Name:,Column 1,,
Scan Config Type:,Slew,,
Section 1,,
Start wavelength (nm):,900,,
End wavelength (nm):,1700,,
Pattern Pixel Width (nm):,   7.03,,,,
Exposure (ms):,  0.635,,,,
Digital Resolution:,228,,
Num Repeats:,6,,
PGA Gain:,64,,
Total Measurement Time in sec:,  2.675,,
Wavelength (nm),Absorbance (AU),Reference Signal (unitless),Sample Signal (unitless)
901.51,0.034671,108485,100161
905.376,0.038962,121306,110897
909.237,0.042859,131909,119513
913.095,0.044292,143299,129405
916.948,0.045357,156982,141414
922.079,0.047061,179937,161458
925.923,0.048315,200504,179394
929.762,0.048831,222660,198981
933.597,0.049767,244426,217962
937.427,0.047921,263972,236394
941.254,0.048484,281845,252073
945.076,0.046843,297271,266876
950.165,0.047390,315605,282979
953.978,0.046871,328029,294470
957.786,0.046580,340470,305843
961.59,0.046058,352317,316866
965.389,0.046885,363056,325903
969.185,0.046956,373162,334920
972.976,0.047762,382632,342783
976.763,0.048344,391202,349991
981.806,0.048588,400190,357831
985.583,0.049370,406088,362452
989.355,0.049713,410162,365799
993.124,0.050268,412868,367742
996.888,0.050908,414263,368441
1000.65,0.051790,415476,368770
1004.4,0.052354,415479,368294
1009.41,0.053994,414358,365916
1013.15,0.054854,412923,363928
1016.89,0.055124,411526,362471
1020.63,0.055262,409066,360190
1024.36,0.055085,406777,358320
1028.09,0.054641,404427,356615
1031.82,0.054655,401911,354385
1036.78,0.054005,398410,351824
1040.49,0.054000,396204,349880
1044.2,0.053996,394236,348145
1047.91,0.052769,392042,347187
1051.61,0.052743,389823,345243
1055.31,0.052110,388234,344337
1059,0.051901,387599,343939
1063.92,0.050785,386688,344014
1067.61,0.049752,386598,344753
1071.29,0.049531,387377,345623
1074.96,0.048900,388536,347161
1078.63,0.048461,389855,348692
1082.3,0.047314,391215,350834
1085.96,0.046628,393215,353185
1090.84,0.046252,396270,356237
1094.49,0.045954,398760,358722
1098.14,0.044793,400987,361691
1101.79,0.045148,403477,363639
1105.43,0.044709,406116,366388
1109.06,0.044383,407701,368094
1112.7,0.044584,409859,369871
1117.53,0.044582,412494,372251
1121.15,0.045307,414909,373806
1124.77,0.045970,416559,374720
1128.38,0.046974,418532,375625
1131.99,0.047850,419956,376144
1135.6,0.050176,421946,375907
1139.2,0.051793,423881,376228
1143.99,0.054108,426786,376792
1147.58,0.054972,428617,377657
1151.17,0.056304,431169,378742
1154.75,0.057736,433579,379605
1158.33,0.059439,436264,380461
1161.91,0.061441,439132,381201
1165.48,0.063972,442389,381797
1169.04,0.066475,446101,382788
1173.79,0.070444,451929,384261
1177.34,0.072931,456026,385530
1180.9,0.075358,461306,387821
1184.44,0.076948,467657,391723
1187.99,0.077425,473969,396575
1191.52,0.077563,479856,401373
1195.06,0.076942,487372,408243
1199.76,0.076184,497347,417326
1203.29,0.075259,504311,424072
1206.81,0.074654,511507,430723
1210.33,0.074104,519078,437652
1213.84,0.073178,527163,445417
1217.35,0.072054,534208,452539
1220.85,0.071293,540472,458649
1225.51,0.070646,549929,467370
1229.01,0.069950,556888,474043
1232.5,0.068963,562180,479637
1235.98,0.068579,567975,485009
1239.46,0.067873,574815,491649
1242.94,0.066633,582782,499888
1246.41,0.065635,591476,508513
1251.03,0.065729,604016,519182
1254.5,0.066105,612289,525837
1257.96,0.066729,619125,530945
1261.41,0.066954,624551,535321
1264.86,0.067793,629900,538863
1268.31,0.068231,634345,542119
1271.75,0.069209,638574,544506
1276.33,0.069440,642499,547561
1279.76,0.068967,645905,551063
1283.19,0.068332,648307,553922
1286.61,0.068434,650446,555619
1290.03,0.067743,652132,557947
1293.44,0.067398,653907,559910
1296.85,0.067420,655963,561642
1301.39,0.066673,657349,563797
1304.8,0.066596,657558,564077
1308.19,0.067003,658515,564369
1311.58,0.067238,658804,564311
1314.97,0.068102,659011,563366
1318.36,0.068174,658272,562641
1321.73,0.068594,658022,561884
1326.23,0.070069,657870,559849
1329.6,0.070353,656482,558303
1332.97,0.071444,654926,555582
1336.33,0.072438,653727,553297
1339.69,0.074277,652497,549922
1343.04,0.076229,649913,545288
1346.39,0.078181,647671,540970
1349.73,0.080416,645338,536255
1354.18,0.083578,641175,528930
1357.52,0.086231,638376,523414
1360.85,0.088398,635805,518712
1364.17,0.090582,633413,514168
1367.49,0.092558,631026,509905
1370.81,0.095072,628050,504571
1374.12,0.097848,625034,498948
1378.54,0.100652,620272,491961
1381.84,0.103940,616892,485589
1385.14,0.108048,613613,478461
1388.43,0.112593,611526,471870
1391.72,0.116998,610663,466448
1395.01,0.121564,610634,461548
1398.29,0.126726,611700,456891
1402.66,0.133754,614051,451285
1405.93,0.139703,616268,446752
1409.2,0.145172,617795,442255
1412.46,0.150750,618872,437372
1415.72,0.154965,619795,433794
1418.98,0.158878,620495,430388
1422.23,0.162418,621087,427302
1426.56,0.166555,621375,423447
1429.8,0.169134,621616,421103
1433.04,0.172238,622129,418449
1436.27,0.174318,621526,416046
1439.5,0.176403,621113,413778
1442.72,0.179223,620921,410973
1445.94,0.181532,620270,408365
1450.23,0.185392,618860,403832
1453.44,0.188401,617697,400290
1456.64,0.191577,616264,396451
1459.85,0.194750,614413,392383
1463.04,0.197042,612307,388980
1466.24,0.200660,610032,384320
1469.43,0.204606,607345,379166
1473.67,0.210676,603789,371714
1476.85,0.216217,601175,365413
1480.02,0.221807,597737,358677
1483.19,0.229631,594479,350353
1486.36,0.235124,591232,344060
1489.52,0.240785,587853,337663
1492.68,0.244852,583875,332252
1496.89,0.247378,578062,327037
1500.03,0.247712,574159,324579
1503.18,0.247723,570285,322381
1506.32,0.247009,565444,320170
1509.45,0.246083,560571,318088
1512.58,0.243967,555821,316933
1515.71,0.241576,550344,315543
1519.87,0.238620,543983,314026
1522.99,0.235325,538764,313382
1526.1,0.233530,533692,311717
1529.21,0.229794,527902,310999
1532.32,0.226949,521886,309476
1535.42,0.224046,515888,307971
1538.51,0.220312,509987,307077
1541.6,0.217411,503936,305467
1545.72,0.212888,494694,303004
1548.8,0.209637,488378,301383
1551.88,0.207647,481832,298709
1554.95,0.204918,474989,296323
1558.02,0.203036,467818,293117
1561.08,0.201526,460730,289681
1564.15,0.201906,454170,285307
1568.22,0.200264,444181,280089
1571.27,0.199726,436947,275869
1574.32,0.198077,429598,272261
1577.36,0.196648,422039,268352
1580.4,0.194988,414375,264488
1583.43,0.193529,406354,260241
1586.46,0.192399,398475,255860
1590.49,0.190240,388982,251009
1593.51,0.187426,380708,247267
1596.53,0.186028,372727,242864
1599.54,0.183240,365060,239400
1602.55,0.181291,357543,235525
1605.55,0.178809,349495,231543
1608.55,0.176523,341154,227210
1612.54,0.174923,330877,221179
1615.53,0.171992,322904,217311
1618.51,0.171592,315116,212265
1621.49,0.171462,307217,207006
1624.47,0.167963,299481,203426
1627.44,0.167494,292112,198635
1630.41,0.165755,284245,194061
1634.36,0.164287,274079,187754
1637.32,0.163366,266916,183235
1640.27,0.163317,259612,178241
1643.22,0.161135,251804,173751
1646.16,0.160690,244348,168779
1649.1,0.161047,236703,163364
1652.04,0.159548,228171,158020
1655.95,0.157116,215408,150019
1658.88,0.152902,204937,144118
1661.8,0.149725,193395,137000
1664.72,0.141977,179728,129610
1667.63,0.131300,163642,120947
1670.54,0.119105,146312,111218
1673.44,0.105768,128451,100686
1677.31,0.087486,105080,85908
1680.21,0.082437,88906,73535
1683.1,0.078789,75033,62584
1685.99,0.081908,63520,52602
1688.87,0.083488,53714,44320
1691.75,0.089873,45653,37119
1694.62,0.096004,39137,31375
1697.49,0.107317,33776,26381
1701.31,0.112724,28175,21734