Folder: textile_sorting_NIRSCAN_/samples/wool/wool-000811 (part 97)

File: Column 1_050584_20150331_121556.csv
Method:,Column 1,,
Host Date-Time:,31/3/15 @ 12:15:56,,
Header Version:,1,,
System Temp (C):,33.78,,
Detector Temp (C):,34.52,,
Humidity (%):,1.86,,
Lamp PD:,3819,,
Shift Vector Coefficients:,-10.5391,0.0761263,-0.000134223,,
Pixel to Wavelength Coefficients:,1775.68,-0.916766,-0.000235065,,
Serial Number:,5510004,,
Scan Config Name:,Column 1,,
Scan Config Type:,Slew,,
Section 1,,
Start wavelength (nm):,900,,
End wavelength (nm):,1700,,
Pattern Pixel Width (nm):,   7.03,,,,
Exposure (ms):,  0.635,,,,
Digital Resolution:,228,,
Num Repeats:,6,,
PGA Gain:,64,,
Total Measurement Time in sec:,  2.675,,
Wavelength (nm),Absorbance (AU),Reference Signal (unitless),Sample Signal (unitless)
901.51,0.069050,108485,92538
905.376,0.076869,121306,101628
909.237,0.077931,131909,110241
913.095,0.080109,143299,119161
916.948,0.077648,156982,131281
922.079,0.080988,179937,149325
925.923,0.081965,200504,166019
929.762,0.083171,222660,183853
933.597,0.082216,244426,202270
937.427,0.081896,263972,218606
941.254,0.081149,281845,233809
945.076,0.081355,297271,246489
950.165,0.079198,315605,262994
953.978,0.078836,328029,273575
957.786,0.079676,340470,283402
961.59,0.079540,352317,293355
965.389,0.079263,363056,302490
969.185,0.079563,373162,310695
972.976,0.080189,382632,318121
976.763,0.080526,391202,324994
981.806,0.080762,400190,332280
985.583,0.081022,406088,336975
989.355,0.081662,410162,339855
993.124,0.082151,412868,341712
996.888,0.082546,414263,342555
1000.65,0.084101,415476,342330
1004.4,0.084419,415479,342082
1009.41,0.086137,414358,339812
1013.15,0.085915,412923,338808
1016.89,0.086934,411526,336871
1020.63,0.085739,409066,335780
1024.36,0.087079,406777,332872
1028.09,0.086312,404427,331534
1031.82,0.087116,401911,328862
1036.78,0.086318,398410,326597
1040.49,0.085877,396204,325119
1044.2,0.085936,394236,323460
1047.91,0.085471,392042,322004
1051.61,0.085469,389823,320183
1055.31,0.084691,388234,319450
1059,0.084757,387599,318879
1063.92,0.083652,386688,318940
1067.61,0.083608,386598,318898
1071.29,0.083409,387377,319687
1074.96,0.081810,388536,321826
1078.63,0.081819,389855,322912
1082.3,0.080738,391215,324846
1085.96,0.080112,393215,326978
1090.84,0.078860,396270,330469
1094.49,0.078406,398760,332894
1098.14,0.078010,400987,335058
1101.79,0.077285,403477,337702
1105.43,0.077680,406116,339602
1109.06,0.076697,407701,341700
1112.7,0.076193,409859,343907
1117.53,0.076039,412494,346241
1121.15,0.076147,414909,348182
1124.77,0.076528,416559,349260
1128.38,0.077860,418532,349839
1131.99,0.078484,419956,350526
1135.6,0.080005,421946,350955
1139.2,0.081776,423881,351130
1143.99,0.083581,426786,352070
1147.58,0.084327,428617,352974
1151.17,0.085385,431169,354211
1154.75,0.086440,433579,355327
1158.33,0.088053,436264,356202
1161.91,0.089669,439132,357212
1165.48,0.092054,442389,357891
1169.04,0.094122,446101,359179
1173.79,0.097443,451929,361100
1177.34,0.098725,456026,363299
1180.9,0.101310,461306,365325
1184.44,0.103002,467657,368914
1187.99,0.104092,473969,372956
1191.52,0.103731,479856,377903
1195.06,0.103732,487372,383821
1199.76,0.103558,497347,391833
1203.29,0.103094,504311,397745
1206.81,0.102107,511507,404338
1210.33,0.101548,519078,410851
1213.84,0.100935,527163,417840
1217.35,0.100421,534208,423925
1220.85,0.099662,540472,429646
1225.51,0.099400,549929,437428
1229.01,0.098483,556888,443900
1232.5,0.098015,562180,448601
1235.98,0.097475,567975,453789
1239.46,0.096213,574815,460591
1242.94,0.095508,582782,467733
1246.41,0.094897,591476,475379
1251.03,0.094793,604016,485574
1254.5,0.095112,612289,491863
1257.96,0.095348,619125,497085
1261.41,0.095785,624551,500937
1264.86,0.095821,629900,505185
1268.31,0.096616,634345,507820
1271.75,0.097415,638574,510266
1276.33,0.097824,642499,512919
1279.76,0.097714,645905,515768
1283.19,0.096895,648307,518663
1286.61,0.096894,650446,520376
1290.03,0.096572,652132,522112
1293.44,0.095990,653907,524235
1296.85,0.096020,655963,525847
1301.39,0.095588,657349,527483
1304.8,0.095848,657558,527334
1308.19,0.096044,658515,527863
1311.58,0.095778,658804,528419
1314.97,0.096348,659011,527892
1318.36,0.096809,658272,526740
1321.73,0.097384,658022,525843
1326.23,0.098210,657870,524723
1329.6,0.098982,656482,522686
1332.97,0.100005,654926,520220
1336.33,0.101479,653727,517508
1339.69,0.103078,652497,514637
1343.04,0.104545,649913,510870
1346.39,0.106473,647671,506852
1349.73,0.108477,645338,502702
1354.18,0.111841,641175,495605
1357.52,0.113594,638376,491454
1360.85,0.115552,635805,487273
1364.17,0.117825,633413,482905
1367.49,0.119955,631026,478732
1370.81,0.121778,628050,474478
1374.12,0.124175,625034,469601
1378.54,0.127303,620272,462678
1381.84,0.130584,616892,456694
1385.14,0.134204,613613,450496
1388.43,0.138018,611526,445038
1391.72,0.143515,610663,438820
1395.01,0.147884,610634,434407
1398.29,0.152947,611700,430122
1402.66,0.160201,614051,424623
1405.93,0.165861,616268,420638
1409.2,0.170995,617795,416725
1412.46,0.176355,618872,412331
1415.72,0.180594,619795,408935
1418.98,0.184664,620495,405578
1422.23,0.188225,621087,402650
1426.56,0.192440,621375,398946
1429.8,0.194394,621616,397309
1433.04,0.197963,622129,394382
1436.27,0.199711,621526,392417
1439.5,0.201698,621113,390367
1442.72,0.204289,620921,387925
1445.94,0.206702,620270,385371
1450.23,0.209838,618860,381728
1453.44,0.212320,617697,378840
1456.64,0.215135,616264,375519
1459.85,0.217908,614413,372008
1463.04,0.220639,612307,368409
1466.24,0.223621,610032,364529
1469.43,0.226672,607345,360382
1473.67,0.232180,603789,353757
1476.85,0.237085,601175,348270
1480.02,0.241864,597737,342489
1483.19,0.247978,594479,335860
1486.36,0.252902,591232,330260
1489.52,0.257674,587853,324784
1492.68,0.260444,583875,320535
1496.89,0.262210,578062,316056
1500.03,0.262702,574159,313567
1503.18,0.262773,570285,311400
1506.32,0.261492,565444,309669
1509.45,0.260276,560571,307861
1512.58,0.258643,555821,306402
1515.71,0.256780,550344,304687
1519.87,0.254352,543983,302854
1522.99,0.251776,538764,301733
1526.1,0.248840,533692,300920
1529.21,0.245649,527902,299850
1532.32,0.243142,521886,298149
1535.42,0.240317,515888,296646
1538.51,0.237574,509987,295111
1541.6,0.234656,503936,293575
1545.72,0.230639,494694,290869
1548.8,0.227981,488378,288918
1551.88,0.225650,481832,286580
1554.95,0.223515,474989,283902
1558.02,0.221395,467818,280984
1561.08,0.219335,460730,278043
1564.15,0.219766,454170,273812
1568.22,0.219498,444181,267955
1571.27,0.218103,436947,264439
1574.32,0.216860,429598,260737
1577.36,0.216142,422039,256573
1580.4,0.214586,414375,252818
1583.43,0.213227,406354,248701
1586.46,0.211957,398475,244593
1590.49,0.209194,388982,240290
1593.51,0.207986,380708,235834
1596.53,0.205258,372727,232345
1599.54,0.203719,365060,228373
1602.55,0.202038,357543,224538
1605.55,0.199314,349495,220865
1608.55,0.198024,341154,216235
1612.54,0.194837,330877,211266
1615.53,0.193594,322904,206766
1618.51,0.192913,315116,202096
1621.49,0.191850,307217,197513
1624.47,0.190603,299481,193093
1627.44,0.189538,292112,188804
1630.41,0.188736,284245,184059
1634.36,0.186907,274079,178225
1637.32,0.187278,266916,173419
1640.27,0.186587,259612,168942
1643.22,0.182995,251804,165222
1646.16,0.184000,244348,159959
1649.1,0.182920,236703,155340
1652.04,0.180349,228171,150630
1655.95,0.177191,215408,143242
1658.88,0.174257,204937,137203
1661.8,0.168959,193395,131065
1664.72,0.161516,179728,123908
1667.63,0.149384,163642,116014
1670.54,0.137629,146312,106574
1673.44,0.120933,128451,97231
1677.31,0.102447,105080,82999
1680.21,0.088365,88906,72538
1683.1,0.087473,75033,61345
1685.99,0.085065,63520,52221
1688.87,0.087821,53714,43880
1691.75,0.090775,45653,37042
1694.62,0.099185,39137,31146
1697.49,0.102357,33776,26684
1701.31,0.105197,28175,22114

File: Column 1_050584_20150331_121602.csv
Method:,Column 1,,
Host Date-Time:,31/3/15 @ 12:16:2,,
Header Version:,1,,
System Temp (C):,33.78,,
Detector Temp (C):,34.54,,
Humidity (%):,1.91,,
Lamp PD:,3819,,
Shift Vector Coefficients:,-10.5391,0.0761263,-0.000134223,,
Pixel to Wavelength Coefficients:,1775.68,-0.916766,-0.000235065,,
Serial Number:,5510004,,
Scan Config Name:,Column 1,,
Scan Config Type:,Slew,,
Section 1,,
Start wavelength (nm):,900,,
End wavelength (nm):,1700,,
Pattern Pixel Width (nm):,   7.03,,,,
Exposure (ms):,  0.635,,,,
Digital Resolution:,228,,
Num Repeats:,6,,
PGA Gain:,64,,
Total Measurement Time in sec:,  2.721,,
Wavelength (nm),Absorbance (AU),Reference Signal (unitless),Sample Signal (unitless)
901.51,0.069858,108485,92366
905.376,0.076630,121306,101684
909.237,0.079166,131909,109928
913.095,0.079217,143299,119406
916.948,0.080306,156982,130480
922.079,0.083116,179937,148595
925.923,0.082921,200504,165654
929.762,0.082987,222660,183931
933.597,0.083663,244426,201597
937.427,0.082423,263972,218341
941.254,0.081787,281845,233466
945.076,0.081214,297271,246569
950.165,0.080518,315605,262196
953.978,0.079635,328029,273072
957.786,0.079949,340470,283224
961.59,0.079964,352317,293069
965.389,0.080043,363056,301947
969.185,0.079376,373162,310829
972.976,0.080178,382632,318129
976.763,0.080835,391202,324763
981.806,0.081441,400190,331761
985.583,0.082192,406088,336069
989.355,0.082579,410162,339138
993.124,0.082745,412868,341245
996.888,0.083385,414263,341894
1000.65,0.084100,415476,342331
1004.4,0.085356,415479,341345
1009.41,0.086849,414358,339255
1013.15,0.086539,412923,338322
1016.89,0.087500,411526,336432
1020.63,0.087287,409066,334585
1024.36,0.087488,406777,332559
1028.09,0.086594,404427,331319
1031.82,0.087203,401911,328796
1036.78,0.086758,398410,326266
1040.49,0.086064,396204,324979
1044.2,0.086647,394236,322931
1047.91,0.085753,392042,321795
1051.61,0.085834,389823,319914
1055.31,0.085427,388234,318909
1059,0.085048,387599,318665
1063.92,0.084382,386688,318404
1067.61,0.083150,386598,319234
1071.29,0.083189,387377,319849
1074.96,0.082566,388536,321266
1078.63,0.081971,389855,322799
1082.3,0.081426,391215,324332
1085.96,0.080622,393215,326594
1090.84,0.079704,396270,329828
1094.49,0.079363,398760,332161
1098.14,0.078730,400987,334503
1101.79,0.077837,403477,337273
1105.43,0.077794,406116,339513
1109.06,0.077239,407701,341274
1112.7,0.076320,409859,343807
1117.53,0.076280,412494,346049
1121.15,0.076736,414909,347710
1124.77,0.077551,416559,348438
1128.38,0.077849,418532,349848
1131.99,0.078930,419956,350166
1135.6,0.080196,421946,350801
1139.2,0.082311,423881,350698
1143.99,0.083842,426786,351859
1147.58,0.084887,428617,352519
1151.17,0.085469,431169,354143
1154.75,0.087229,433579,354682
1158.33,0.088159,436264,356115
1161.91,0.090203,439132,356773
1165.48,0.092487,442389,357534
1169.04,0.094198,446101,359116
1173.79,0.097999,451929,360638
1177.34,0.099865,456026,362347
1180.9,0.102145,461306,364623
1184.44,0.103285,467657,368674
1187.99,0.104659,473969,372470
1191.52,0.104253,479856,377449
1195.06,0.104246,487372,383367
1199.76,0.103771,497347,391641
1203.29,0.102638,504311,398163
1206.81,0.102628,511507,403853
1210.33,0.101843,519078,410572
1213.84,0.101247,527163,417540
1217.35,0.100678,534208,423675
1220.85,0.100027,540472,429285
1225.51,0.099568,549929,437259
1229.01,0.098737,556888,443640
1232.5,0.098104,562180,448509
1235.98,0.097694,567975,453561
1239.46,0.096498,574815,460288
1242.94,0.095782,582782,467438
1246.41,0.094883,591476,475395
1251.03,0.094773,604016,485596
1254.5,0.095258,612289,491698
1257.96,0.095519,619125,496889
1261.41,0.096464,624551,500154
1264.86,0.096641,629900,504232
1268.31,0.096982,634345,507392
1271.75,0.097762,638574,509858
1276.33,0.098096,642499,512598
1279.76,0.098028,645905,515395
1283.19,0.097576,648307,517851
1286.61,0.097272,650446,519923
1290.03,0.097284,652132,521257
1293.44,0.095936,653907,524300
1296.85,0.096241,655963,525579
1301.39,0.096057,657349,526913
1304.8,0.096076,657558,527058
1308.19,0.096425,658515,527401
1311.58,0.096180,658804,527930
1314.97,0.097162,659011,526903
1318.36,0.097419,658272,526001
1321.73,0.097728,658022,525427
1326.23,0.098669,657870,524169
1329.6,0.099680,656482,521847
1332.97,0.100427,654926,519715
1336.33,0.101600,653727,517364
1339.69,0.103268,652497,514411
1343.04,0.104703,649913,510684
1346.39,0.107099,647671,506122
1349.73,0.108580,645338,502582
1354.18,0.111696,641175,495770
1357.52,0.113777,638376,491247
1360.85,0.115873,635805,486912
1364.17,0.117824,633413,482906
1367.49,0.120061,631026,478615
1370.81,0.122291,628050,473918
1374.12,0.124285,625034,469482
1378.54,0.127439,620272,462534
1381.84,0.130860,616892,456404
1385.14,0.134320,613613,450375
1388.43,0.138753,611526,444285
1391.72,0.143323,610663,439014
1395.01,0.148079,610634,434212
1398.29,0.153119,611700,429952
1402.66,0.160285,614051,424541
1405.93,0.166303,616268,420210
1409.2,0.171156,617795,416570
1412.46,0.176577,618872,412120
1415.72,0.180627,619795,408904
1418.98,0.184792,620495,405458
1422.23,0.188146,621087,402723
1426.56,0.192247,621375,399123
1429.8,0.195080,621616,396682
1433.04,0.198178,622129,394187
1436.27,0.200159,621526,392013
1439.5,0.202305,621113,389821
1442.72,0.204153,620921,388046
1445.94,0.206871,620270,385221
1450.23,0.210437,618860,381202
1453.44,0.212714,617697,378496
1456.64,0.215738,616264,374998
1459.85,0.218386,614413,371599
1463.04,0.220782,612307,368288
1466.24,0.223556,610032,364583
1469.43,0.227222,607345,359926
1473.67,0.232417,603789,353564
1476.85,0.236745,601175,348543
1480.02,0.242198,597737,342225
1483.19,0.248040,594479,335812
1486.36,0.253137,591232,330081
1489.52,0.257594,587853,324844
1492.68,0.260618,583875,320407
1496.89,0.262327,578062,315971
1500.03,0.263180,574159,313222
1503.18,0.262944,570285,311278
1506.32,0.262888,565444,308675
1509.45,0.261197,560571,307209
1512.58,0.259361,555821,305896
1515.71,0.257408,550344,304247
1519.87,0.254316,543983,302879
1522.99,0.252118,538764,301495
1526.1,0.249157,533692,300700
1529.21,0.246605,527902,299191
1532.32,0.244172,521886,297443
1535.42,0.240831,515888,296295
1538.51,0.238058,509987,294782
1541.6,0.235604,503936,292935
1545.72,0.231561,494694,290252
1548.8,0.227063,488378,289530
1551.88,0.225947,481832,286384
1554.95,0.224356,474989,283353
1558.02,0.223096,467818,279886
1561.08,0.220871,460730,277061
1564.15,0.220452,454170,273380
1568.22,0.219009,444181,268257
1571.27,0.218650,436947,264106
1574.32,0.217837,429598,260151
1577.36,0.216824,422039,256170
1580.4,0.214534,414375,252848
1583.43,0.214451,406354,248001
1586.46,0.211703,398475,244736
1590.49,0.209731,388982,239993
1593.51,0.208433,380708,235591
1596.53,0.207110,372727,231356
1599.54,0.203360,365060,228562
1602.55,0.202551,357543,224273
1605.55,0.200785,349495,220118
1608.55,0.198772,341154,215863
1612.54,0.197152,330877,210143
1615.53,0.194543,322904,206315
1618.51,0.192013,315116,202515
1621.49,0.192798,307217,197082
1624.47,0.191242,299481,192809
1627.44,0.190450,292112,188408
1630.41,0.188833,284245,184018
1634.36,0.188673,274079,177502
1637.32,0.187498,266916,173331
1640.27,0.185827,259612,169238
1643.22,0.185082,251804,164430
1646.16,0.185371,244348,159455
1649.1,0.184798,236703,154670
1652.04,0.181458,228171,150246
1655.95,0.178275,215408,142885
1658.88,0.174554,204937,137109
1661.8,0.171718,193395,130235
1664.72,0.162351,179728,123670
1667.63,0.152028,163642,115310
1670.54,0.138155,146312,106445
1673.44,0.122163,128451,96956
1677.31,0.102531,105080,82983
1680.21,0.092057,88906,71924
1683.1,0.089545,75033,61053
1685.99,0.085814,63520,52131
1688.87,0.091229,53714,43537
1691.75,0.094851,45653,36696
1694.62,0.101618,39137,30972
1697.49,0.106971,33776,26402
1701.31,0.114125,28175,21664

File: Column 1_050584_20150331_121605.csv
Method:,Column 1,,
Host Date-Time:,31/3/15 @ 12:16:5,,
Header Version:,1,,
System Temp (C):,33.78,,
Detector Temp (C):,34.51,,
Humidity (%):,1.86,,
Lamp PD:,3819,,
Shift Vector Coefficients:,-10.5391,0.0761263,-0.000134223,,
Pixel to Wavelength Coefficients:,1775.68,-0.916766,-0.000235065,,
Serial Number:,5510004,,
Scan Config Name:,Column 1,,
Scan Config Type:,Slew,,
Section 1,,
Start wavelength (nm):,900,,
End wavelength (nm):,1700,,
Pattern Pixel Width (nm):,   7.03,,,,
Exposure (ms):,  0.635,,,,
Digital Resolution:,228,,
Num Repeats:,6,,
PGA Gain:,64,,
Total Measurement Time in sec:,  2.682,,
Wavelength (nm),Absorbance (AU),Reference Signal (unitless),Sample Signal (unitless)
901.51,0.068196,108485,92720
905.376,0.075678,121306,101907
909.237,0.077050,131909,110465
913.095,0.077409,143299,119904
916.948,0.078784,156982,130938
922.079,0.080415,179937,149522
925.923,0.081312,200504,166269
929.762,0.083595,222660,183674
933.597,0.083414,244426,201713
937.427,0.081818,263972,218645
941.254,0.081127,281845,233821
945.076,0.079679,297271,247442
950.165,0.079581,315605,262762
953.978,0.079766,328029,272990
957.786,0.078499,340470,284171
961.59,0.079423,352317,293434
965.389,0.079333,363056,302441
969.185,0.079151,373162,310990
972.976,0.079616,382632,318541
976.763,0.080228,391202,325217
981.806,0.080450,400190,332519
985.583,0.081666,406088,336476
989.355,0.081393,410162,340065
993.124,0.082267,412868,341621
996.888,0.082432,414263,342645
1000.65,0.083209,415476,343034
1004.4,0.084607,415479,341934
1009.41,0.086023,414358,339901
1013.15,0.085999,412923,338743
1016.89,0.086350,411526,337324
1020.63,0.086405,409066,335265
1024.36,0.086599,406777,333240
1028.09,0.086620,404427,331299
1031.82,0.086307,401911,329475
1036.78,0.085821,398410,326971
1040.49,0.085911,396204,325093
1044.2,0.085591,394236,323717
1047.91,0.085150,392042,322242
1051.61,0.085374,389823,320253
1055.31,0.084468,388234,319614
1059,0.084399,387599,319142
1063.92,0.083413,386688,319115
1067.61,0.083167,386598,319222
1071.29,0.082383,387377,320443
1074.96,0.082125,388536,321593
1078.63,0.081570,389855,323097
1082.3,0.080290,391215,325181
1085.96,0.079693,393215,327293
1090.84,0.079465,396270,330009
1094.49,0.078721,398760,332652
1098.14,0.078399,400987,334758
1101.79,0.077436,403477,337585
1105.43,0.077362,406116,339851
1109.06,0.076623,407701,341758
1112.7,0.076397,409859,343746
1117.53,0.075744,412494,346476
1121.15,0.076684,414909,347751
1124.77,0.076658,416559,349155
1128.38,0.076934,418532,350586
1131.99,0.078352,419956,350632
1135.6,0.080207,421946,350792
1139.2,0.081733,423881,351165
1143.99,0.083100,426786,352460
1147.58,0.084218,428617,353062
1151.17,0.084982,431169,354540
1154.75,0.086634,433579,355168
1158.33,0.088013,436264,356235
1161.91,0.089272,439132,357539
1165.48,0.091819,442389,358084
1169.04,0.093785,446101,359458
1173.79,0.096830,451929,361610
1177.34,0.099468,456026,362678
1180.9,0.101323,461306,365314
1184.44,0.103312,467657,368651
1187.99,0.103965,473969,373065
1191.52,0.103879,479856,377774
1195.06,0.104135,487372,383465
1199.76,0.103422,497347,391956
1203.29,0.102615,504311,398184
1206.81,0.102238,511507,404216
1210.33,0.101561,519078,410839
1213.84,0.100349,527163,418404
1217.35,0.099964,534208,424372
1220.85,0.099935,540472,429376
1225.51,0.098962,549929,437869
1229.01,0.098781,556888,443595
1232.5,0.097817,562180,448806
1235.98,0.097528,567975,453734
1239.46,0.096333,574815,460463
1242.94,0.095610,582782,467623
1246.41,0.094876,591476,475402
1251.03,0.094917,604016,485435
1254.5,0.094934,612289,492065
1257.96,0.095080,619125,497391
1261.41,0.095630,624551,501116
1264.86,0.097488,629900,503250
1268.31,0.096720,634345,507698
1271.75,0.097573,638574,510080
1276.33,0.097361,642499,513466
1279.76,0.097674,645905,515816
1283.19,0.096818,648307,518756
1286.61,0.097133,650446,520090
1290.03,0.096331,652132,522402
1293.44,0.095747,653907,524528
1296.85,0.095720,655963,526210
1301.39,0.095235,657349,527911
1304.8,0.095317,657558,527979
1308.19,0.095804,658515,528155
1311.58,0.095458,658804,528808
1314.97,0.096580,659011,527610
1318.36,0.096899,658272,526631
1321.73,0.097300,658022,525945
1326.23,0.098128,657870,524822
1329.6,0.099270,656482,522339
1332.97,0.100410,654926,519735
1336.33,0.101207,653727,517833
1339.69,0.103397,652497,514258
1343.04,0.104259,649913,511206
1346.39,0.106121,647671,507263
1349.73,0.108347,645338,502852
1354.18,0.111168,641175,496374
1357.52,0.113238,638376,491857
1360.85,0.115386,635805,487459
1364.17,0.117770,633413,482966
1367.49,0.119709,631026,479003
1370.81,0.121637,628050,474632
1374.12,0.124359,625034,469402
1378.54,0.127282,620272,462701
1381.84,0.130298,616892,456995
1385.14,0.134274,613613,450423
1388.43,0.138046,611526,445009
1391.72,0.143118,610663,439222
1395.01,0.147356,610634,434936
1398.29,0.152511,611700,430554
1402.66,0.160246,614051,424579
1405.93,0.165470,616268,421017
1409.2,0.170690,617795,417018
1412.46,0.175702,618872,412951
1415.72,0.180387,619795,409130
1418.98,0.184060,620495,406142
1422.23,0.187788,621087,403055
1426.56,0.192014,621375,399337
1429.8,0.194777,621616,396959
1433.04,0.197308,622129,394978
1436.27,0.199429,621526,392672
1439.5,0.201178,621113,390834
1442.72,0.203749,620921,388407
1445.94,0.206306,620270,385722
1450.23,0.209712,618860,381839
1453.44,0.212637,617697,378563
1456.64,0.214946,616264,375682
1459.85,0.217592,614413,372279
1463.04,0.220085,612307,368879
1466.24,0.223343,610032,364762
1469.43,0.226203,607345,360772
1473.67,0.231547,603789,354273
1476.85,0.237027,601175,348316
1480.02,0.242031,597737,342357
1483.19,0.247398,594479,336309
1486.36,0.252589,591232,330498
1489.52,0.256715,587853,325502
1492.68,0.259562,583875,321187
1496.89,0.261848,578062,316320
1500.03,0.262577,574159,313657
1503.18,0.262294,570285,311744
1506.32,0.261989,565444,309315
1509.45,0.259811,560571,308191
1512.58,0.258672,555821,306382
1515.71,0.256329,550344,305004
1519.87,0.253600,543983,303379
1522.99,0.250738,538764,302455
1526.1,0.248081,533692,301446
1529.21,0.245551,527902,299918
1532.32,0.242759,521886,298412
1535.42,0.240740,515888,296357
1538.51,0.237640,509987,295066
1541.6,0.234884,503936,293421
1545.72,0.230418,494694,291017
1548.8,0.227295,488378,289375
1551.88,0.225136,481832,286919
1554.95,0.223070,474989,284193
1558.02,0.221347,467818,281015
1561.08,0.220174,460730,277506
1564.15,0.219577,454170,273931
1568.22,0.218286,444181,268704
1571.27,0.218501,436947,264197
1574.32,0.216596,429598,260895
1577.36,0.216374,422039,256436
1580.4,0.214354,414375,252953
1583.43,0.212674,406354,249018
1586.46,0.211400,398475,244907
1590.49,0.209161,388982,240308
1593.51,0.207691,380708,235994
1596.53,0.205229,372727,232360
1599.54,0.202914,365060,228797
1602.55,0.200594,357543,225286
1605.55,0.199047,349495,221001
1608.55,0.196909,341154,216791
1612.54,0.195528,330877,210930
1615.53,0.193989,322904,206578
1618.51,0.192881,315116,202111
1621.49,0.190611,307217,198077
1624.47,0.190216,299481,193265
1627.44,0.189987,292112,188609
1630.41,0.187162,284245,184727
1634.36,0.186033,274079,178584
1637.32,0.186522,266916,173721
1640.27,0.186826,259612,168849
1643.22,0.184398,251804,164689
1646.16,0.183360,244348,160195
1649.1,0.181929,236703,155695
1652.04,0.180534,228171,150566
1655.95,0.178391,215408,142847
1658.88,0.173523,204937,137435
1661.8,0.169446,193395,130918
1664.72,0.161481,179728,123918
1667.63,0.148169,163642,116339
1670.54,0.135308,146312,107145
1673.44,0.119070,128451,97649
1677.31,0.100958,105080,83284
1680.21,0.092208,88906,71899
1683.1,0.082567,75033,62042
1685.99,0.084293,63520,52314
1688.87,0.083919,53714,44276
1691.75,0.091867,45653,36949
1694.62,0.096641,39137,31329
1697.49,0.102650,33776,26666
1701.31,0.099771,28175,22392