Folder: textile_sorting_NIRSCAN_/samples/wool/wool-000811 (part 136)

File: Column 1_050607_20150331_122655.csv
Method:,Column 1,,
Host Date-Time:,31/3/15 @ 12:26:55,,
Header Version:,1,,
System Temp (C):,34.04,,
Detector Temp (C):,34.87,,
Humidity (%):,1.66,,
Lamp PD:,3818,,
Shift Vector Coefficients:,-10.5391,0.0761263,-0.000134223,,
Pixel to Wavelength Coefficients:,1775.68,-0.916766,-0.000235065,,
Serial Number:,5510004,,
Scan Config Name:,Column 1,,
Scan Config Type:,Slew,,
Section 1,,
Start wavelength (nm):,900,,
End wavelength (nm):,1700,,
Pattern Pixel Width (nm):,   7.03,,,,
Exposure (ms):,  0.635,,,,
Digital Resolution:,228,,
Num Repeats:,6,,
PGA Gain:,64,,
Total Measurement Time in sec:,  2.673,,
Wavelength (nm),Absorbance (AU),Reference Signal (unitless),Sample Signal (unitless)
901.51,0.069980,108485,92340
905.376,0.073862,121306,102334
909.237,0.077305,131909,110400
913.095,0.078548,143299,119590
916.948,0.080772,156982,130340
922.079,0.080625,179937,149450
925.923,0.082394,200504,165855
929.762,0.082150,222660,184286
933.597,0.081785,244426,202471
937.427,0.080927,263972,219094
941.254,0.080750,281845,234024
945.076,0.079813,297271,247366
950.165,0.078205,315605,263596
953.978,0.077628,328029,274337
957.786,0.076942,340470,285192
961.59,0.077274,352317,294890
965.389,0.077279,363056,303875
969.185,0.077594,373162,312107
972.976,0.077721,382632,319934
976.763,0.078276,391202,326682
981.806,0.078980,400190,333646
985.583,0.079049,406088,338510
989.355,0.079978,410162,341175
993.124,0.080396,412868,343096
996.888,0.080489,414263,344181
1000.65,0.081834,415476,344122
1004.4,0.082880,415479,343296
1009.41,0.084289,414358,341261
1013.15,0.084298,412923,340072
1016.89,0.084337,411526,338891
1020.63,0.084375,409066,336836
1024.36,0.084580,406777,334793
1028.09,0.084438,404427,332968
1031.82,0.084356,401911,330959
1036.78,0.084128,398410,328248
1040.49,0.083840,396204,326647
1044.2,0.084352,394236,324642
1047.91,0.082633,392042,324115
1051.61,0.083110,389823,321927
1055.31,0.082633,388234,320967
1059,0.082193,387599,320767
1063.92,0.081424,386688,320580
1067.61,0.081139,386598,320716
1071.29,0.080816,387377,321601
1074.96,0.079624,388536,323450
1078.63,0.079248,389855,324829
1082.3,0.078091,391215,326832
1085.96,0.077541,393215,328919
1090.84,0.076426,396270,332327
1094.49,0.075924,398760,334802
1098.14,0.075784,400987,336780
1101.79,0.074863,403477,339591
1105.43,0.075111,406116,341617
1109.06,0.073756,407701,344022
1112.7,0.074149,409859,345530
1117.53,0.073439,412494,348320
1121.15,0.073381,414909,350406
1124.77,0.073555,416559,351659
1128.38,0.074876,418532,352251
1131.99,0.075856,419956,352653
1135.6,0.077223,421946,353211
1139.2,0.078975,423881,353402
1143.99,0.080558,426786,354529
1147.58,0.081683,428617,355129
1151.17,0.082520,431169,356556
1154.75,0.083110,433579,358062
1158.33,0.084496,436264,359131
1161.91,0.086410,439132,359903
1165.48,0.089011,442389,360407
1169.04,0.091028,446101,361747
1173.79,0.094295,451929,363727
1177.34,0.096015,456026,365573
1180.9,0.098410,461306,367772
1184.44,0.100321,467657,371199
1187.99,0.100414,473969,376128
1191.52,0.101028,479856,380262
1195.06,0.101215,487372,386052
1199.76,0.100965,497347,394180
1203.29,0.100121,504311,400477
1206.81,0.099382,511507,406883
1210.33,0.098896,519078,413368
1213.84,0.097918,527163,420753
1217.35,0.097333,534208,426950
1220.85,0.096633,540472,432653
1225.51,0.096018,549929,440848
1229.01,0.095359,556888,447104
1232.5,0.095088,562180,451635
1235.98,0.094497,567975,456912
1239.46,0.093193,574815,463805
1242.94,0.092435,582782,471055
1246.41,0.091995,591476,478566
1251.03,0.091923,604016,488793
1254.5,0.091830,612289,495595
1257.96,0.092135,619125,500776
1261.41,0.092721,624551,504484
1264.86,0.093247,629900,508188
1268.31,0.093887,634345,511021
1271.75,0.094658,638574,513515
1276.33,0.095072,642499,516179
1279.76,0.094612,645905,519465
1283.19,0.094163,648307,521936
1286.61,0.093910,650446,523964
1290.03,0.093532,652132,525779
1293.44,0.092552,653907,528401
1296.85,0.092708,655963,529872
1301.39,0.091911,657349,531967
1304.8,0.092458,657558,531467
1308.19,0.092656,658515,531998
1311.58,0.092837,658804,532009
1314.97,0.092850,659011,532160
1318.36,0.093019,658272,531357
1321.73,0.093517,658022,530547
1326.23,0.094480,657870,529249
1329.6,0.095255,656482,527191
1332.97,0.096037,654926,524995
1336.33,0.097239,653727,522585
1339.69,0.098396,652497,520215
1343.04,0.100132,649913,516087
1346.39,0.101861,647671,512263
1349.73,0.103741,645338,508213
1354.18,0.106847,641175,501337
1357.52,0.108822,638376,496883
1360.85,0.110691,635805,492757
1364.17,0.112892,633413,488422
1367.49,0.114680,631026,484582
1370.81,0.116868,628050,479873
1374.12,0.119022,625034,475206
1378.54,0.122078,620272,468278
1381.84,0.124800,616892,462817
1385.14,0.128139,613613,456831
1388.43,0.131783,611526,451473
1391.72,0.135793,610663,446692
1395.01,0.139573,610634,442800
1398.29,0.144511,611700,438558
1402.66,0.150312,614051,434403
1405.93,0.155509,616268,430785
1409.2,0.160435,617795,426982
1412.46,0.164579,618872,423664
1415.72,0.168501,619795,420482
1418.98,0.172429,620495,417166
1422.23,0.175235,621087,414875
1426.56,0.178739,621375,411732
1429.8,0.181719,621616,409075
1433.04,0.183829,622129,407429
1436.27,0.186503,621526,404535
1439.5,0.188700,621113,402226
1442.72,0.191106,620921,399881
1445.94,0.193024,620270,397701
1450.23,0.197308,618860,392902
1453.44,0.199959,617697,389777
1456.64,0.202890,616264,386257
1459.85,0.205151,614413,383098
1463.04,0.208284,612307,379040
1466.24,0.211530,610032,374820
1469.43,0.214933,607345,370256
1473.67,0.221284,603789,362745
1476.85,0.226876,601175,356554
1480.02,0.233160,597737,349422
1483.19,0.239713,594479,342313
1486.36,0.244885,591232,336413
1489.52,0.249925,587853,330631
1492.68,0.253929,583875,325380
1496.89,0.255371,578062,321073
1500.03,0.256324,574159,318206
1503.18,0.255812,570285,316432
1506.32,0.255385,565444,314054
1509.45,0.253997,560571,312344
1512.58,0.252453,555821,310801
1515.71,0.249999,550344,309482
1519.87,0.246619,543983,308295
1522.99,0.243945,538764,307223
1526.1,0.241786,533692,305847
1529.21,0.238882,527902,304559
1532.32,0.236162,521886,302980
1535.42,0.233179,515888,301562
1538.51,0.230154,509987,300196
1541.6,0.227338,503936,298564
1545.72,0.223233,494694,295872
1548.8,0.220762,488378,293761
1551.88,0.218199,481832,291539
1554.95,0.216434,474989,288569
1558.02,0.214905,467818,285215
1561.08,0.213119,460730,282051
1564.15,0.213206,454170,277979
1568.22,0.212088,444181,272566
1571.27,0.211151,436947,268706
1574.32,0.210431,429598,264625
1577.36,0.209870,422039,260305
1580.4,0.208543,414375,256360
1583.43,0.207294,406354,252122
1586.46,0.204979,398475,248555
1590.49,0.203704,388982,243347
1593.51,0.201323,380708,239480
1596.53,0.199697,372727,235339
1599.54,0.197174,365060,231841
1602.55,0.195876,357543,227747
1605.55,0.193864,349495,223654
1608.55,0.192029,341154,219241
1612.54,0.188861,330877,214193
1615.53,0.187233,322904,209817
1618.51,0.187885,315116,204449
1621.49,0.186361,307217,200025
1624.47,0.184781,299481,195699
1627.44,0.182529,292112,191876
1630.41,0.184094,284245,186037
1634.36,0.182374,274079,180095
1637.32,0.181519,266916,175734
1640.27,0.180142,259612,171468
1643.22,0.179020,251804,166741
1646.16,0.179471,244348,161636
1649.1,0.178285,236703,157007
1652.04,0.176645,228171,151920
1655.95,0.173947,215408,144316
1658.88,0.170146,204937,138508
1661.8,0.165109,193395,132232
1664.72,0.156221,179728,125428
1667.63,0.144001,163642,117461
1670.54,0.129014,146312,108709
1673.44,0.114500,128451,98682
1677.31,0.093796,105080,84669
1680.21,0.084088,88906,73256
1683.1,0.074652,75033,63183
1685.99,0.076999,63520,53200
1688.87,0.079071,53714,44773
1691.75,0.080361,45653,37941
1694.62,0.084529,39137,32215
1697.49,0.099147,33776,26882
1701.31,0.104902,28175,22129

File: Column 1_050607_20150331_122700.csv
Method:,Column 1,,
Host Date-Time:,31/3/15 @ 12:27:0,,
Header Version:,1,,
System Temp (C):,34,,
Detector Temp (C):,34.85,,
Humidity (%):,1.66,,
Lamp PD:,3818,,
Shift Vector Coefficients:,-10.5391,0.0761263,-0.000134223,,
Pixel to Wavelength Coefficients:,1775.68,-0.916766,-0.000235065,,
Serial Number:,5510004,,
Scan Config Name:,Column 1,,
Scan Config Type:,Slew,,
Section 1,,
Start wavelength (nm):,900,,
End wavelength (nm):,1700,,
Pattern Pixel Width (nm):,   7.03,,,,
Exposure (ms):,  0.635,,,,
Digital Resolution:,228,,
Num Repeats:,6,,
PGA Gain:,64,,
Total Measurement Time in sec:,  2.681,,
Wavelength (nm),Absorbance (AU),Reference Signal (unitless),Sample Signal (unitless)
901.51,0.068637,108485,92626
905.376,0.074261,121306,102240
909.237,0.076402,131909,110630
913.095,0.077768,143299,119805
916.948,0.079259,156982,130795
922.079,0.080096,179937,149632
925.923,0.082347,200504,165873
929.762,0.082709,222660,184049
933.597,0.082577,244426,202102
937.427,0.080553,263972,219283
941.254,0.079782,281845,234546
945.076,0.079286,297271,247666
950.165,0.077958,315605,263746
953.978,0.076647,328029,274957
957.786,0.076400,340470,285548
961.59,0.076908,352317,295138
965.389,0.077945,363056,303409
969.185,0.076978,373162,312550
972.976,0.077862,382632,319830
976.763,0.078171,391202,326761
981.806,0.078585,400190,333950
985.583,0.079597,406088,338083
989.355,0.079604,410162,341469
993.124,0.080022,412868,343391
996.888,0.080358,414263,344285
1000.65,0.081792,415476,344155
1004.4,0.082510,415479,343589
1009.41,0.083641,414358,341771
1013.15,0.084109,412923,340220
1016.89,0.084840,411526,338499
1020.63,0.084731,409066,336560
1024.36,0.084457,406777,334888
1028.09,0.084505,404427,332916
1031.82,0.084826,401911,330601
1036.78,0.083889,398410,328429
1040.49,0.083647,396204,326792
1044.2,0.083475,394236,325298
1047.91,0.082817,392042,323978
1051.61,0.082452,389823,322415
1055.31,0.082827,388234,320824
1059,0.082335,387599,320662
1063.92,0.081208,386688,320740
1067.61,0.080494,386598,321193
1071.29,0.079829,387377,322333
1074.96,0.079859,388536,323275
1078.63,0.079512,389855,324632
1082.3,0.077974,391215,326920
1085.96,0.077492,393215,328956
1090.84,0.076856,396270,331998
1094.49,0.076822,398760,334110
1098.14,0.075765,400987,336795
1101.79,0.074767,403477,339666
1105.43,0.074888,406116,341792
1109.06,0.074363,407701,343541
1112.7,0.073609,409859,345960
1117.53,0.073485,412494,348283
1121.15,0.074016,414909,349894
1124.77,0.074189,416559,351146
1128.38,0.075128,418532,352047
1131.99,0.075941,419956,352584
1135.6,0.077137,421946,353281
1139.2,0.078799,423881,353545
1143.99,0.080437,426786,354628
1147.58,0.081878,428617,354970
1151.17,0.082660,431169,356441
1154.75,0.083072,433579,358093
1158.33,0.084334,436264,359265
1161.91,0.086373,439132,359933
1165.48,0.088842,442389,360547
1169.04,0.090178,446101,362456
1173.79,0.093987,451929,363985
1177.34,0.096266,456026,365362
1180.9,0.098320,461306,367849
1184.44,0.100146,467657,371348
1187.99,0.101479,473969,375207
1191.52,0.101079,479856,380217
1195.06,0.100801,487372,386420
1199.76,0.099633,497347,395391
1203.29,0.099765,504311,400805
1206.81,0.099335,511507,406927
1210.33,0.098506,519078,413739
1213.84,0.097871,527163,420798
1217.35,0.097601,534208,426687
1220.85,0.096503,540472,432783
1225.51,0.095915,549929,440952
1229.01,0.095394,556888,447068
1232.5,0.094494,562180,452253
1235.98,0.093853,567975,457590
1239.46,0.093260,574815,463733
1242.94,0.092636,582782,470836
1246.41,0.091491,591476,479122
1251.03,0.091570,604016,489191
1254.5,0.091972,612289,495433
1257.96,0.091897,619125,501050
1261.41,0.092682,624551,504529
1264.86,0.093728,629900,507626
1268.31,0.093487,634345,511492
1271.75,0.094525,638574,513672
1276.33,0.094549,642499,516801
1279.76,0.094152,645905,520016
1283.19,0.093600,648307,522614
1286.61,0.093797,650446,524100
1290.03,0.093177,652132,526209
1293.44,0.092751,653907,528159
1296.85,0.092507,655963,530118
1301.39,0.092535,657349,531204
1304.8,0.092425,657558,531507
1308.19,0.092348,658515,532375
1311.58,0.092779,658804,532080
1314.97,0.092995,659011,531983
1318.36,0.093366,658272,530932
1321.73,0.093492,658022,530577
1326.23,0.094591,657870,529114
1329.6,0.095356,656482,527068
1332.97,0.096142,654926,524868
1336.33,0.097078,653727,522779
1339.69,0.098256,652497,520382
1343.04,0.099750,649913,516542
1346.39,0.101829,647671,512301
1349.73,0.103851,645338,508085
1354.18,0.106966,641175,501199
1357.52,0.109086,638376,496581
1360.85,0.110604,635805,492856
1364.17,0.112416,633413,488957
1367.49,0.115182,631026,484022
1370.81,0.116544,628050,480231
1374.12,0.119093,625034,475128
1378.54,0.121776,620272,468604
1381.84,0.124609,616892,463020
1385.14,0.127985,613613,456993
1388.43,0.131375,611526,451898
1391.72,0.135369,610663,447129
1395.01,0.140134,610634,442229
1398.29,0.144361,611700,438710
1402.66,0.150548,614051,434167
1405.93,0.155364,616268,430929
1409.2,0.159948,617795,427461
1412.46,0.164833,618872,423417
1415.72,0.168472,619795,420510
1418.98,0.172158,620495,417427
1422.23,0.175529,621087,414594
1426.56,0.178901,621375,411579
1429.8,0.181742,621616,409054
1433.04,0.184202,622129,407079
1436.27,0.186660,621526,404389
1439.5,0.188353,621113,402548
1442.72,0.190846,620921,400120
1445.94,0.193479,620270,397285
1450.23,0.196696,618860,393456
1453.44,0.199510,617697,390180
1456.64,0.201532,616264,387467
1459.85,0.205242,614413,383017
1463.04,0.207992,612307,379295
1466.24,0.211515,610032,374833
1469.43,0.214855,607345,370323
1473.67,0.221536,603789,362534
1476.85,0.226375,601175,356965
1480.02,0.232807,597737,349706
1483.19,0.239596,594479,342405
1486.36,0.244524,591232,336693
1489.52,0.249634,587853,330853
1492.68,0.253178,583875,325943
1496.89,0.255172,578062,321220
1500.03,0.255995,574159,318447
1503.18,0.255405,570285,316728
1506.32,0.255250,565444,314152
1509.45,0.253853,560571,312448
1512.58,0.252031,555821,311103
1515.71,0.250093,550344,309415
1519.87,0.247425,543983,307723
1522.99,0.244761,538764,306646
1526.1,0.241491,533692,306055
1529.21,0.239166,527902,304360
1532.32,0.235848,521886,303199
1535.42,0.233608,515888,301264
1538.51,0.230108,509987,300228
1541.6,0.226903,503936,298863
1545.72,0.223237,494694,295869
1548.8,0.220424,488378,293990
1551.88,0.218157,481832,291567
1554.95,0.216690,474989,288399
1558.02,0.214679,467818,285363
1561.08,0.213053,460730,282094
1564.15,0.213163,454170,278007
1568.22,0.212233,444181,272475
1571.27,0.211341,436947,268589
1574.32,0.211046,429598,264251
1577.36,0.209438,422039,260564
1580.4,0.208259,414375,256528
1583.43,0.207640,406354,251921
1586.46,0.205424,398475,248300
1590.49,0.202707,388982,243906
1593.51,0.201203,380708,239546
1596.53,0.198755,372727,235850
1599.54,0.196852,365060,232013
1602.55,0.195780,357543,227797
1605.55,0.193948,349495,223611
1608.55,0.191963,341154,219274
1612.54,0.190419,330877,213426
1615.53,0.188006,322904,209444
1618.51,0.187851,315116,204465
1621.49,0.185968,307217,200206
1624.47,0.184288,299481,195921
1627.44,0.183805,292112,191313
1630.41,0.182744,284245,186616
1634.36,0.181769,274079,180346
1637.32,0.182620,266916,175289
1640.27,0.181052,259612,171109
1643.22,0.179390,251804,166599
1646.16,0.178164,244348,162123
1649.1,0.178033,236703,157098
1652.04,0.175079,228171,152469
1655.95,0.172916,215408,144659
1658.88,0.168143,204937,139148
1661.8,0.163692,193395,132664
1664.72,0.155598,179728,125608
1667.63,0.145275,163642,117117
1670.54,0.130219,146312,108408
1673.44,0.113805,128451,98840
1677.31,0.092889,105080,84846
1680.21,0.080834,88906,73807
1683.1,0.078546,75033,62619
1685.99,0.079373,63520,52910
1688.87,0.076595,53714,45029
1691.75,0.082921,45653,37718
1694.62,0.087926,39137,31964
1697.49,0.090430,33776,27427
1701.31,0.105963,28175,22075

File: Column 1_050608_20150331_122715.csv
Method:,Column 1,,
Host Date-Time:,31/3/15 @ 12:27:15,,
Header Version:,1,,
System Temp (C):,34.03,,
Detector Temp (C):,34.84,,
Humidity (%):,1.66,,
Lamp PD:,3818,,
Shift Vector Coefficients:,-10.5391,0.0761263,-0.000134223,,
Pixel to Wavelength Coefficients:,1775.68,-0.916766,-0.000235065,,
Serial Number:,5510004,,
Scan Config Name:,Column 1,,
Scan Config Type:,Slew,,
Section 1,,
Start wavelength (nm):,900,,
End wavelength (nm):,1700,,
Pattern Pixel Width (nm):,   7.03,,,,
Exposure (ms):,  0.635,,,,
Digital Resolution:,228,,
Num Repeats:,6,,
PGA Gain:,64,,
Total Measurement Time in sec:,  2.683,,
Wavelength (nm),Absorbance (AU),Reference Signal (unitless),Sample Signal (unitless)
901.51,0.070422,108485,92246
905.376,0.073527,121306,102413
909.237,0.079352,131909,109881
913.095,0.078450,143299,119617
916.948,0.078396,156982,131055
922.079,0.080459,179937,149507
925.923,0.081074,200504,166360
929.762,0.082263,222660,184238
933.597,0.081300,244426,202697
937.427,0.080549,263972,219285
941.254,0.080162,281845,234341
945.076,0.079025,297271,247815
950.165,0.078054,315605,263688
953.978,0.077117,328029,274660
957.786,0.076923,340470,285204
961.59,0.077654,352317,294632
965.389,0.077403,363056,303788
969.185,0.077730,373162,312009
972.976,0.078348,382632,319472
976.763,0.078320,391202,326649
981.806,0.078664,400190,333889
985.583,0.079363,406088,338265
989.355,0.079962,410162,341188
993.124,0.080302,412868,343170
996.888,0.080589,414263,344102
1000.65,0.081147,415476,344666
1004.4,0.082756,415479,343394
1009.41,0.083942,414358,341534
1013.15,0.084261,412923,340101
1016.89,0.085072,411526,338318
1020.63,0.084903,409066,336427
1024.36,0.084306,406777,335004
1028.09,0.084380,404427,333012
1031.82,0.084870,401911,330567
1036.78,0.084043,398410,328312
1040.49,0.083734,396204,326727
1044.2,0.084426,394236,324586
1047.91,0.082943,392042,323884
1051.61,0.082916,389823,322071
1055.31,0.083065,388234,320648
1059,0.082397,387599,320616
1063.92,0.081346,386688,320638
1067.61,0.081184,386598,320683
1071.29,0.080107,387377,322127
1074.96,0.079584,388536,323480
1078.63,0.079454,389855,324675
1082.3,0.078236,391215,326723
1085.96,0.077094,393215,329258
1090.84,0.076929,396270,331942
1094.49,0.076305,398760,334508
1098.14,0.075622,400987,336906
1101.79,0.075208,403477,339321
1105.43,0.075308,406116,341462
1109.06,0.073921,407701,343891
1112.7,0.073811,409859,345799
1117.53,0.073626,412494,348170
1121.15,0.073910,414909,349980
1124.77,0.074249,416559,351097
1128.38,0.074899,418532,352233
1131.99,0.076849,419956,351848
1135.6,0.077746,421946,352786
1139.2,0.079325,423881,353117
1143.99,0.080930,426786,354226
1147.58,0.081775,428617,355054
1151.17,0.082377,431169,356673
1154.75,0.083351,433579,357863
1158.33,0.084865,436264,358826
1161.91,0.086512,439132,359818
1165.48,0.089064,442389,360363
1169.04,0.090851,446101,361895
1173.79,0.094092,451929,363897
1177.34,0.096178,456026,365436
1180.9,0.098566,461306,367640
1184.44,0.100040,467657,371439
1187.99,0.100726,473969,375858
1191.52,0.101014,479856,380274
1195.06,0.101134,487372,386124
1199.76,0.100550,497347,394557
1203.29,0.099548,504311,401006
1206.81,0.099364,511507,406900
1210.33,0.098731,519078,413525
1213.84,0.098116,527163,420561
1217.35,0.098113,534208,426184
1220.85,0.096913,540472,432375
1225.51,0.096458,549929,440401
1229.01,0.095547,556888,446911
1232.5,0.095036,562180,451689
1235.98,0.094219,567975,457204
1239.46,0.093519,574815,463457
1242.94,0.092058,582782,471464
1246.41,0.091516,591476,479094
1251.03,0.091784,604016,488950
1254.5,0.091674,612289,495772
1257.96,0.092339,619125,500541
1261.41,0.092530,624551,504705
1264.86,0.093677,629900,507685
1268.31,0.093612,634345,511344
1271.75,0.094601,638574,513582
1276.33,0.094741,642499,516573
1279.76,0.094707,645905,519352
1283.19,0.094302,648307,521770
1286.61,0.093795,650446,524103
1290.03,0.093306,652132,526053
1293.44,0.092961,653907,527904
1296.85,0.092485,655963,530144
1301.39,0.092204,657349,531609
1304.8,0.092553,657558,531350
1308.19,0.092389,658515,532325
1311.58,0.092749,658804,532117
1314.97,0.093063,659011,531900
1318.36,0.093570,658272,530683
1321.73,0.093857,658022,530131
1326.23,0.094729,657870,528946
1329.6,0.095266,656482,527177
1332.97,0.096220,654926,524774
1336.33,0.097500,653727,522272
1339.69,0.098830,652497,519695
1343.04,0.099966,649913,516285
1346.39,0.101997,647671,512103
1349.73,0.104097,645338,507797
1354.18,0.106856,641175,501326
1357.52,0.109080,638376,496588
1360.85,0.111036,635805,492366
1364.17,0.112640,633413,488705
1367.49,0.114774,631026,484477
1370.81,0.117226,628050,479478
1374.12,0.119224,625034,474985
1378.54,0.122006,620272,468356
1381.84,0.125026,616892,462576
1385.14,0.128334,613613,456626
1388.43,0.131802,611526,451453
1391.72,0.135849,610663,446635
1395.01,0.140033,610634,442332
1398.29,0.144252,611700,438820
1402.66,0.150544,614051,434171
1405.93,0.155598,616268,430697
1409.2,0.160077,617795,427334
1412.46,0.164253,618872,423982
1415.72,0.168699,619795,420290
1418.98,0.171755,620495,417814
1422.23,0.175177,621087,414931
1426.56,0.178962,621375,411521
1429.8,0.181784,621616,409014
1433.04,0.183927,622129,407337
1436.27,0.186188,621526,404829
1439.5,0.188121,621113,402763
1442.72,0.191132,620921,399857
1445.94,0.193169,620270,397568
1450.23,0.196788,618860,393373
1453.44,0.199100,617697,390549
1456.64,0.202449,616264,386650
1459.85,0.204590,614413,383593
1463.04,0.207802,612307,379461
1466.24,0.211536,610032,374815
1469.43,0.214910,607345,370276
1473.67,0.221388,603789,362658
1476.85,0.226414,601175,356933
1480.02,0.232878,597737,349649
1483.19,0.239164,594479,342746
1486.36,0.244950,591232,336363
1489.52,0.249849,587853,330689
1492.68,0.253002,583875,326075
1496.89,0.255472,578062,320998
1500.03,0.256136,574159,318344
1503.18,0.255916,570285,316356
1506.32,0.255392,565444,314049
1509.45,0.253688,560571,312567
1512.58,0.252330,555821,310889
1515.71,0.249710,550344,309688
1519.87,0.246427,543983,308431
1522.99,0.244008,538764,307178
1526.1,0.241774,533692,305856
1529.21,0.238872,527902,304566
1532.32,0.236190,521886,302960
1535.42,0.233611,515888,301262
1538.51,0.230253,509987,300128
1541.6,0.227281,503936,298603
1545.72,0.222494,494694,296376
1548.8,0.221002,488378,293599
1551.88,0.218448,481832,291372
1554.95,0.216156,474989,288754
1558.02,0.214685,467818,285359
1561.08,0.213344,460730,281905
1564.15,0.212839,454170,278214
1568.22,0.212329,444181,272415
1571.27,0.211069,436947,268757
1574.32,0.210824,429598,264386
1577.36,0.209493,422039,260531
1580.4,0.208024,414375,256667
1583.43,0.206091,406354,252821
1586.46,0.205344,398475,248346
1590.49,0.203720,388982,243338
1593.51,0.201297,380708,239494
1596.53,0.199418,372727,235490
1599.54,0.198010,365060,231395
1602.55,0.195529,357543,227929
1605.55,0.193338,349495,223925
1608.55,0.192112,341154,219199
1612.54,0.190472,330877,213400
1615.53,0.188151,322904,209374
1618.51,0.188342,315116,204234
1621.49,0.186020,307217,200182
1624.47,0.185229,299481,195497
1627.44,0.184527,292112,190995
1630.41,0.182774,284245,186603
1634.36,0.181964,274079,180265
1637.32,0.182466,266916,175351
1640.27,0.180727,259612,171237
1643.22,0.179857,251804,166420
1646.16,0.179471,244348,161636
1649.1,0.177682,236703,157225
1652.04,0.176425,228171,151997
1655.95,0.172919,215408,144658
1658.88,0.168824,204937,138930
1661.8,0.164744,193395,132343
1664.72,0.157119,179728,125169
1667.63,0.144201,163642,117407
1670.54,0.130387,146312,108366
1673.44,0.114011,128451,98793
1677.31,0.094406,105080,84550
1680.21,0.081104,88906,73761
1683.1,0.076250,75033,62951
1685.99,0.076509,63520,53260
1688.87,0.079052,53714,44775
1691.75,0.087028,45653,37363
1694.62,0.091446,39137,31706
1697.49,0.096425,33776,27051
1701.31,0.106849,28175,22030