Folder: textile_sorting_NIRSCAN_/samples/wool/wool-000811 (part 177)

File: Column 1_050629_20150331_123723.csv
Method:,Column 1,,
Host Date-Time:,31/3/15 @ 12:37:23,,
Header Version:,1,,
System Temp (C):,34.12,,
Detector Temp (C):,35.06,,
Humidity (%):,1.56,,
Lamp PD:,3818,,
Shift Vector Coefficients:,-10.5391,0.0761263,-0.000134223,,
Pixel to Wavelength Coefficients:,1775.68,-0.916766,-0.000235065,,
Serial Number:,5510004,,
Scan Config Name:,Column 1,,
Scan Config Type:,Slew,,
Section 1,,
Start wavelength (nm):,900,,
End wavelength (nm):,1700,,
Pattern Pixel Width (nm):,   7.03,,,,
Exposure (ms):,  0.635,,,,
Digital Resolution:,228,,
Num Repeats:,6,,
PGA Gain:,64,,
Total Measurement Time in sec:,  2.668,,
Wavelength (nm),Absorbance (AU),Reference Signal (unitless),Sample Signal (unitless)
901.51,0.069853,108485,92367
905.376,0.075879,121306,101860
909.237,0.078180,131909,110178
913.095,0.078076,143299,119720
916.948,0.079252,156982,130797
922.079,0.081325,179937,149209
925.923,0.081756,200504,166099
929.762,0.083559,222660,183689
933.597,0.081858,244426,202437
937.427,0.080959,263972,219078
941.254,0.080846,281845,233972
945.076,0.078843,297271,247919
950.165,0.078376,315605,263492
953.978,0.076374,328029,275130
957.786,0.078372,340470,284254
961.59,0.077679,352317,294615
965.389,0.077157,363056,303960
969.185,0.077847,373162,311925
972.976,0.077668,382632,319973
976.763,0.078199,391202,326740
981.806,0.079161,400190,333507
985.583,0.079530,406088,338135
989.355,0.079903,410162,341234
993.124,0.080299,412868,343172
996.888,0.080597,414263,344096
1000.65,0.081616,415476,344294
1004.4,0.082989,415479,343210
1009.41,0.084013,414358,341478
1013.15,0.084123,412923,340209
1016.89,0.084998,411526,338376
1020.63,0.084842,409066,336474
1024.36,0.084567,406777,334803
1028.09,0.083953,404427,333340
1031.82,0.084298,401911,331003
1036.78,0.083824,398410,328478
1040.49,0.084167,396204,326401
1044.2,0.083888,394236,324989
1047.91,0.083832,392042,323222
1051.61,0.082536,389823,322353
1055.31,0.082982,388234,320709
1059,0.081778,387599,321074
1063.92,0.081815,386688,320292
1067.61,0.080751,386598,321003
1071.29,0.079786,387377,322365
1074.96,0.079537,388536,323515
1078.63,0.078846,389855,325130
1082.3,0.077873,391215,326996
1085.96,0.076848,393215,329444
1090.84,0.076418,396270,332333
1094.49,0.075523,398760,335111
1098.14,0.075687,400987,336855
1101.79,0.074382,403477,339967
1105.43,0.074095,406116,342417
1109.06,0.074161,407701,343701
1112.7,0.073733,409859,345861
1117.53,0.073023,412494,348654
1121.15,0.073437,414909,350361
1124.77,0.074102,416559,351216
1128.38,0.075237,418532,351959
1131.99,0.075950,419956,352577
1135.6,0.077189,421946,353238
1139.2,0.078637,423881,353677
1143.99,0.080577,426786,354514
1147.58,0.080815,428617,355840
1151.17,0.081971,431169,357007
1154.75,0.082643,433579,358447
1158.33,0.084035,436264,359513
1161.91,0.085777,439132,360428
1165.48,0.088091,442389,361171
1169.04,0.090111,446101,362512
1173.79,0.093254,451929,364600
1177.34,0.095900,456026,365670
1180.9,0.098043,461306,368083
1184.44,0.099564,467657,371846
1187.99,0.101139,473969,375501
1191.52,0.100717,479856,380534
1195.06,0.100340,487372,386830
1199.76,0.100140,497347,394929
1203.29,0.098731,504311,401761
1206.81,0.098832,511507,407399
1210.33,0.098438,519078,413804
1213.84,0.097451,527163,421205
1217.35,0.097216,534208,427065
1220.85,0.096291,540472,432994
1225.51,0.095303,549929,441574
1229.01,0.094694,556888,447789
1232.5,0.093960,562180,452809
1235.98,0.093922,567975,457517
1239.46,0.092555,574815,464486
1242.94,0.091835,582782,471706
1246.41,0.090931,591476,479740
1251.03,0.091035,604016,489794
1254.5,0.091170,612289,496348
1257.96,0.091556,619125,501444
1261.41,0.092440,624551,504810
1264.86,0.093938,629900,507380
1268.31,0.093137,634345,511904
1271.75,0.093874,638574,514443
1276.33,0.093925,642499,517544
1279.76,0.093920,645905,520294
1283.19,0.093233,648307,523056
1286.61,0.093056,650446,524995
1290.03,0.092644,652132,526855
1293.44,0.091879,653907,529221
1296.85,0.092142,655963,530563
1301.39,0.091742,657349,532175
1304.8,0.091417,657558,532742
1308.19,0.092095,658515,532685
1311.58,0.091508,658804,533640
1314.97,0.092118,659011,533058
1318.36,0.092702,658272,531745
1321.73,0.092598,658022,531670
1326.23,0.093528,657870,530410
1329.6,0.094171,656482,528508
1332.97,0.094956,654926,526303
1336.33,0.096180,653727,523862
1339.69,0.097523,652497,521261
1343.04,0.098816,649913,517654
1346.39,0.100762,647671,513561
1349.73,0.102473,645338,509699
1354.18,0.105772,641175,502579
1357.52,0.107349,638376,498572
1360.85,0.109646,635805,493944
1364.17,0.111610,633413,489866
1367.49,0.113187,631026,486251
1370.81,0.115697,628050,481169
1374.12,0.117809,625034,476535
1378.54,0.120339,620272,470157
1381.84,0.123221,616892,464503
1385.14,0.126501,613613,458557
1388.43,0.129538,611526,453813
1391.72,0.132967,610663,449609
1395.01,0.137282,610634,445142
1398.29,0.141039,611700,442079
1402.66,0.147292,614051,437434
1405.93,0.151739,616268,434541
1409.2,0.156404,617795,430963
1412.46,0.160175,618872,427982
1415.72,0.164270,619795,424598
1418.98,0.167215,620495,422205
1422.23,0.170694,621087,419236
1426.56,0.174268,621375,415993
1429.8,0.176730,621616,413802
1433.04,0.179972,622129,411063
1436.27,0.181506,621526,409217
1439.5,0.183236,621113,407319
1442.72,0.186236,620921,404390
1445.94,0.188610,620270,401764
1450.23,0.191845,618860,397876
1453.44,0.194474,617697,394731
1456.64,0.198073,616264,390565
1459.85,0.200986,614413,386789
1463.04,0.203426,612307,383304
1466.24,0.207366,610032,378431
1469.43,0.210835,607345,373767
1473.67,0.217840,603789,365633
1476.85,0.223640,601175,359220
1480.02,0.230471,597737,351592
1483.19,0.236545,594479,344819
1486.36,0.242746,591232,338074
1489.52,0.247787,587853,332263
1492.68,0.251310,583875,327348
1496.89,0.253284,578062,322619
1500.03,0.253462,574159,320310
1503.18,0.254599,570285,317317
1506.32,0.253105,565444,315707
1509.45,0.251271,560571,314311
1512.58,0.250331,555821,312323
1515.71,0.247786,550344,311063
1519.87,0.244946,543983,309485
1522.99,0.242703,538764,308103
1526.1,0.240035,533692,307083
1529.21,0.237139,527902,305784
1532.32,0.233973,521886,304511
1535.42,0.230640,515888,303330
1538.51,0.228031,509987,301667
1541.6,0.225561,503936,299788
1545.72,0.221234,494694,297237
1548.8,0.218309,488378,295425
1551.88,0.215896,481832,293089
1554.95,0.213642,474989,290430
1558.02,0.212605,467818,286729
1561.08,0.211027,460730,283413
1564.15,0.210944,454170,279431
1568.22,0.209076,444181,274463
1571.27,0.210076,436947,269372
1574.32,0.208705,429598,265679
1577.36,0.207907,422039,261484
1580.4,0.209249,414375,255944
1583.43,0.204844,406354,253548
1586.46,0.203404,398475,249458
1590.49,0.202091,388982,244252
1593.51,0.199609,380708,240427
1596.53,0.197602,372727,236477
1599.54,0.195230,365060,232881
1602.55,0.193277,357543,229114
1605.55,0.191805,349495,224717
1608.55,0.190321,341154,220105
1612.54,0.187543,330877,214844
1615.53,0.185858,322904,210482
1618.51,0.185530,315116,205561
1621.49,0.185463,307217,200439
1624.47,0.183668,299481,196201
1627.44,0.182785,292112,191763
1630.41,0.181675,284245,187076
1634.36,0.180504,274079,180872
1637.32,0.180978,266916,175953
1640.27,0.178655,259612,172056
1643.22,0.178232,251804,167044
1646.16,0.176891,244348,162599
1649.1,0.177613,236703,157250
1652.04,0.174840,228171,152553
1655.95,0.172838,215408,144685
1658.88,0.166443,204937,139694
1661.8,0.164043,193395,132557
1664.72,0.155965,179728,125502
1667.63,0.142469,163642,117876
1670.54,0.128280,146312,108893
1673.44,0.112927,128451,99040
1677.31,0.092214,105080,84978
1680.21,0.078896,88906,74137
1683.1,0.073924,75033,63289
1685.99,0.071943,63520,53823
1688.87,0.077107,53714,44976
1691.75,0.083163,45653,37697
1694.62,0.086814,39137,32046
1697.49,0.092366,33776,27305
1701.31,0.107718,28175,21986

File: Column 1_050629_20150331_123725.csv
Method:,Column 1,,
Host Date-Time:,31/3/15 @ 12:37:25,,
Header Version:,1,,
System Temp (C):,34.16,,
Detector Temp (C):,35.05,,
Humidity (%):,1.56,,
Lamp PD:,3818,,
Shift Vector Coefficients:,-10.5391,0.0761263,-0.000134223,,
Pixel to Wavelength Coefficients:,1775.68,-0.916766,-0.000235065,,
Serial Number:,5510004,,
Scan Config Name:,Column 1,,
Scan Config Type:,Slew,,
Section 1,,
Start wavelength (nm):,900,,
End wavelength (nm):,1700,,
Pattern Pixel Width (nm):,   7.03,,,,
Exposure (ms):,  0.635,,,,
Digital Resolution:,228,,
Num Repeats:,6,,
PGA Gain:,64,,
Total Measurement Time in sec:,  2.673,,
Wavelength (nm),Absorbance (AU),Reference Signal (unitless),Sample Signal (unitless)
901.51,0.069050,108485,92538
905.376,0.076715,121306,101664
909.237,0.078483,131909,110101
913.095,0.079177,143299,119417
916.948,0.080449,156982,130437
922.079,0.080898,179937,149356
925.923,0.081597,200504,166160
929.762,0.082817,222660,184003
933.597,0.082353,244426,202206
937.427,0.081542,263972,218784
941.254,0.080131,281845,234358
945.076,0.079139,297271,247750
950.165,0.078556,315605,263383
953.978,0.077791,328029,274234
957.786,0.076843,340470,285257
961.59,0.077867,352317,294487
965.389,0.077868,363056,303463
969.185,0.077977,373162,311832
972.976,0.078154,382632,319615
976.763,0.078318,391202,326650
981.806,0.078874,400190,333728
985.583,0.079566,406088,338107
989.355,0.079495,410162,341555
993.124,0.079944,412868,343453
996.888,0.080540,414263,344141
1000.65,0.081659,415476,344260
1004.4,0.082730,415479,343415
1009.41,0.083315,414358,342027
1013.15,0.083821,412923,340446
1016.89,0.085111,411526,338288
1020.63,0.084571,409066,336684
1024.36,0.084585,406777,334789
1028.09,0.084431,404427,332973
1031.82,0.083891,401911,331313
1036.78,0.083876,398410,328439
1040.49,0.083663,396204,326780
1044.2,0.083295,394236,325433
1047.91,0.082935,392042,323890
1051.61,0.083105,389823,321931
1055.31,0.082574,388234,321011
1059,0.082350,387599,320651
1063.92,0.081315,386688,320661
1067.61,0.080978,386598,320835
1071.29,0.079727,387377,322409
1074.96,0.079393,388536,323622
1078.63,0.078913,389855,325080
1082.3,0.078296,391215,326678
1085.96,0.077372,393215,329047
1090.84,0.076497,396270,332272
1094.49,0.075962,398760,334772
1098.14,0.075400,400987,337078
1101.79,0.075248,403477,339290
1105.43,0.074712,406116,341931
1109.06,0.074138,407701,343719
1112.7,0.073149,409859,346326
1117.53,0.072982,412494,348687
1121.15,0.073363,414909,350421
1124.77,0.073325,416559,351845
1128.38,0.074586,418532,352487
1131.99,0.075636,419956,352832
1135.6,0.076751,421946,353595
1139.2,0.078818,423881,353530
1143.99,0.080373,426786,354680
1147.58,0.081331,428617,355417
1151.17,0.081959,431169,357017
1154.75,0.083054,433579,358108
1158.33,0.084170,436264,359401
1161.91,0.085007,439132,361067
1165.48,0.087372,442389,361770
1169.04,0.090219,446101,362422
1173.79,0.093405,451929,364473
1177.34,0.095543,456026,365971
1180.9,0.097600,461306,368459
1184.44,0.099293,467657,372078
1187.99,0.100851,473969,375750
1191.52,0.101100,479856,380199
1195.06,0.100553,487372,386641
1199.76,0.099817,497347,395223
1203.29,0.099233,504311,401297
1206.81,0.098709,511507,407514
1210.33,0.097937,519078,414282
1213.84,0.097695,527163,420969
1217.35,0.096734,534208,427540
1220.85,0.096244,540472,433041
1225.51,0.095343,549929,441533
1229.01,0.094764,556888,447717
1232.5,0.094187,562180,452573
1235.98,0.093268,567975,458206
1239.46,0.092794,574815,464231
1242.94,0.091824,582782,471718
1246.41,0.091284,591476,479350
1251.03,0.091157,604016,489656
1254.5,0.091176,612289,496341
1257.96,0.091805,619125,501156
1261.41,0.091803,624551,505551
1264.86,0.092780,629900,508735
1268.31,0.093185,634345,511848
1271.75,0.093353,638574,515061
1276.33,0.094073,642499,517368
1279.76,0.094104,645905,520074
1283.19,0.093442,648307,522804
1286.61,0.093118,650446,524920
1290.03,0.092411,652132,527138
1293.44,0.092068,653907,528991
1296.85,0.091856,655963,530913
1301.39,0.091703,657349,532222
1304.8,0.091710,657558,532383
1308.19,0.091754,658515,533104
1311.58,0.091873,658804,533191
1314.97,0.091981,659011,533226
1318.36,0.092722,658272,531720
1321.73,0.092746,658022,531489
1326.23,0.093410,657870,530554
1329.6,0.094027,656482,528683
1332.97,0.094752,654926,526551
1336.33,0.096029,653727,524044
1339.69,0.097361,652497,521456
1343.04,0.099159,649913,517245
1346.39,0.100910,647671,513386
1349.73,0.102496,645338,509672
1354.18,0.105517,641175,502875
1357.52,0.107263,638376,498670
1360.85,0.109257,635805,494387
1364.17,0.111255,633413,490266
1367.49,0.113664,631026,485717
1370.81,0.115653,628050,481217
1374.12,0.117692,625034,476663
1378.54,0.120614,620272,469860
1381.84,0.123025,616892,464712
1385.14,0.125747,613613,459354
1388.43,0.130011,611526,453319
1391.72,0.133380,610663,449181
1395.01,0.137208,610634,445218
1398.29,0.141505,611700,441604
1402.66,0.146791,614051,437939
1405.93,0.151785,616268,434495
1409.2,0.155820,617795,431543
1412.46,0.160343,618872,427817
1415.72,0.163811,619795,425047
1418.98,0.167181,620495,422238
1422.23,0.170200,621087,419713
1426.56,0.174248,621375,416012
1429.8,0.176963,621616,413580
1433.04,0.179189,622129,411805
1436.27,0.180926,621526,409764
1439.5,0.183455,621113,407114
1442.72,0.185916,620921,404688
1445.94,0.188903,620270,401493
1450.23,0.192626,618860,397161
1453.44,0.194703,617697,394523
1456.64,0.197951,616264,390675
1459.85,0.200815,614413,386942
1463.04,0.203424,612307,383306
1466.24,0.207157,610032,378613
1469.43,0.211117,607345,373524
1473.67,0.217653,603789,365790
1476.85,0.223263,601175,359532
1480.02,0.230418,597737,351635
1483.19,0.236873,594479,344559
1486.36,0.242533,591232,338240
1489.52,0.248129,587853,332001
1492.68,0.250843,583875,327700
1496.89,0.253022,578062,322814
1500.03,0.254299,574159,319693
1503.18,0.254504,570285,317386
1506.32,0.252903,565444,315854
1509.45,0.252008,560571,313778
1512.58,0.249981,555821,312575
1515.71,0.247719,550344,311111
1519.87,0.244536,543983,309777
1522.99,0.242076,538764,308548
1526.1,0.239841,533692,307220
1529.21,0.236523,527902,306218
1532.32,0.233950,521886,304527
1535.42,0.230524,515888,303411
1538.51,0.227932,509987,301736
1541.6,0.225025,503936,300158
1545.72,0.221235,494694,297236
1548.8,0.217715,488378,295829
1551.88,0.215696,481832,293224
1554.95,0.214218,474989,290045
1558.02,0.212561,467818,286758
1561.08,0.211683,460730,282985
1564.15,0.210809,454170,279518
1568.22,0.209546,444181,274166
1571.27,0.209044,436947,270013
1574.32,0.208133,429598,266029
1577.36,0.207224,422039,261896
1580.4,0.206338,414375,257665
1583.43,0.204505,406354,253746
1586.46,0.202024,398475,250252
1590.49,0.200439,388982,245183
1593.51,0.199708,380708,240372
1596.53,0.197573,372727,236493
1599.54,0.195458,365060,232759
1602.55,0.193455,357543,229020
1605.55,0.191413,349495,224920
1608.55,0.189745,341154,220397
1612.54,0.188013,330877,214612
1615.53,0.186290,322904,210273
1618.51,0.185709,315116,205476
1621.49,0.185129,307217,200593
1624.47,0.182879,299481,196558
1627.44,0.181207,292112,192461
1630.41,0.181575,284245,187119
1634.36,0.179576,274079,181259
1637.32,0.180319,266916,176220
1640.27,0.178022,259612,172307
1643.22,0.178006,251804,167131
1646.16,0.177514,244348,162366
1649.1,0.176703,236703,157580
1652.04,0.175324,228171,152383
1655.95,0.170880,215408,145339
1658.88,0.167913,204937,139222
1661.8,0.161693,193395,133276
1664.72,0.153302,179728,126274
1667.63,0.141634,163642,118103
1670.54,0.127917,146312,108984
1673.44,0.111775,128451,99303
1677.31,0.090642,105080,85286
1680.21,0.078346,88906,74231
1683.1,0.070711,75033,63759
1685.99,0.071797,63520,53841
1688.87,0.076460,53714,45043
1691.75,0.079880,45653,37983
1694.62,0.089887,39137,31820
1697.49,0.090889,33776,27398
1701.31,0.097817,28175,22493

File: Column 1_050629_20150331_123737.csv
Method:,Column 1,,
Host Date-Time:,31/3/15 @ 12:37:37,,
Header Version:,1,,
System Temp (C):,34.16,,
Detector Temp (C):,35.05,,
Humidity (%):,1.56,,
Lamp PD:,3818,,
Shift Vector Coefficients:,-10.5391,0.0761263,-0.000134223,,
Pixel to Wavelength Coefficients:,1775.68,-0.916766,-0.000235065,,
Serial Number:,5510004,,
Scan Config Name:,Column 1,,
Scan Config Type:,Slew,,
Section 1,,
Start wavelength (nm):,900,,
End wavelength (nm):,1700,,
Pattern Pixel Width (nm):,   7.03,,,,
Exposure (ms):,  0.635,,,,
Digital Resolution:,228,,
Num Repeats:,6,,
PGA Gain:,64,,
Total Measurement Time in sec:,  2.666,,
Wavelength (nm),Absorbance (AU),Reference Signal (unitless),Sample Signal (unitless)
901.51,0.069195,108485,92507
905.376,0.075602,121306,101925
909.237,0.077573,131909,110332
913.095,0.079603,143299,119300
916.948,0.079289,156982,130786
922.079,0.083005,179937,148633
925.923,0.081803,200504,166081
929.762,0.083292,222660,183802
933.597,0.082422,244426,202174
937.427,0.081651,263972,218729
941.254,0.079999,281845,234429
945.076,0.079800,297271,247373
950.165,0.078568,315605,263376
953.978,0.077160,328029,274633
957.786,0.076785,340470,285295
961.59,0.077913,352317,294456
965.389,0.077373,363056,303809
969.185,0.078573,373162,311404
972.976,0.078289,382632,319516
976.763,0.078388,391202,326598
981.806,0.078547,400190,333979
985.583,0.079278,406088,338331
989.355,0.079652,410162,341431
993.124,0.080312,412868,343162
996.888,0.080496,414263,344176
1000.65,0.081494,415476,344391
1004.4,0.081877,415479,344090
1009.41,0.083860,414358,341598
1013.15,0.084575,412923,339855
1016.89,0.084630,411526,338663
1020.63,0.084519,409066,336724
1024.36,0.084273,406777,335030
1028.09,0.083678,404427,333551
1031.82,0.084642,401911,330741
1036.78,0.083590,398410,328655
1040.49,0.083014,396204,327269
1044.2,0.083817,394236,325042
1047.91,0.083099,392042,323768
1051.61,0.082827,389823,322137
1055.31,0.082551,388234,321028
1059,0.082227,387599,320742
1063.92,0.080691,386688,321122
1067.61,0.080725,386598,321022
1071.29,0.080051,387377,322168
1074.96,0.079450,388536,323580
1078.63,0.079284,389855,324802
1082.3,0.077508,391215,327271
1085.96,0.077005,393215,329325
1090.84,0.076487,396270,332280
1094.49,0.075990,398760,334751
1098.14,0.074996,400987,337392
1101.79,0.074792,403477,339646
1105.43,0.074298,406116,342257
1109.06,0.073732,407701,344041
1112.7,0.073248,409859,346247
1117.53,0.072576,412494,349013
1121.15,0.073782,414909,350083
1124.77,0.073845,416559,351424
1128.38,0.074756,418532,352349
1131.99,0.075526,419956,352921
1135.6,0.076837,421946,353525
1139.2,0.078320,423881,353935
1143.99,0.080212,426786,354812
1147.58,0.081082,428617,355621
1151.17,0.081739,431169,357198
1154.75,0.082558,433579,358517
1158.33,0.084363,436264,359241
1161.91,0.085903,439132,360323
1165.48,0.087588,442389,361590
1169.04,0.089679,446101,362873
1173.79,0.093497,451929,364396
1177.34,0.095749,456026,365797
1180.9,0.097902,461306,368203
1184.44,0.099731,467657,371703
1187.99,0.100940,473969,375673
1191.52,0.100381,479856,380829
1195.06,0.100310,487372,386857
1199.76,0.100011,497347,395047
1203.29,0.098897,504311,401607
1206.81,0.098791,511507,407437
1210.33,0.098067,519078,414158
1213.84,0.097475,527163,421182
1217.35,0.097005,534208,427273
1220.85,0.096249,540472,433036
1225.51,0.095323,549929,441554
1229.01,0.094989,556888,447485
1232.5,0.094425,562180,452325
1235.98,0.093790,567975,457656
1239.46,0.092627,574815,464410
1242.94,0.091898,582782,471637
1246.41,0.091184,591476,479461
1251.03,0.090987,604016,489848
1254.5,0.091410,612289,496074
1257.96,0.091815,619125,501145
1261.41,0.092236,624551,505047
1264.86,0.092790,629900,508723
1268.31,0.093107,634345,511939
1271.75,0.094056,638574,514228
1276.33,0.093805,642499,517687
1279.76,0.093831,645905,520400
1283.19,0.093589,648307,522627
1286.61,0.092620,650446,525523
1290.03,0.092543,652132,526978
1293.44,0.092217,653907,528809
1296.85,0.091661,655963,531151
1301.39,0.091416,657349,532574
1304.8,0.091420,657558,532739
1308.19,0.091279,658515,533687
1311.58,0.091789,658804,533295
1314.97,0.092159,659011,533008
1318.36,0.092619,658272,531846
1321.73,0.092515,658022,531772
1326.23,0.093451,657870,530505
1329.6,0.094067,656482,528635
1332.97,0.095236,654926,525964
1336.33,0.095614,653727,524544
1339.69,0.097286,652497,521546
1343.04,0.098440,649913,518102
1346.39,0.100821,647671,513492
1349.73,0.102556,645338,509602
1354.18,0.105548,641175,502838
1357.52,0.107281,638376,498650
1360.85,0.108905,635805,494788
1364.17,0.111261,633413,490260
1367.49,0.113931,631026,485418
1370.81,0.115067,628050,481867
1374.12,0.117502,625034,476872
1378.54,0.120694,620272,469773
1381.84,0.123027,616892,464710
1385.14,0.125960,613613,459129
1388.43,0.129599,611526,453749
1391.72,0.133498,610663,449059
1395.01,0.136751,610634,445687
1398.29,0.140996,611700,442122
1402.66,0.147032,614051,437696
1405.93,0.151492,616268,434788
1409.2,0.155913,617795,431451
1412.46,0.160435,618872,427726
1415.72,0.163820,619795,425038
1418.98,0.167345,620495,422079
1422.23,0.170366,621087,419553
1426.56,0.174676,621375,415602
1429.8,0.176237,621616,414272
1433.04,0.179305,622129,411695
1436.27,0.181247,621526,409461
1439.5,0.183387,621113,407177
1442.72,0.186025,620921,404586
1445.94,0.188429,620270,401931
1450.23,0.191927,618860,397801
1453.44,0.194645,617697,394576
1456.64,0.197804,616264,390807
1459.85,0.200037,614413,387635
1463.04,0.203560,612307,383186
1466.24,0.206857,610032,378875
1469.43,0.211173,607345,373476
1473.67,0.217491,603789,365927
1476.85,0.223955,601175,358960
1480.02,0.229792,597737,352142
1483.19,0.236723,594479,344678
1486.36,0.242971,591232,337899
1489.52,0.247464,587853,332510
1492.68,0.251045,583875,327548
1496.89,0.253504,578062,322456
1500.03,0.253827,574159,320041
1503.18,0.253934,570285,317803
1506.32,0.252976,565444,315801
1509.45,0.251704,560571,313998
1512.58,0.250036,555821,312535
1515.71,0.247697,550344,311127
1519.87,0.244434,543983,309850
1522.99,0.242228,538764,308440
1526.1,0.239474,533692,307480
1529.21,0.236968,527902,305904
1532.32,0.233484,521886,304854
1535.42,0.231001,515888,303078
1538.51,0.227802,509987,301826
1541.6,0.225034,503936,300152
1545.72,0.221102,494694,297327
1548.8,0.218576,488378,295243
1551.88,0.215345,481832,293461
1554.95,0.213741,474989,290364
1558.02,0.212475,467818,286815
1561.08,0.211165,460730,283323
1564.15,0.211272,454170,279220
1568.22,0.209551,444181,274163
1571.27,0.208959,436947,270066
1574.32,0.208308,429598,265922
1577.36,0.207212,422039,261903
1580.4,0.205823,414375,257971
1583.43,0.204690,406354,253638
1586.46,0.203430,398475,249443
1590.49,0.201514,388982,244577
1593.51,0.199011,380708,240758
1596.53,0.196928,372727,236844
1599.54,0.195131,365060,232934
1602.55,0.193730,357543,228875
1605.55,0.191455,349495,224898
1608.55,0.189434,341154,220555
1612.54,0.188422,330877,214410
1615.53,0.185898,322904,210463
1618.51,0.186120,315116,205282
1621.49,0.184725,307217,200780
1624.47,0.183241,299481,196394
1627.44,0.183195,292112,191582
1630.41,0.181807,284245,187019
1634.36,0.181011,274079,180661
1637.32,0.179534,266916,176539
1640.27,0.179147,259612,171861
1643.22,0.177689,251804,167253
1646.16,0.176426,244348,162773
1649.1,0.176287,236703,157731
1652.04,0.174974,228171,152506
1655.95,0.170456,215408,145481
1658.88,0.168796,204937,138939
1661.8,0.162411,193395,133056
1664.72,0.155823,179728,125543
1667.63,0.142186,163642,117953
1670.54,0.127587,146312,109067
1673.44,0.111085,128451,99461
1677.31,0.088468,105080,85714
1680.21,0.076029,88906,74628
1683.1,0.070970,75033,63721
1685.99,0.071822,63520,53838
1688.87,0.070856,53714,45628
1691.75,0.079274,45653,38036
1694.62,0.086556,39137,32065
1697.49,0.094902,33776,27146
1701.31,0.097508,28175,22509