Folder: textile_sorting_NIRSCAN_/samples/wool/wool-000811 (part 178)

File: Column 1_050630_20150331_123745.csv
Method:,Column 1,,
Host Date-Time:,31/3/15 @ 12:37:45,,
Header Version:,1,,
System Temp (C):,34.13,,
Detector Temp (C):,35.08,,
Humidity (%):,1.56,,
Lamp PD:,3818,,
Shift Vector Coefficients:,-10.5391,0.0761263,-0.000134223,,
Pixel to Wavelength Coefficients:,1775.68,-0.916766,-0.000235065,,
Serial Number:,5510004,,
Scan Config Name:,Column 1,,
Scan Config Type:,Slew,,
Section 1,,
Start wavelength (nm):,900,,
End wavelength (nm):,1700,,
Pattern Pixel Width (nm):,   7.03,,,,
Exposure (ms):,  0.635,,,,
Digital Resolution:,228,,
Num Repeats:,6,,
PGA Gain:,64,,
Total Measurement Time in sec:,  2.677,,
Wavelength (nm),Absorbance (AU),Reference Signal (unitless),Sample Signal (unitless)
901.51,0.067574,108485,92853
905.376,0.073392,121306,102445
909.237,0.077813,131909,110271
913.095,0.078247,143299,119673
916.948,0.079418,156982,130747
922.079,0.079023,179937,150002
925.923,0.082143,200504,165951
929.762,0.082086,222660,184313
933.597,0.082990,244426,201910
937.427,0.080499,263972,219310
941.254,0.079194,281845,234864
945.076,0.079099,297271,247773
950.165,0.077154,315605,264235
953.978,0.077134,328029,274649
957.786,0.076392,340470,285553
961.59,0.077586,352317,294678
965.389,0.077129,363056,303980
969.185,0.077474,373162,312193
972.976,0.077314,382632,320234
976.763,0.077803,391202,327038
981.806,0.078730,400190,333838
985.583,0.078526,406088,338918
989.355,0.078870,410162,342047
993.124,0.079497,412868,343807
996.888,0.080166,414263,344437
1000.65,0.081171,415476,344647
1004.4,0.081953,415479,344030
1009.41,0.083356,414358,341995
1013.15,0.083831,412923,340438
1016.89,0.084135,411526,339049
1020.63,0.084283,409066,336907
1024.36,0.084371,406777,334954
1028.09,0.083798,404427,333459
1031.82,0.083865,401911,331333
1036.78,0.083534,398410,328697
1040.49,0.083476,396204,326921
1044.2,0.082891,394236,325736
1047.91,0.083181,392042,323707
1051.61,0.082215,389823,322591
1055.31,0.082460,388234,321095
1059,0.081684,387599,321143
1063.92,0.081130,386688,320797
1067.61,0.079934,386598,321607
1071.29,0.079996,387377,322209
1074.96,0.079572,388536,323489
1078.63,0.079232,389855,324841
1082.3,0.077435,391215,327326
1085.96,0.076510,393215,329701
1090.84,0.076424,396270,332328
1094.49,0.074976,398760,335533
1098.14,0.075074,400987,337331
1101.79,0.074414,403477,339942
1105.43,0.074116,406116,342400
1109.06,0.073716,407701,344053
1112.7,0.072613,409859,346754
1117.53,0.072702,412494,348912
1121.15,0.072870,414909,350819
1124.77,0.073400,416559,351784
1128.38,0.074355,418532,352674
1131.99,0.075518,419956,352928
1135.6,0.076419,421946,353865
1139.2,0.077973,423881,354218
1143.99,0.079977,426786,355004
1147.58,0.081092,428617,355613
1151.17,0.081625,431169,357291
1154.75,0.081871,433579,359085
1158.33,0.083206,436264,360200
1161.91,0.085628,439132,360551
1165.48,0.087534,442389,361635
1169.04,0.089880,446101,362705
1173.79,0.092774,451929,365003
1177.34,0.095083,456026,366359
1180.9,0.097360,461306,368663
1184.44,0.098887,467657,372426
1187.99,0.100045,473969,376448
1191.52,0.100419,479856,380796
1195.06,0.100247,487372,386913
1199.76,0.099532,497347,395483
1203.29,0.098266,504311,402191
1206.81,0.098196,511507,407996
1210.33,0.097462,519078,414735
1213.84,0.096960,527163,421682
1217.35,0.096939,534208,427338
1220.85,0.095886,540472,433398
1225.51,0.094876,549929,442008
1229.01,0.094382,556888,448111
1232.5,0.093774,562180,453003
1235.98,0.093389,567975,458079
1239.46,0.092166,574815,464903
1242.94,0.091433,582782,472143
1246.41,0.090846,591476,479834
1251.03,0.090923,604016,489920
1254.5,0.091015,612289,496525
1257.96,0.091611,619125,501380
1261.41,0.091717,624551,505651
1264.86,0.092624,629900,508918
1268.31,0.092750,634345,512360
1271.75,0.093692,638574,514659
1276.33,0.093661,642499,517859
1279.76,0.093840,645905,520390
1283.19,0.092842,648307,523526
1286.61,0.092549,650446,525608
1290.03,0.092285,652132,527291
1293.44,0.091796,653907,529322
1296.85,0.091366,655963,531512
1301.39,0.091341,657349,532666
1304.8,0.091164,657558,533053
1308.19,0.091328,658515,533627
1311.58,0.091446,658804,533716
1314.97,0.092011,659011,533189
1318.36,0.092172,658272,532394
1321.73,0.092630,658022,531631
1326.23,0.093473,657870,530478
1329.6,0.093863,656482,528883
1332.97,0.094775,654926,526523
1336.33,0.095640,653727,524513
1339.69,0.097036,652497,521846
1343.04,0.098351,649913,518208
1346.39,0.100559,647671,513802
1349.73,0.102192,645338,510030
1354.18,0.105088,641175,503371
1357.52,0.106798,638376,499204
1360.85,0.108675,635805,495050
1364.17,0.110751,633413,490836
1367.49,0.112723,631026,486770
1370.81,0.115782,628050,481074
1374.12,0.117441,625034,476939
1378.54,0.120074,620272,470444
1381.84,0.122752,616892,465004
1385.14,0.125963,613613,459126
1388.43,0.129253,611526,454111
1391.72,0.132590,610663,449999
1395.01,0.136818,610634,445618
1398.29,0.140634,611700,442491
1402.66,0.146898,614051,437831
1405.93,0.151328,616268,434952
1409.2,0.155603,617795,431759
1412.46,0.159435,618872,428712
1415.72,0.163921,619795,424939
1418.98,0.166898,620495,422513
1422.23,0.170111,621087,419799
1426.56,0.173759,621375,416481
1429.8,0.176013,621616,414485
1433.04,0.178820,622129,412155
1436.27,0.181150,621526,409552
1439.5,0.182982,621113,407557
1442.72,0.185258,620921,405302
1445.94,0.188192,620270,402151
1450.23,0.191463,618860,398226
1453.44,0.194393,617697,394805
1456.64,0.196950,616264,391577
1459.85,0.200679,614413,387063
1463.04,0.202805,612307,383852
1466.24,0.206403,610032,379271
1469.43,0.210478,607345,374074
1473.67,0.217012,603789,366331
1476.85,0.223190,601175,359593
1480.02,0.229324,597737,352522
1483.19,0.236453,594479,344892
1486.36,0.242396,591232,338347
1489.52,0.246672,587853,333117
1492.68,0.250569,583875,327907
1496.89,0.252932,578062,322881
1500.03,0.253496,574159,320285
1503.18,0.253143,570285,318382
1506.32,0.252778,565444,315945
1509.45,0.251207,560571,314357
1512.58,0.250278,555821,312361
1515.71,0.247038,550344,311599
1519.87,0.243644,543983,310414
1522.99,0.240831,538764,309434
1526.1,0.239364,533692,307558
1529.21,0.235786,527902,306738
1532.32,0.233588,521886,304781
1535.42,0.230325,515888,303550
1538.51,0.227661,509987,301924
1541.6,0.224242,503936,300700
1545.72,0.220593,494694,297676
1548.8,0.218056,488378,295597
1551.88,0.215721,481832,293207
1554.95,0.213814,474989,290315
1558.02,0.212210,467818,286990
1561.08,0.211163,460730,283324
1564.15,0.210402,454170,279780
1568.22,0.209595,444181,274135
1571.27,0.208698,436947,270228
1574.32,0.207363,429598,266501
1577.36,0.206634,422039,262252
1580.4,0.205752,414375,258013
1583.43,0.204112,406354,253976
1586.46,0.202819,398475,249794
1590.49,0.200758,388982,245003
1593.51,0.198761,380708,240897
1596.53,0.196710,372727,236963
1599.54,0.195551,365060,232709
1602.55,0.192812,357543,229359
1605.55,0.191235,349495,225012
1608.55,0.189422,341154,220561
1612.54,0.187299,330877,214965
1615.53,0.185615,322904,210600
1618.51,0.184711,315116,205949
1621.49,0.183774,307217,201220
1624.47,0.182901,299481,196548
1627.44,0.182665,292112,191816
1630.41,0.180972,284245,187379
1634.36,0.179104,274079,181456
1637.32,0.179372,266916,176605
1640.27,0.178953,259612,171938
1643.22,0.177767,251804,167223
1646.16,0.175981,244348,162940
1649.1,0.174833,236703,158260
1652.04,0.173833,228171,152907
1655.95,0.170106,215408,145598
1658.88,0.167460,204937,139367
1661.8,0.162394,193395,133061
1664.72,0.153006,179728,126360
1667.63,0.140286,163642,118470
1670.54,0.125446,146312,109606
1673.44,0.109620,128451,99797
1677.31,0.087760,105080,85854
1680.21,0.075297,88906,74754
1683.1,0.073149,75033,63402
1685.99,0.069424,63520,54136
1688.87,0.075911,53714,45100
1691.75,0.075670,45653,38353
1694.62,0.082955,39137,32332
1697.49,0.084282,33776,27818
1701.31,0.094642,28175,22658

File: Column 1_050630_20150331_123748.csv
Method:,Column 1,,
Host Date-Time:,31/3/15 @ 12:37:48,,
Header Version:,1,,
System Temp (C):,34.17,,
Detector Temp (C):,35.08,,
Humidity (%):,1.56,,
Lamp PD:,3818,,
Shift Vector Coefficients:,-10.5391,0.0761263,-0.000134223,,
Pixel to Wavelength Coefficients:,1775.68,-0.916766,-0.000235065,,
Serial Number:,5510004,,
Scan Config Name:,Column 1,,
Scan Config Type:,Slew,,
Section 1,,
Start wavelength (nm):,900,,
End wavelength (nm):,1700,,
Pattern Pixel Width (nm):,   7.03,,,,
Exposure (ms):,  0.635,,,,
Digital Resolution:,228,,
Num Repeats:,6,,
PGA Gain:,64,,
Total Measurement Time in sec:,  2.725,,
Wavelength (nm),Absorbance (AU),Reference Signal (unitless),Sample Signal (unitless)
901.51,0.070497,108485,92230
905.376,0.076950,121306,101609
909.237,0.077943,131909,110238
913.095,0.078134,143299,119704
916.948,0.079780,156982,130638
922.079,0.081194,179937,149254
925.923,0.082190,200504,165933
929.762,0.083684,222660,183636
933.597,0.082964,244426,201922
937.427,0.080773,263972,219172
941.254,0.080442,281845,234190
945.076,0.079842,297271,247349
950.165,0.078195,315605,263602
953.978,0.076843,328029,274833
957.786,0.077662,340470,284719
961.59,0.077859,352317,294493
965.389,0.077924,363056,303424
969.185,0.077232,373162,312367
972.976,0.077904,382632,319799
976.763,0.077699,391202,327116
981.806,0.078712,400190,333852
985.583,0.079408,406088,338230
989.355,0.080123,410162,341061
993.124,0.080206,412868,343246
996.888,0.080588,414263,344103
1000.65,0.081262,415476,344575
1004.4,0.082501,415479,343596
1009.41,0.083804,414358,341642
1013.15,0.083576,412923,340638
1016.89,0.084871,411526,338475
1020.63,0.084228,409066,336950
1024.36,0.084880,406777,334562
1028.09,0.084499,404427,332921
1031.82,0.084471,401911,330871
1036.78,0.083924,398410,328402
1040.49,0.083883,396204,326615
1044.2,0.083458,394236,325311
1047.91,0.083311,392042,323610
1051.61,0.083173,389823,321880
1055.31,0.082379,388234,321155
1059,0.082376,387599,320632
1063.92,0.081572,386688,320471
1067.61,0.080890,386598,320900
1071.29,0.080600,387377,321761
1074.96,0.079527,388536,323522
1078.63,0.079583,389855,324579
1082.3,0.077981,391215,326915
1085.96,0.077585,393215,328886
1090.84,0.076782,396270,332054
1094.49,0.076081,398760,334681
1098.14,0.075996,400987,336616
1101.79,0.074464,403477,339903
1105.43,0.074365,406116,342204
1109.06,0.073670,407701,344090
1112.7,0.073622,409859,345949
1117.53,0.073175,412494,348532
1121.15,0.074013,414909,349897
1124.77,0.073895,416559,351384
1128.38,0.074602,418532,352474
1131.99,0.075787,419956,352709
1135.6,0.077396,421946,353070
1139.2,0.078613,423881,353697
1143.99,0.080244,426786,354786
1147.58,0.080435,428617,356151
1151.17,0.082174,431169,356840
1154.75,0.082838,433579,358286
1158.33,0.084222,436264,359358
1161.91,0.085771,439132,360433
1165.48,0.088028,442389,361224
1169.04,0.090167,446101,362465
1173.79,0.093208,451929,364638
1177.34,0.096404,456026,365246
1180.9,0.097691,461306,368382
1184.44,0.099657,467657,371767
1187.99,0.100845,473969,375755
1191.52,0.100375,479856,380834
1195.06,0.100659,487372,386546
1199.76,0.100502,497347,394600
1203.29,0.099169,504311,401356
1206.81,0.098825,511507,407405
1210.33,0.097853,519078,414362
1213.84,0.097339,527163,421314
1217.35,0.097357,534208,426927
1220.85,0.096610,540472,432676
1225.51,0.095266,549929,441612
1229.01,0.094529,556888,447960
1232.5,0.094346,562180,452407
1235.98,0.093400,567975,458067
1239.46,0.092701,574815,464330
1242.94,0.091527,582782,472040
1246.41,0.090922,591476,479750
1251.03,0.090953,604016,489886
1254.5,0.090641,612289,496953
1257.96,0.091441,619125,501577
1261.41,0.091965,624551,505362
1264.86,0.092498,629900,509066
1268.31,0.093011,634345,512053
1271.75,0.094186,638574,514074
1276.33,0.093747,642499,517756
1279.76,0.094036,645905,520155
1283.19,0.093714,648307,522477
1286.61,0.092744,650446,525372
1290.03,0.092794,652132,526673
1293.44,0.092171,653907,528865
1296.85,0.091723,655963,531076
1301.39,0.091440,657349,532545
1304.8,0.091780,657558,532297
1308.19,0.091623,658515,533265
1311.58,0.091735,658804,533361
1314.97,0.092173,659011,532991
1318.36,0.092450,658272,532053
1321.73,0.092844,658022,531369
1326.23,0.093521,657870,530419
1329.6,0.094461,656482,528155
1332.97,0.094963,654926,526295
1336.33,0.095708,653727,524431
1339.69,0.097383,652497,521430
1343.04,0.098744,649913,517740
1346.39,0.100497,647671,513875
1349.73,0.102981,645338,509104
1354.18,0.105259,641175,503173
1357.52,0.107416,638376,498495
1360.85,0.109247,635805,494398
1364.17,0.111134,633413,490403
1367.49,0.113511,631026,485888
1370.81,0.115765,628050,481093
1374.12,0.117228,625034,477173
1378.54,0.120238,620272,470267
1381.84,0.122795,616892,464958
1385.14,0.126073,613613,459009
1388.43,0.129499,611526,453854
1391.72,0.133291,610663,449273
1395.01,0.137394,610634,445028
1398.29,0.141180,611700,441935
1402.66,0.146755,614051,437975
1405.93,0.152126,616268,434154
1409.2,0.155775,617795,431588
1412.46,0.160195,618872,427963
1415.72,0.163515,619795,425337
1418.98,0.167096,620495,422321
1422.23,0.170376,621087,419543
1426.56,0.174229,621375,416030
1429.8,0.176443,621616,414075
1433.04,0.179637,622129,411380
1436.27,0.181196,621526,409509
1439.5,0.183045,621113,407498
1442.72,0.185907,620921,404696
1445.94,0.188329,620270,402024
1450.23,0.192124,618860,397620
1453.44,0.194811,617697,394425
1456.64,0.197891,616264,390729
1459.85,0.200371,614413,387337
1463.04,0.203245,612307,383464
1466.24,0.207289,610032,378498
1469.43,0.211005,607345,373620
1473.67,0.217657,603789,365787
1476.85,0.223851,601175,359046
1480.02,0.230153,597737,351850
1483.19,0.236446,594479,344898
1486.36,0.242932,591232,337929
1489.52,0.247508,587853,332476
1492.68,0.251569,583875,327153
1496.89,0.252818,578062,322966
1500.03,0.253605,574159,320204
1503.18,0.254309,570285,317529
1506.32,0.252602,565444,316073
1509.45,0.251962,560571,313811
1512.58,0.250387,555821,312283
1515.71,0.247764,550344,311079
1519.87,0.244243,543983,309986
1522.99,0.241555,538764,308918
1526.1,0.239129,533692,307724
1529.21,0.236615,527902,306153
1532.32,0.234018,521886,304479
1535.42,0.230981,515888,303092
1538.51,0.228282,509987,301493
1541.6,0.225203,503936,300035
1545.72,0.220886,494694,297475
1548.8,0.218646,488378,295196
1551.88,0.216004,481832,293016
1554.95,0.214449,474989,289891
1558.02,0.211945,467818,287165
1561.08,0.211405,460730,283166
1564.15,0.210621,454170,279639
1568.22,0.209182,444181,274396
1571.27,0.209483,436947,269740
1574.32,0.208764,429598,265643
1577.36,0.207816,422039,261539
1580.4,0.206631,414375,257491
1583.43,0.204425,406354,253793
1586.46,0.203703,398475,249286
1590.49,0.201747,388982,244446
1593.51,0.200019,380708,240200
1596.53,0.197540,372727,236511
1599.54,0.195116,365060,232942
1602.55,0.193791,357543,228843
1605.55,0.192306,349495,224458
1608.55,0.189601,341154,220470
1612.54,0.187895,330877,214670
1615.53,0.186306,322904,210265
1618.51,0.185363,315116,205640
1621.49,0.184308,307217,200973
1624.47,0.182647,299481,196663
1627.44,0.182576,292112,191855
1630.41,0.180592,284245,187543
1634.36,0.180656,274079,180809
1637.32,0.179753,266916,176450
1640.27,0.179334,259612,171787
1643.22,0.178476,251804,166950
1646.16,0.177479,244348,162379
1649.1,0.176540,236703,157639
1652.04,0.174911,228171,152528
1655.95,0.171544,215408,145117
1658.88,0.168684,204937,138975
1661.8,0.163159,193395,132827
1664.72,0.155059,179728,125764
1667.63,0.142285,163642,117926
1670.54,0.126298,146312,109391
1673.44,0.111771,128451,99304
1677.31,0.091836,105080,85052
1680.21,0.080828,88906,73808
1683.1,0.076098,75033,62973
1685.99,0.075296,63520,53409
1688.87,0.080811,53714,44594
1691.75,0.080521,45653,37927
1694.62,0.090830,39137,31751
1697.49,0.094087,33776,27197
1701.31,0.098222,28175,22472

File: Column 1_050630_20150331_123751.csv
Method:,Column 1,,
Host Date-Time:,31/3/15 @ 12:37:51,,
Header Version:,1,,
System Temp (C):,34.14,,
Detector Temp (C):,35.1,,
Humidity (%):,1.56,,
Lamp PD:,3818,,
Shift Vector Coefficients:,-10.5391,0.0761263,-0.000134223,,
Pixel to Wavelength Coefficients:,1775.68,-0.916766,-0.000235065,,
Serial Number:,5510004,,
Scan Config Name:,Column 1,,
Scan Config Type:,Slew,,
Section 1,,
Start wavelength (nm):,900,,
End wavelength (nm):,1700,,
Pattern Pixel Width (nm):,   7.03,,,,
Exposure (ms):,  0.635,,,,
Digital Resolution:,228,,
Num Repeats:,6,,
PGA Gain:,64,,
Total Measurement Time in sec:,  2.732,,
Wavelength (nm),Absorbance (AU),Reference Signal (unitless),Sample Signal (unitless)
901.51,0.069059,108485,92536
905.376,0.074478,121306,102189
909.237,0.076386,131909,110634
913.095,0.077609,143299,119849
916.948,0.078814,156982,130929
922.079,0.079296,179937,149908
925.923,0.082211,200504,165925
929.762,0.082836,222660,183995
933.597,0.081469,244426,202618
937.427,0.081145,263972,218984
941.254,0.079505,281845,234696
945.076,0.079006,297271,247826
950.165,0.077686,315605,263911
953.978,0.076289,328029,275184
957.786,0.077367,340470,284913
961.59,0.076959,352317,295104
965.389,0.077286,363056,303870
969.185,0.077199,373162,312391
972.976,0.077525,382632,320078
976.763,0.077852,391202,327001
981.806,0.078456,400190,334049
985.583,0.078560,406088,338891
989.355,0.079580,410162,341488
993.124,0.079301,412868,343962
996.888,0.080310,414263,344323
1000.65,0.081241,415476,344592
1004.4,0.081639,415479,344279
1009.41,0.083350,414358,342000
1013.15,0.083636,412923,340591
1016.89,0.084300,411526,338920
1020.63,0.084218,409066,336958
1024.36,0.083792,406777,335401
1028.09,0.084529,404427,332898
1031.82,0.083635,401911,331509
1036.78,0.083558,398410,328679
1040.49,0.083343,396204,327021
1044.2,0.083536,394236,325252
1047.91,0.082502,392042,324213
1051.61,0.082811,389823,322149
1055.31,0.082372,388234,321160
1059,0.081227,387599,321481
1063.92,0.081109,386688,320813
1067.61,0.080106,386598,321480
1071.29,0.079876,387377,322298
1074.96,0.079499,388536,323543
1078.63,0.078484,389855,325401
1082.3,0.077649,391215,327165
1085.96,0.076867,393215,329430
1090.84,0.076012,396270,332644
1094.49,0.075949,398760,334782
1098.14,0.074970,400987,337412
1101.79,0.074438,403477,339923
1105.43,0.073441,406116,342933
1109.06,0.073001,407701,344620
1112.7,0.073039,409859,346414
1117.53,0.072681,412494,348929
1121.15,0.073269,414909,350497
1124.77,0.073093,416559,352033
1128.38,0.073964,418532,352992
1131.99,0.075088,419956,353277
1135.6,0.076205,421946,354040
1139.2,0.078147,423881,354076
1143.99,0.079581,426786,355328
1147.58,0.080301,428617,356261
1151.17,0.081447,431169,357438
1154.75,0.082149,433579,358855
1158.33,0.083860,436264,359658
1161.91,0.085851,439132,360366
1165.48,0.087488,442389,361673
1169.04,0.089901,446101,362687
1173.79,0.093433,451929,364449
1177.34,0.094816,456026,366584
1180.9,0.097130,461306,368858
1184.44,0.099418,467657,371971
1187.99,0.100011,473969,376477
1191.52,0.100192,479856,380995
1195.06,0.099980,487372,387151
1199.76,0.099554,497347,395463
1203.29,0.098643,504311,401842
1206.81,0.098144,511507,408045
1210.33,0.097561,519078,414640
1213.84,0.097292,527163,421360
1217.35,0.096829,534208,427446
1220.85,0.096213,540472,433072
1225.51,0.095157,549929,441723
1229.01,0.095000,556888,447474
1232.5,0.094074,562180,452690
1235.98,0.093381,567975,458087
1239.46,0.092345,574815,464711
1242.94,0.091481,582782,472090
1246.41,0.090889,591476,479787
1251.03,0.090667,604016,490209
1254.5,0.091215,612289,496297
1257.96,0.091562,619125,501437
1261.41,0.092056,624551,505257
1264.86,0.092490,629900,509075
1268.31,0.092711,634345,512406
1271.75,0.093795,638574,514537
1276.33,0.093809,642499,517683
1279.76,0.093795,645905,520444
1283.19,0.092987,648307,523352
1286.61,0.092929,650446,525149
1290.03,0.092597,652132,526912
1293.44,0.091870,653907,529232
1296.85,0.091347,655963,531535
1301.39,0.091303,657349,532713
1304.8,0.091223,657558,532980
1308.19,0.091619,658515,533269
1311.58,0.091323,658804,533867
1314.97,0.091800,659011,533449
1318.36,0.092552,658272,531929
1321.73,0.092509,658022,531779
1326.23,0.093397,657870,530571
1329.6,0.093981,656482,528739
1332.97,0.094671,654926,526649
1336.33,0.095720,653727,524416
1339.69,0.096891,652497,522021
1343.04,0.098411,649913,518137
1346.39,0.100683,647671,513655
1349.73,0.102281,645338,509925
1354.18,0.104877,641175,503616
1357.52,0.107053,638376,498912
1360.85,0.109208,635805,494443
1364.17,0.111333,633413,490178
1367.49,0.113371,631026,486045
1370.81,0.115807,628050,481047
1374.12,0.117302,625034,477091
1378.54,0.120114,620272,470401
1381.84,0.123001,616892,464738
1385.14,0.125624,613613,459484
1388.43,0.129406,611526,453951
1391.72,0.132926,610663,449651
1395.01,0.136810,610634,445626
1398.29,0.141010,611700,442108
1402.66,0.146389,614051,438344
1405.93,0.151428,616268,434852
1409.2,0.155674,617795,431688
1412.46,0.159403,618872,428744
1415.72,0.163697,619795,425159
1418.98,0.166972,620495,422441
1422.23,0.170325,621087,419592
1426.56,0.173551,621375,416680
1429.8,0.176480,621616,414040
1433.04,0.178776,622129,412197
1436.27,0.181071,621526,409627
1439.5,0.182776,621113,407751
1442.72,0.185124,620921,405427
1445.94,0.188168,620270,402173
1450.23,0.191294,618860,398381
1453.44,0.194578,617697,394637
1456.64,0.197472,616264,391106
1459.85,0.200454,614413,387263
1463.04,0.203136,612307,383560
1466.24,0.206897,610032,378840
1469.43,0.210536,607345,374024
1473.67,0.217218,603789,366157
1476.85,0.223336,601175,359472
1480.02,0.229459,597737,352412
1483.19,0.235942,594479,345298
1486.36,0.242149,591232,338539
1489.52,0.247613,587853,332396
1492.68,0.250857,583875,327690
1496.89,0.253348,578062,322572
1500.03,0.253671,574159,320156
1503.18,0.253887,570285,317837
1506.32,0.252558,565444,316105
1509.45,0.250935,560571,314554
1512.58,0.249578,555821,312865
1515.71,0.247186,550344,311493
1519.87,0.244264,543983,309971
1522.99,0.241308,538764,309094
1526.1,0.239403,533692,307530
1529.21,0.236256,527902,306406
1532.32,0.233380,521886,304927
1535.42,0.230975,515888,303096
1538.51,0.227689,509987,301905
1541.6,0.224625,503936,300435
1545.72,0.220677,494694,297618
1548.8,0.218052,488378,295600
1551.88,0.215236,481832,293535
1554.95,0.214274,474989,290008
1558.02,0.212516,467818,286788
1561.08,0.210304,460730,283885
1564.15,0.209856,454170,280132
1568.22,0.209781,444181,274018
1571.27,0.208607,436947,270285
1574.32,0.207280,429598,266552
1577.36,0.207060,422039,261995
1580.4,0.206240,414375,257723
1583.43,0.203307,406354,254447
1586.46,0.202981,398475,249701
1590.49,0.200888,388982,244930
1593.51,0.198555,380708,241011
1596.53,0.196741,372727,236946
1599.54,0.194275,365060,233394
1602.55,0.193392,357543,229053
1605.55,0.191052,349495,225107
1608.55,0.188694,341154,220931
1612.54,0.187036,330877,215095
1615.53,0.186931,322904,209963
1618.51,0.184844,315116,205886
1621.49,0.183308,307217,201436
1624.47,0.183007,299481,196500
1627.44,0.182454,292112,191909
1630.41,0.181007,284245,187364
1634.36,0.179387,274079,181338
1637.32,0.179244,266916,176657
1640.27,0.178438,259612,172142
1643.22,0.176680,251804,167642
1646.16,0.176584,244348,162714
1649.1,0.175769,236703,157919
1652.04,0.175247,228171,152410
1655.95,0.170674,215408,145408
1658.88,0.167295,204937,139420
1661.8,0.161107,193395,133456
1664.72,0.153632,179728,126178
1667.63,0.140143,163642,118509
1670.54,0.125608,146312,109565
1673.44,0.107484,128451,100289
1677.31,0.090622,105080,85290
1680.21,0.079189,88906,74087
1683.1,0.069955,75033,63870
1685.99,0.068207,63520,54288
1688.87,0.070143,53714,45703
1691.75,0.079514,45653,38015
1694.62,0.085839,39137,32118
1697.49,0.090192,33776,27442
1701.31,0.097662,28175,22501