Folder: textile_sorting_NIRSCAN_/samples/wool/wool-000811 (part 63)

File: Column 1_050565_20150331_120650.csv
Method:,Column 1,,
Host Date-Time:,31/3/15 @ 12:6:50,,
Header Version:,1,,
System Temp (C):,33.89,,
Detector Temp (C):,33.66,,
Humidity (%):,1.95,,
Lamp PD:,3819,,
Shift Vector Coefficients:,-10.5391,0.0761263,-0.000134223,,
Pixel to Wavelength Coefficients:,1775.68,-0.916766,-0.000235065,,
Serial Number:,5510004,,
Scan Config Name:,Column 1,,
Scan Config Type:,Slew,,
Section 1,,
Start wavelength (nm):,900,,
End wavelength (nm):,1700,,
Pattern Pixel Width (nm):,   7.03,,,,
Exposure (ms):,  0.635,,,,
Digital Resolution:,228,,
Num Repeats:,6,,
PGA Gain:,64,,
Total Measurement Time in sec:,  2.684,,
Wavelength (nm),Absorbance (AU),Reference Signal (unitless),Sample Signal (unitless)
901.51,0.033961,108485,100325
905.376,0.037711,121306,111217
909.237,0.042808,131909,119527
913.095,0.041866,143299,130130
916.948,0.043944,156982,141875
922.079,0.046209,179937,161775
925.923,0.047292,200504,179817
929.762,0.047760,222660,199472
933.597,0.048477,244426,218610
937.427,0.047771,263972,236476
941.254,0.047880,281845,252424
945.076,0.046950,297271,266810
950.165,0.046375,315605,283641
953.978,0.045609,328029,295327
957.786,0.046257,340470,306071
961.59,0.046486,352317,316554
965.389,0.046416,363056,326255
969.185,0.046365,373162,335376
972.976,0.046934,382632,343437
976.763,0.047606,391202,350586
981.806,0.048448,400190,357947
985.583,0.049178,406088,362612
989.355,0.049372,410162,366086
993.124,0.049494,412868,368398
996.888,0.050437,414263,368841
1000.65,0.051321,415476,369169
1004.4,0.052558,415479,368121
1009.41,0.053986,414358,365923
1013.15,0.054348,412923,364352
1016.89,0.054600,411526,362909
1020.63,0.055169,409066,360267
1024.36,0.054387,406777,358897
1028.09,0.053886,404427,357235
1031.82,0.054448,401911,354554
1036.78,0.053656,398410,352107
1040.49,0.053309,396204,350437
1044.2,0.053306,394236,348699
1047.91,0.052660,392042,347274
1051.61,0.052448,389823,345477
1055.31,0.052091,388234,344352
1059,0.050999,387599,344654
1063.92,0.050168,386688,344503
1067.61,0.049642,386598,344840
1071.29,0.048760,387377,346237
1074.96,0.048118,388536,347787
1078.63,0.048566,389855,348608
1082.3,0.047256,391215,350881
1085.96,0.046500,393215,353289
1090.84,0.045238,396270,357070
1094.49,0.046084,398760,358614
1098.14,0.045119,400987,361419
1101.79,0.044879,403477,363865
1105.43,0.044712,406116,366385
1109.06,0.044160,407701,368283
1112.7,0.044081,409859,370300
1117.53,0.044087,412494,372675
1121.15,0.044951,414909,374112
1124.77,0.045268,416559,375326
1128.38,0.046321,418532,376190
1131.99,0.048100,419956,375927
1135.6,0.049919,421946,376130
1139.2,0.051010,423881,376907
1143.99,0.053913,426786,376962
1147.58,0.055423,428617,377265
1151.17,0.055771,431169,379207
1154.75,0.057348,433579,379945
1158.33,0.059479,436264,380426
1161.91,0.061394,439132,381242
1165.48,0.063656,442389,382075
1169.04,0.066146,446101,383078
1173.79,0.070234,451929,384447
1177.34,0.072403,456026,385999
1180.9,0.074783,461306,388335
1184.44,0.076628,467657,392012
1187.99,0.077214,473969,396767
1191.52,0.077404,479856,401520
1195.06,0.077193,487372,408007
1199.76,0.075733,497347,417760
1203.29,0.075340,504311,423993
1206.81,0.074498,511507,430877
1210.33,0.073432,519078,438329
1213.84,0.072692,527163,445916
1217.35,0.072198,534208,452389
1220.85,0.071434,540472,458500
1225.51,0.070282,549929,467762
1229.01,0.069785,556888,474223
1232.5,0.069309,562180,479255
1235.98,0.068474,567975,485127
1239.46,0.067308,574815,492289
1242.94,0.066772,582782,499728
1246.41,0.066097,591476,507972
1251.03,0.065544,604016,519403
1254.5,0.065685,612289,526346
1257.96,0.066422,619125,531320
1261.41,0.066357,624551,536057
1264.86,0.067391,629900,539362
1268.31,0.067923,634345,542504
1271.75,0.068886,638574,544911
1276.33,0.069442,642499,547559
1279.76,0.069194,645905,550775
1283.19,0.068520,648307,553682
1286.61,0.067933,650446,556261
1290.03,0.067749,652132,557939
1293.44,0.067582,653907,559673
1296.85,0.066961,655963,562236
1301.39,0.066746,657349,563703
1304.8,0.067007,657558,563543
1308.19,0.067060,658515,564294
1311.58,0.067183,658804,564382
1314.97,0.067942,659011,563574
1318.36,0.068257,658272,562533
1321.73,0.068959,658022,561412
1326.23,0.069455,657870,560641
1329.6,0.070526,656482,558081
1332.97,0.071372,654926,555674
1336.33,0.072656,653727,553019
1339.69,0.074619,652497,549490
1343.04,0.076667,649913,544739
1346.39,0.078404,647671,540693
1349.73,0.080620,645338,536003
1354.18,0.083923,641175,528510
1357.52,0.085921,638376,523788
1360.85,0.087973,635805,519219
1364.17,0.090151,633413,514678
1367.49,0.092883,631026,509523
1370.81,0.095313,628050,504291
1374.12,0.097793,625034,499012
1378.54,0.101150,620272,491397
1381.84,0.104238,616892,485256
1385.14,0.108214,613613,478278
1388.43,0.112844,611526,471597
1391.72,0.117640,610663,465759
1395.01,0.122311,610634,460755
1398.29,0.127734,611700,455832
1402.66,0.135182,614051,449803
1405.93,0.141323,616268,445089
1409.2,0.146756,617795,440645
1412.46,0.151200,618872,436919
1415.72,0.156237,619795,432525
1418.98,0.160499,620495,428785
1422.23,0.164380,621087,425375
1426.56,0.168418,621375,421634
1429.8,0.170948,621616,419348
1433.04,0.173358,622129,417371
1436.27,0.176059,621526,414381
1439.5,0.178615,621113,411676
1442.72,0.181412,620921,408907
1445.94,0.183538,620270,406483
1450.23,0.187456,618860,401917
1453.44,0.190180,617697,398653
1456.64,0.193194,616264,394978
1459.85,0.195973,614413,391280
1463.04,0.198945,612307,387279
1466.24,0.201827,610032,383288
1469.43,0.205653,607345,378253
1473.67,0.211824,603789,370733
1476.85,0.217345,601175,364465
1480.02,0.223850,597737,356993
1483.19,0.230510,594479,349644
1486.36,0.236163,591232,343238
1489.52,0.241471,587853,337130
1492.68,0.245001,583875,332138
1496.89,0.247659,578062,326825
1500.03,0.248214,574159,324204
1503.18,0.248445,570285,321845
1506.32,0.247487,565444,319818
1509.45,0.246749,560571,317601
1512.58,0.244617,555821,316459
1515.71,0.242213,550344,315080
1519.87,0.239434,543983,313438
1522.99,0.235795,538764,313043
1526.1,0.233291,533692,311889
1529.21,0.231033,527902,310113
1532.32,0.227814,521886,308860
1535.42,0.224837,515888,307410
1538.51,0.221347,509987,306346
1541.6,0.218385,503936,304783
1545.72,0.213400,494694,302647
1548.8,0.209875,488378,301218
1551.88,0.207918,481832,298523
1554.95,0.205481,474989,295939
1558.02,0.203678,467818,292684
1561.08,0.202663,460730,288924
1564.15,0.202240,454170,285088
1568.22,0.199935,444181,280301
1571.27,0.200179,436947,275581
1574.32,0.199187,429598,271566
1577.36,0.197430,422039,267869
1580.4,0.196661,414375,263471
1583.43,0.194525,406354,259645
1586.46,0.192212,398475,255970
1590.49,0.190567,388982,250820
1593.51,0.188682,380708,246553
1596.53,0.185559,372727,243126
1599.54,0.184252,365060,238843
1602.55,0.181751,357543,235276
1605.55,0.179198,349495,231336
1608.55,0.176578,341154,227181
1612.54,0.174903,330877,221189
1615.53,0.172576,322904,217019
1618.51,0.172360,315116,211890
1621.49,0.170168,307217,207624
1624.47,0.168659,299481,203100
1627.44,0.167645,292112,198566
1630.41,0.166108,284245,193903
1634.36,0.165461,274079,187247
1637.32,0.164608,266916,182712
1640.27,0.164068,259612,177933
1643.22,0.163197,251804,172928
1646.16,0.162278,244348,168163
1649.1,0.161968,236703,163018
1652.04,0.159057,228171,158199
1655.95,0.158232,215408,149634
1658.88,0.154239,204937,143675
1661.8,0.150083,193395,136887
1664.72,0.142490,179728,129457
1667.63,0.134124,163642,120163
1670.54,0.122043,146312,110468
1673.44,0.109964,128451,99718
1677.31,0.096853,105080,84075
1680.21,0.088533,88906,72510
1683.1,0.086342,75033,61505
1685.99,0.085498,63520,52169
1688.87,0.091908,53714,43469
1691.75,0.095632,45653,36630
1694.62,0.103206,39137,30859
1697.49,0.106790,33776,26413
1701.31,0.120202,28175,21363

File: Column 1_050565_20150331_120653.csv
Method:,Column 1,,
Host Date-Time:,31/3/15 @ 12:6:53,,
Header Version:,1,,
System Temp (C):,33.85,,
Detector Temp (C):,33.66,,
Humidity (%):,1.95,,
Lamp PD:,3819,,
Shift Vector Coefficients:,-10.5391,0.0761263,-0.000134223,,
Pixel to Wavelength Coefficients:,1775.68,-0.916766,-0.000235065,,
Serial Number:,5510004,,
Scan Config Name:,Column 1,,
Scan Config Type:,Slew,,
Section 1,,
Start wavelength (nm):,900,,
End wavelength (nm):,1700,,
Pattern Pixel Width (nm):,   7.03,,,,
Exposure (ms):,  0.635,,,,
Digital Resolution:,228,,
Num Repeats:,6,,
PGA Gain:,64,,
Total Measurement Time in sec:,  2.729,,
Wavelength (nm),Absorbance (AU),Reference Signal (unitless),Sample Signal (unitless)
901.51,0.032923,108485,100565
905.376,0.040626,121306,110473
909.237,0.041571,131909,119868
913.095,0.042784,143299,129855
916.948,0.043127,156982,142142
922.079,0.045884,179937,161896
925.923,0.047495,200504,179733
929.762,0.048953,222660,198925
933.597,0.048243,244426,218728
937.427,0.047802,263972,236459
941.254,0.047005,281845,252933
945.076,0.046223,297271,267257
950.165,0.046182,315605,283767
953.978,0.045447,328029,295437
957.786,0.045790,340470,306400
961.59,0.046190,352317,316770
965.389,0.046408,363056,326261
969.185,0.046717,373162,335105
972.976,0.046623,382632,343683
976.763,0.047381,391202,350768
981.806,0.048507,400190,357898
985.583,0.049274,406088,362532
989.355,0.049416,410162,366049
993.124,0.049646,412868,368269
996.888,0.050458,414263,368823
1000.65,0.051267,415476,369215
1004.4,0.052201,415479,368424
1009.41,0.053841,414358,366045
1013.15,0.054735,412923,364027
1016.89,0.054752,411526,362782
1020.63,0.054825,409066,360552
1024.36,0.054696,406777,358641
1028.09,0.054184,404427,356990
1031.82,0.053832,401911,355057
1036.78,0.053265,398410,352424
1040.49,0.053430,396204,350339
1044.2,0.053344,394236,348668
1047.91,0.052245,392042,347606
1051.61,0.052107,389823,345749
1055.31,0.051889,388234,344512
1059,0.051066,387599,344601
1063.92,0.050004,386688,344633
1067.61,0.048798,386598,345511
1071.29,0.048872,387377,346148
1074.96,0.048028,388536,347859
1078.63,0.047379,389855,349562
1082.3,0.046925,391215,351148
1085.96,0.046527,393215,353267
1090.84,0.045372,396270,356960
1094.49,0.045266,398760,359290
1098.14,0.044682,400987,361783
1101.79,0.044087,403477,364529
1105.43,0.044808,406116,366304
1109.06,0.043837,407701,368557
1112.7,0.043720,409859,370608
1117.53,0.043630,412494,373068
1121.15,0.044667,414909,374357
1124.77,0.045656,416559,374991
1128.38,0.046648,418532,375907
1131.99,0.047395,419956,376538
1135.6,0.049800,421946,376233
1139.2,0.051504,423881,376478
1143.99,0.053941,426786,376937
1147.58,0.054956,428617,377671
1151.17,0.056075,431169,378942
1154.75,0.057112,433579,380151
1158.33,0.059208,436264,380664
1161.91,0.061306,439132,381320
1165.48,0.063769,442389,381975
1169.04,0.066687,446101,382601
1173.79,0.070209,451929,384469
1177.34,0.072336,456026,386059
1180.9,0.074406,461306,388672
1184.44,0.076182,467657,392415
1187.99,0.077167,473969,396810
1191.52,0.077091,479856,401809
1195.06,0.077168,487372,408030
1199.76,0.076089,497347,417417
1203.29,0.074874,504311,424448
1206.81,0.074223,511507,431150
1210.33,0.073411,519078,438351
1213.84,0.072706,527163,445902
1217.35,0.071911,534208,452688
1220.85,0.071118,540472,458834
1225.51,0.070563,549929,467459
1229.01,0.069380,556888,474666
1232.5,0.068971,562180,479628
1235.98,0.068525,567975,485070
1239.46,0.067281,574815,492320
1242.94,0.066559,582782,499974
1246.41,0.066070,591476,508004
1251.03,0.065343,604016,519644
1254.5,0.065560,612289,526498
1257.96,0.066117,619125,531694
1261.41,0.066762,624551,535557
1264.86,0.067501,629900,539226
1268.31,0.068129,634345,542246
1271.75,0.069104,638574,544637
1276.33,0.069109,642499,547979
1279.76,0.069122,645905,550867
1283.19,0.068494,648307,553716
1286.61,0.067979,650446,556201
1290.03,0.067729,652132,557965
1293.44,0.067277,653907,560066
1296.85,0.066853,655963,562376
1301.39,0.066745,657349,563704
1304.8,0.066784,657558,563833
1308.19,0.067277,658515,564012
1311.58,0.067232,658804,564318
1314.97,0.067722,659011,563859
1318.36,0.067927,658272,562961
1321.73,0.068285,658022,562283
1326.23,0.069635,657870,560409
1329.6,0.070328,656482,558335
1332.97,0.071289,654926,555780
1336.33,0.072912,653727,552694
1339.69,0.074261,652497,549943
1343.04,0.076251,649913,545261
1346.39,0.078431,647671,540659
1349.73,0.080417,645338,536254
1354.18,0.083526,641175,528994
1357.52,0.086127,638376,523540
1360.85,0.087997,635805,519191
1364.17,0.090205,633413,514615
1367.49,0.092505,631026,509967
1370.81,0.095616,628050,503939
1374.12,0.097680,625034,499142
1378.54,0.100908,620272,491670
1381.84,0.104348,616892,485133
1385.14,0.108721,613613,477720
1388.43,0.112887,611526,471550
1391.72,0.117715,610663,465679
1395.01,0.122424,610634,460635
1398.29,0.127535,611700,456041
1402.66,0.134915,614051,450080
1405.93,0.140938,616268,445483
1409.2,0.146652,617795,440750
1412.46,0.151641,618872,436475
1415.72,0.156448,619795,432315
1418.98,0.160543,620495,428741
1422.23,0.163929,621087,425817
1426.56,0.168057,621375,421985
1429.8,0.171472,621616,418842
1433.04,0.173567,622129,417170
1436.27,0.175966,621526,414470
1439.5,0.178542,621113,411745
1442.72,0.181005,620921,409290
1445.94,0.183702,620270,406330
1450.23,0.187242,618860,402115
1453.44,0.190145,617697,398686
1456.64,0.193482,616264,394716
1459.85,0.195981,614413,391273
1463.04,0.198961,612307,387265
1466.24,0.202040,610032,383100
1469.43,0.205910,607345,378029
1473.67,0.211729,603789,370814
1476.85,0.217581,601175,364267
1480.02,0.224033,597737,356843
1483.19,0.230266,594479,349841
1486.36,0.236013,591232,343356
1489.52,0.241160,587853,337372
1492.68,0.244967,583875,332164
1496.89,0.247888,578062,326653
1500.03,0.247476,574159,324755
1503.18,0.248573,570285,321750
1506.32,0.247487,565444,319818
1509.45,0.246594,560571,317714
1512.58,0.244344,555821,316658
1515.71,0.241821,550344,315365
1519.87,0.238263,543983,314284
1522.99,0.236300,538764,312679
1526.1,0.233202,533692,311953
1529.21,0.230629,527902,310402
1532.32,0.227319,521886,309212
1535.42,0.224376,515888,307737
1538.51,0.220861,509987,306689
1541.6,0.217906,503936,305119
1545.72,0.212984,494694,302937
1548.8,0.210291,488378,300930
1551.88,0.207618,481832,298729
1554.95,0.205588,474989,295866
1558.02,0.203132,467818,293052
1561.08,0.202759,460730,288860
1564.15,0.202002,454170,285244
1568.22,0.200137,444181,280171
1571.27,0.199916,436947,275748
1574.32,0.199347,429598,271466
1577.36,0.197437,422039,267865
1580.4,0.196005,414375,263869
1583.43,0.194080,406354,259911
1586.46,0.192402,398475,255858
1590.49,0.190564,388982,250822
1593.51,0.188090,380708,246889
1596.53,0.185113,372727,243376
1599.54,0.183334,365060,239348
1602.55,0.180989,357543,235689
1605.55,0.178982,349495,231451
1608.55,0.176796,341154,227067
1612.54,0.174948,330877,221166
1615.53,0.172638,322904,216988
1618.51,0.171228,315116,212443
1621.49,0.170888,307217,207280
1624.47,0.168420,299481,203212
1627.44,0.168224,292112,198301
1630.41,0.167555,284245,193258
1634.36,0.164671,274079,187588
1637.32,0.164522,266916,182748
1640.27,0.163588,259612,178130
1643.22,0.162467,251804,173219
1646.16,0.162041,244348,168255
1649.1,0.160938,236703,163405
1652.04,0.159005,228171,158218
1655.95,0.156447,215408,150250
1658.88,0.152962,204937,144098
1661.8,0.149623,193395,137032
1664.72,0.144171,179728,128957
1667.63,0.132792,163642,120532
1670.54,0.120611,146312,110833
1673.44,0.109359,128451,99857
1677.31,0.095317,105080,84373
1680.21,0.085257,88906,73059
1683.1,0.083225,75033,61948
1685.99,0.087693,63520,51906
1688.87,0.090661,53714,43594
1691.75,0.094614,45653,36716
1694.62,0.097877,39137,31240
1697.49,0.101171,33776,26757
1701.31,0.116175,28175,21562

File: Column 1_050565_20150331_120701.csv
Method:,Column 1,,
Host Date-Time:,31/3/15 @ 12:7:1,,
Header Version:,1,,
System Temp (C):,33.9,,
Detector Temp (C):,33.68,,
Humidity (%):,1.91,,
Lamp PD:,3819,,
Shift Vector Coefficients:,-10.5391,0.0761263,-0.000134223,,
Pixel to Wavelength Coefficients:,1775.68,-0.916766,-0.000235065,,
Serial Number:,5510004,,
Scan Config Name:,Column 1,,
Scan Config Type:,Slew,,
Section 1,,
Start wavelength (nm):,900,,
End wavelength (nm):,1700,,
Pattern Pixel Width (nm):,   7.03,,,,
Exposure (ms):,  0.635,,,,
Digital Resolution:,228,,
Num Repeats:,6,,
PGA Gain:,64,,
Total Measurement Time in sec:,  2.668,,
Wavelength (nm),Absorbance (AU),Reference Signal (unitless),Sample Signal (unitless)
901.51,0.034545,108485,100190
905.376,0.037656,121306,111231
909.237,0.041941,131909,119766
913.095,0.043957,143299,129505
916.948,0.044070,156982,141834
922.079,0.046190,179937,161782
925.923,0.047415,200504,179766
929.762,0.048582,222660,199095
933.597,0.048644,244426,218526
937.427,0.047255,263972,236757
941.254,0.046792,281845,253057
945.076,0.046404,297271,267146
950.165,0.046579,315605,283508
953.978,0.045880,328029,295143
957.786,0.045929,340470,306302
961.59,0.046339,352317,316661
965.389,0.046262,363056,326371
969.185,0.046151,373162,335542
972.976,0.046796,382632,343546
976.763,0.047198,391202,350916
981.806,0.048098,400190,358235
985.583,0.048907,406088,362838
989.355,0.049451,410162,366020
993.124,0.049567,412868,368336
996.888,0.050875,414263,368469
1000.65,0.051624,415476,368911
1004.4,0.052374,415479,368277
1009.41,0.053660,414358,366198
1013.15,0.054400,412923,364308
1016.89,0.055026,411526,362553
1020.63,0.054958,409066,360442
1024.36,0.054690,406777,358646
1028.09,0.054291,404427,356902
1031.82,0.053817,401911,355069
1036.78,0.053494,398410,352238
1040.49,0.053147,396204,350568
1044.2,0.053353,394236,348661
1047.91,0.052588,392042,347332
1051.61,0.052030,389823,345810
1055.31,0.051612,388234,344732
1059,0.050440,387599,345098
1063.92,0.050402,386688,344317
1067.61,0.048931,386598,345405
1071.29,0.048795,387377,346209
1074.96,0.048495,388536,347485
1078.63,0.048171,389855,348925
1082.3,0.046522,391215,351474
1085.96,0.046130,393215,353590
1090.84,0.045537,396270,356824
1094.49,0.044925,398760,359573
1098.14,0.044565,400987,361881
1101.79,0.044200,403477,364434
1105.43,0.043914,406116,367059
1109.06,0.044016,407701,368405
1112.7,0.044374,409859,370050
1117.53,0.043453,412494,373220
1121.15,0.044593,414909,374421
1124.77,0.045150,416559,375428
1128.38,0.046965,418532,375633
1131.99,0.047952,419956,376055
1135.6,0.049800,421946,376233
1139.2,0.051724,423881,376288
1143.99,0.054058,426786,376836
1147.58,0.054910,428617,377711
1151.17,0.056109,431169,378912
1154.75,0.057368,433579,379927
1158.33,0.059213,436264,380659
1161.91,0.061359,439132,381273
1165.48,0.063520,442389,382194
1169.04,0.066213,446101,383019
1173.79,0.070104,451929,384562
1177.34,0.072235,456026,386149
1180.9,0.074453,461306,388630
1184.44,0.076110,467657,392480
1187.99,0.077230,473969,396753
1191.52,0.077203,479856,401706
1195.06,0.077066,487372,408126
1199.76,0.076506,497347,417017
1203.29,0.074888,504311,424434
1206.81,0.074282,511507,431092
1210.33,0.073042,519078,438723
1213.84,0.072827,527163,445777
1217.35,0.071785,534208,452820
1220.85,0.071144,540472,458806
1225.51,0.070789,549929,467216
1229.01,0.069683,556888,474335
1232.5,0.068932,562180,479671
1235.98,0.067936,567975,485728
1239.46,0.067129,574815,492492
1242.94,0.066682,582782,499832
1246.41,0.065528,591476,508638
1251.03,0.065542,604016,519405
1254.5,0.066070,612289,525880
1257.96,0.066495,619125,531231
1261.41,0.066905,624551,535381
1264.86,0.067637,629900,539057
1268.31,0.067919,634345,542509
1271.75,0.068566,638574,545312
1276.33,0.068888,642499,548257
1279.76,0.069342,645905,550588
1283.19,0.068687,648307,553470
1286.61,0.067859,650446,556355
1290.03,0.067832,652132,557832
1293.44,0.067047,653907,560363
1296.85,0.067199,655963,561928
1301.39,0.066504,657349,564017
1304.8,0.066875,657558,563714
1308.19,0.066938,658515,564453
1311.58,0.067148,658804,564428
1314.97,0.067751,659011,563822
1318.36,0.068502,658272,562216
1321.73,0.068266,658022,562308
1326.23,0.069296,657870,560847
1329.6,0.070277,656482,558401
1332.97,0.070952,654926,556212
1336.33,0.072579,653727,553118
1339.69,0.074223,652497,549991
1343.04,0.076185,649913,545343
1346.39,0.078562,647671,540496
1349.73,0.080426,645338,536243
1354.18,0.083715,641175,528764
1357.52,0.085937,638376,523769
1360.85,0.087985,635805,519205
1364.17,0.089933,633413,514937
1367.49,0.092638,631026,509811
1370.81,0.094693,628050,505012
1374.12,0.097442,625034,499415
1378.54,0.100965,620272,491606
1381.84,0.104757,616892,484677
1385.14,0.108240,613613,478250
1388.43,0.113426,611526,470965
1391.72,0.117682,610663,465714
1395.01,0.122431,610634,460628
1398.29,0.127196,611700,456397
1402.66,0.135042,614051,449948
1405.93,0.140383,616268,446053
1409.2,0.145966,617795,441447
1412.46,0.151506,618872,436611
1415.72,0.155879,619795,432882
1418.98,0.160015,620495,429263
1422.23,0.163538,621087,426201
1426.56,0.168217,621375,421829
1429.8,0.170848,621616,419444
1433.04,0.173329,622129,417399
1436.27,0.176166,621526,414279
1439.5,0.177960,621113,412297
1442.72,0.180264,620921,409989
1445.94,0.183110,620270,406884
1450.23,0.186983,618860,402355
1453.44,0.189289,617697,399472
1456.64,0.192163,616264,395917
1459.85,0.195782,614413,391452
1463.04,0.198714,612307,387485
1466.24,0.202194,610032,382965
1469.43,0.205847,607345,378084
1473.67,0.211791,603789,370761
1476.85,0.216927,601175,364816
1480.02,0.223488,597737,357291
1483.19,0.230323,594479,349795
1486.36,0.235744,591232,343569
1489.52,0.241413,587853,337175
1492.68,0.245107,583875,332057
1496.89,0.247674,578062,326814
1500.03,0.248124,574159,324271
1503.18,0.248259,570285,321983
1506.32,0.246998,565444,320178
1509.45,0.245569,560571,318465
1512.58,0.244320,555821,316676
1515.71,0.242020,550344,315220
1519.87,0.238389,543983,314193
1522.99,0.235967,538764,312919
1526.1,0.233483,533692,311751
1529.21,0.230483,527902,310506
1532.32,0.227512,521886,309075
1535.42,0.224118,515888,307920
1538.51,0.221554,509987,306200
1541.6,0.217989,503936,305061
1545.72,0.213485,494694,302588
1548.8,0.210364,488378,300879
1551.88,0.207373,481832,298898
1554.95,0.205277,474989,296078
1558.02,0.203935,467818,292511
1561.08,0.202481,460730,289045
1564.15,0.201637,454170,285484
1568.22,0.201066,444181,279572
1571.27,0.199414,436947,276067
1574.32,0.198367,429598,272079
1577.36,0.197028,422039,268117
1580.4,0.196137,414375,263789
1583.43,0.194093,406354,259903
1586.46,0.192470,398475,255818
1590.49,0.190043,388982,251123
1593.51,0.188064,380708,246904
1596.53,0.186369,372727,242673
1599.54,0.183139,365060,239456
1602.55,0.181061,357543,235650
1605.55,0.179649,349495,231096
1608.55,0.177409,341154,226747
1612.54,0.175522,330877,220874
1615.53,0.172276,322904,217169
1618.51,0.170687,315116,212708
1621.49,0.171183,307217,207139
1624.47,0.168535,299481,203158
1627.44,0.168832,292112,198024
1630.41,0.166548,284245,193707
1634.36,0.164810,274079,187528
1637.32,0.164104,266916,182924
1640.27,0.163451,259612,178186
1643.22,0.163022,251804,172998
1646.16,0.161522,244348,168456
1649.1,0.160901,236703,163419
1652.04,0.159246,228171,158130
1655.95,0.156913,215408,150089
1658.88,0.153662,204937,143866
1661.8,0.149500,193395,137071
1664.72,0.144275,179728,128926
1667.63,0.132994,163642,120476
1670.54,0.120638,146312,110826
1673.44,0.110478,128451,99600
1677.31,0.092919,105080,84840
1680.21,0.083898,88906,73288
1683.1,0.084243,75033,61803
1685.99,0.086982,63520,51991
1688.87,0.086004,53714,44064
1691.75,0.091655,45653,36967
1694.62,0.099297,39137,31138
1697.49,0.103531,33776,26612
1701.31,0.106593,28175,22043