Folder: textile_sorting_NIRSCAN_/samples/wool/wool-000811 (part 159)

File: Column 1_050619_20150331_123237.csv
Method:,Column 1,,
Host Date-Time:,31/3/15 @ 12:32:37,,
Header Version:,1,,
System Temp (C):,34.15,,
Detector Temp (C):,35.06,,
Humidity (%):,1.66,,
Lamp PD:,3818,,
Shift Vector Coefficients:,-10.5391,0.0761263,-0.000134223,,
Pixel to Wavelength Coefficients:,1775.68,-0.916766,-0.000235065,,
Serial Number:,5510004,,
Scan Config Name:,Column 1,,
Scan Config Type:,Slew,,
Section 1,,
Start wavelength (nm):,900,,
End wavelength (nm):,1700,,
Pattern Pixel Width (nm):,   7.03,,,,
Exposure (ms):,  0.635,,,,
Digital Resolution:,228,,
Num Repeats:,6,,
PGA Gain:,64,,
Total Measurement Time in sec:,  2.669,,
Wavelength (nm),Absorbance (AU),Reference Signal (unitless),Sample Signal (unitless)
901.51,0.069679,108485,92404
905.376,0.075120,121306,102038
909.237,0.077034,131909,110469
913.095,0.077355,143299,119919
916.948,0.079332,156982,130773
922.079,0.081148,179937,149270
925.923,0.081314,200504,166268
929.762,0.081862,222660,184408
933.597,0.081401,244426,202650
937.427,0.080577,263972,219271
941.254,0.080540,281845,234137
945.076,0.079035,297271,247809
950.165,0.078144,315605,263633
953.978,0.076998,328029,274735
957.786,0.077464,340470,284849
961.59,0.077406,352317,294800
965.389,0.077011,363056,304062
969.185,0.077474,373162,312193
972.976,0.077511,382632,320089
976.763,0.078071,391202,326836
981.806,0.078857,400190,333741
985.583,0.078681,406088,338797
989.355,0.079425,410162,341610
993.124,0.080513,412868,343003
996.888,0.080629,414263,344070
1000.65,0.081451,415476,344425
1004.4,0.083028,415479,343179
1009.41,0.083639,414358,341772
1013.15,0.084439,412923,339962
1016.89,0.084542,411526,338731
1020.63,0.085131,409066,336250
1024.36,0.084537,406777,334826
1028.09,0.084404,404427,332994
1031.82,0.084438,401911,330896
1036.78,0.083951,398410,328382
1040.49,0.083262,396204,327082
1044.2,0.083652,394236,325165
1047.91,0.083352,392042,323579
1051.61,0.082850,389823,322120
1055.31,0.082621,388234,320976
1059,0.081704,387599,321128
1063.92,0.080715,386688,321104
1067.61,0.080357,386598,321294
1071.29,0.079645,387377,322470
1074.96,0.079761,388536,323348
1078.63,0.078753,389855,325200
1082.3,0.077791,391215,327058
1085.96,0.076804,393215,329478
1090.84,0.076160,396270,332530
1094.49,0.076352,398760,334472
1098.14,0.075310,400987,337148
1101.79,0.074708,403477,339712
1105.43,0.074401,406116,342176
1109.06,0.073579,407701,344162
1112.7,0.073513,409859,346036
1117.53,0.072821,412494,348816
1121.15,0.073392,414909,350397
1124.77,0.073967,416559,351325
1128.38,0.074625,418532,352455
1131.99,0.075612,419956,352851
1135.6,0.076901,421946,353473
1139.2,0.078071,423881,354138
1143.99,0.080382,426786,354673
1147.58,0.081417,428617,355347
1151.17,0.081853,431169,357104
1154.75,0.083026,433579,358131
1158.33,0.084320,436264,359277
1161.91,0.086297,439132,359996
1165.48,0.088115,442389,361151
1169.04,0.090225,446101,362417
1173.79,0.094060,451929,363924
1177.34,0.095849,456026,365713
1180.9,0.097451,461306,368585
1184.44,0.099804,467657,371641
1187.99,0.100747,473969,375840
1191.52,0.100453,479856,380766
1195.06,0.100534,487372,386658
1199.76,0.099988,497347,395068
1203.29,0.099027,504311,401487
1206.81,0.098482,511507,407727
1210.33,0.097691,519078,414516
1213.84,0.097498,527163,421160
1217.35,0.097049,534208,427230
1220.85,0.096338,540472,432947
1225.51,0.095571,549929,441302
1229.01,0.095065,556888,447407
1232.5,0.094462,562180,452286
1235.98,0.093887,567975,457554
1239.46,0.092857,574815,464164
1242.94,0.092031,582782,471493
1246.41,0.091809,591476,478771
1251.03,0.091060,604016,489766
1254.5,0.091551,612289,495913
1257.96,0.091661,619125,501323
1261.41,0.092084,624551,505224
1264.86,0.093130,629900,508325
1268.31,0.093454,634345,511531
1271.75,0.093950,638574,514353
1276.33,0.093950,642499,517514
1279.76,0.094130,645905,520042
1283.19,0.093380,648307,522878
1286.61,0.093410,650446,524567
1290.03,0.092806,652132,526659
1293.44,0.092121,653907,528926
1296.85,0.092273,655963,530404
1301.39,0.091939,657349,531933
1304.8,0.091705,657558,532389
1308.19,0.091869,658515,532962
1311.58,0.092262,658804,532714
1314.97,0.092483,659011,532610
1318.36,0.092869,658272,531540
1321.73,0.093117,658022,531035
1326.23,0.093550,657870,530383
1329.6,0.094629,656482,527951
1332.97,0.095507,654926,525636
1336.33,0.096393,653727,523605
1339.69,0.097707,652497,521040
1343.04,0.099271,649913,517112
1346.39,0.101170,647671,513079
1349.73,0.102872,645338,509232
1354.18,0.106126,641175,502170
1357.52,0.107943,638376,497890
1360.85,0.109291,635805,494348
1364.17,0.111678,633413,489789
1367.49,0.113913,631026,485438
1370.81,0.116437,628050,480349
1374.12,0.118029,625034,476294
1378.54,0.120747,620272,469716
1381.84,0.123918,616892,463758
1385.14,0.127046,613613,457982
1388.43,0.130493,611526,452816
1391.72,0.134253,610663,448279
1395.01,0.138128,610634,444276
1398.29,0.142476,611700,440618
1402.66,0.148206,614051,436514
1405.93,0.152947,616268,433334
1409.2,0.157885,617795,429496
1412.46,0.161828,618872,426356
1415.72,0.165742,619795,423161
1418.98,0.168683,620495,420780
1422.23,0.172609,621087,417391
1426.56,0.175648,621375,414673
1429.8,0.178382,621616,412231
1433.04,0.180903,622129,410183
1436.27,0.183162,621526,407659
1439.5,0.184933,621113,405730
1442.72,0.187736,620921,402996
1445.94,0.189952,620270,400524
1450.23,0.193332,618860,396516
1453.44,0.196733,617697,392683
1456.64,0.199444,616264,389334
1459.85,0.201864,614413,386008
1463.04,0.205315,612307,381640
1466.24,0.208953,610032,377051
1469.43,0.212253,607345,372548
1473.67,0.218822,603789,364807
1476.85,0.224776,601175,358282
1480.02,0.231017,597737,351150
1483.19,0.238038,594479,343636
1486.36,0.243612,591232,337401
1489.52,0.248618,587853,331628
1492.68,0.252353,583875,326563
1496.89,0.254255,578062,321899
1500.03,0.254960,574159,319207
1503.18,0.254625,570285,317298
1506.32,0.253264,565444,315592
1509.45,0.252291,560571,313574
1512.58,0.250697,555821,312060
1515.71,0.248374,550344,310642
1519.87,0.245461,543983,309118
1522.99,0.243052,538764,307855
1526.1,0.240159,533692,306995
1529.21,0.237558,527902,305489
1532.32,0.234209,521886,304345
1535.42,0.230896,515888,303151
1538.51,0.228174,509987,301568
1541.6,0.225884,503936,299565
1545.72,0.220975,494694,297414
1548.8,0.218715,488378,295149
1551.88,0.216868,481832,292434
1554.95,0.214605,474989,289787
1558.02,0.212757,467818,286629
1561.08,0.211884,460730,282854
1564.15,0.211569,454170,279029
1568.22,0.209488,444181,274203
1571.27,0.210110,436947,269351
1574.32,0.209371,429598,265272
1577.36,0.208017,422039,261418
1580.4,0.205890,414375,257931
1583.43,0.204661,406354,253655
1586.46,0.203451,398475,249431
1590.49,0.201294,388982,244701
1593.51,0.200343,380708,240021
1596.53,0.197797,372727,236371
1599.54,0.196863,365060,232007
1602.55,0.193808,357543,228834
1605.55,0.192540,349495,224337
1608.55,0.190858,341154,219833
1612.54,0.188926,330877,214161
1615.53,0.187469,322904,209703
1618.51,0.185944,315116,205365
1621.49,0.185359,307217,200487
1624.47,0.182552,299481,196706
1627.44,0.182726,292112,191789
1630.41,0.181007,284245,187364
1634.36,0.179902,274079,181123
1637.32,0.179458,266916,176570
1640.27,0.179130,259612,171868
1643.22,0.178042,251804,167117
1646.16,0.178231,244348,162098
1649.1,0.176149,236703,157781
1652.04,0.175552,228171,152303
1655.95,0.173619,215408,144425
1658.88,0.167716,204937,139285
1661.8,0.162770,193395,132946
1664.72,0.155671,179728,125587
1667.63,0.142602,163642,117840
1670.54,0.127953,146312,108975
1673.44,0.111530,128451,99359
1677.31,0.091402,105080,85137
1680.21,0.077773,88906,74329
1683.1,0.076022,75033,62984
1685.99,0.074589,63520,53496
1688.87,0.075411,53714,45152
1691.75,0.080258,45653,37950
1694.62,0.080197,39137,32538
1697.49,0.084845,33776,27782
1701.31,0.096255,28175,22574

File: Column 1_050619_20150331_123240.csv
Method:,Column 1,,
Host Date-Time:,31/3/15 @ 12:32:40,,
Header Version:,1,,
System Temp (C):,34.12,,
Detector Temp (C):,35.06,,
Humidity (%):,1.66,,
Lamp PD:,3818,,
Shift Vector Coefficients:,-10.5391,0.0761263,-0.000134223,,
Pixel to Wavelength Coefficients:,1775.68,-0.916766,-0.000235065,,
Serial Number:,5510004,,
Scan Config Name:,Column 1,,
Scan Config Type:,Slew,,
Section 1,,
Start wavelength (nm):,900,,
End wavelength (nm):,1700,,
Pattern Pixel Width (nm):,   7.03,,,,
Exposure (ms):,  0.635,,,,
Digital Resolution:,228,,
Num Repeats:,6,,
PGA Gain:,64,,
Total Measurement Time in sec:,  2.683,,
Wavelength (nm),Absorbance (AU),Reference Signal (unitless),Sample Signal (unitless)
901.51,0.070813,108485,92163
905.376,0.075193,121306,102021
909.237,0.076704,131909,110553
913.095,0.078839,143299,119510
916.948,0.079179,156982,130819
922.079,0.082287,179937,148879
925.923,0.081683,200504,166127
929.762,0.082631,222660,184082
933.597,0.082704,244426,202043
937.427,0.080450,263972,219335
941.254,0.080264,281845,234286
945.076,0.078971,297271,247846
950.165,0.077744,315605,263876
953.978,0.077248,328029,274577
957.786,0.077524,340470,284810
961.59,0.077859,352317,294493
965.389,0.077410,363056,303783
969.185,0.077629,373162,312082
972.976,0.078059,382632,319685
976.763,0.078909,391202,326206
981.806,0.078417,400190,334079
985.583,0.079380,406088,338252
989.355,0.079800,410162,341315
993.124,0.079780,412868,343583
996.888,0.080575,414263,344113
1000.65,0.081459,415476,344419
1004.4,0.082753,415479,343397
1009.41,0.083905,414358,341563
1013.15,0.083848,412923,340425
1016.89,0.085289,411526,338149
1020.63,0.084875,409066,336448
1024.36,0.085125,406777,334373
1028.09,0.084087,404427,333237
1031.82,0.084280,401911,331017
1036.78,0.083778,398410,328513
1040.49,0.083560,396204,326858
1044.2,0.083769,394236,325078
1047.91,0.083464,392042,323496
1051.61,0.083149,389823,321898
1055.31,0.082678,388234,320934
1059,0.082659,387599,320423
1063.92,0.081538,386688,320496
1067.61,0.080554,386598,321148
1071.29,0.080089,387377,322140
1074.96,0.079717,388536,323381
1078.63,0.078584,389855,325326
1082.3,0.078324,391215,326657
1085.96,0.077297,393215,329104
1090.84,0.076237,396270,332471
1094.49,0.075786,398760,334908
1098.14,0.075401,400987,337077
1101.79,0.075467,403477,339119
1105.43,0.074662,406116,341970
1109.06,0.073607,407701,344140
1112.7,0.073383,409859,346140
1117.53,0.073265,412494,348460
1121.15,0.074075,414909,349847
1124.77,0.074476,416559,350914
1128.38,0.075082,418532,352084
1131.99,0.075846,419956,352661
1135.6,0.077590,421946,352912
1139.2,0.078904,423881,353460
1143.99,0.080550,426786,354536
1147.58,0.081350,428617,355402
1151.17,0.082001,431169,356982
1154.75,0.083285,433579,357918
1158.33,0.084455,436264,359165
1161.91,0.086312,439132,359984
1165.48,0.088100,442389,361164
1169.04,0.090577,446101,362123
1173.79,0.093848,451929,364101
1177.34,0.096282,456026,365349
1180.9,0.098093,461306,368041
1184.44,0.100280,467657,371234
1187.99,0.100956,473969,375659
1191.52,0.101028,479856,380262
1195.06,0.101083,487372,386169
1199.76,0.100380,497347,394711
1203.29,0.099704,504311,400862
1206.81,0.099117,511507,407131
1210.33,0.098276,519078,413958
1213.84,0.098189,527163,420490
1217.35,0.097481,534208,426805
1220.85,0.096576,540472,432710
1225.51,0.095720,549929,441150
1229.01,0.095998,556888,446447
1232.5,0.094478,562180,452270
1235.98,0.094001,567975,457434
1239.46,0.092987,574815,464025
1242.94,0.091973,582782,471556
1246.41,0.091598,591476,479004
1251.03,0.091547,604016,489217
1254.5,0.091070,612289,496463
1257.96,0.092170,619125,500736
1261.41,0.092254,624551,505026
1264.86,0.092894,629900,508601
1268.31,0.093308,634345,511702
1271.75,0.093973,638574,514326
1276.33,0.094279,642499,517122
1279.76,0.093992,645905,520208
1283.19,0.093629,648307,522579
1286.61,0.093226,650446,524790
1290.03,0.092710,652132,526775
1293.44,0.092550,653907,528404
1296.85,0.092097,655963,530618
1301.39,0.091982,657349,531880
1304.8,0.091809,657558,532261
1308.19,0.091590,658515,533305
1311.58,0.091728,658804,533370
1314.97,0.092344,659011,532781
1318.36,0.093109,658272,531247
1321.73,0.093227,658022,530901
1326.23,0.094266,657870,529510
1329.6,0.094887,656482,527638
1332.97,0.095501,654926,525644
1336.33,0.096012,653727,524064
1339.69,0.097946,652497,520754
1343.04,0.099030,649913,517399
1346.39,0.101643,647671,512521
1349.73,0.103104,645338,508959
1354.18,0.106010,641175,502304
1357.52,0.108007,638376,497817
1360.85,0.109819,635805,493747
1364.17,0.111830,633413,489617
1367.49,0.114123,631026,485204
1370.81,0.116021,628050,480810
1374.12,0.118378,625034,475911
1378.54,0.120891,620272,469560
1381.84,0.123810,616892,463873
1385.14,0.126813,613613,458228
1388.43,0.130415,611526,452898
1391.72,0.134376,610663,448152
1395.01,0.137983,610634,444425
1398.29,0.142797,611700,440293
1402.66,0.148780,614051,435938
1405.93,0.153164,616268,433117
1409.2,0.157304,617795,430071
1412.46,0.161841,618872,426344
1415.72,0.165880,619795,423027
1418.98,0.169339,620495,420145
1422.23,0.171883,621087,418090
1426.56,0.176476,621375,413883
1429.8,0.178776,621616,411857
1433.04,0.181594,622129,409531
1436.27,0.183027,621526,407786
1439.5,0.185325,621113,405364
1442.72,0.188261,620921,402509
1445.94,0.190493,620270,400026
1450.23,0.193899,618860,395998
1453.44,0.196811,617697,392613
1456.64,0.199521,616264,389265
1459.85,0.201916,614413,385962
1463.04,0.205708,612307,381295
1466.24,0.208909,610032,377089
1469.43,0.212660,607345,372199
1473.67,0.219482,603789,364253
1476.85,0.224535,601175,358481
1480.02,0.230973,597737,351186
1483.19,0.237977,594479,343684
1486.36,0.243280,591232,337659
1489.52,0.248832,587853,331464
1492.68,0.251862,583875,326932
1496.89,0.253887,578062,322172
1500.03,0.254299,574159,319693
1503.18,0.254480,570285,317404
1506.32,0.254032,565444,315034
1509.45,0.252627,560571,313331
1512.58,0.250910,555821,311907
1515.71,0.248272,550344,310715
1519.87,0.245624,543983,309002
1522.99,0.242861,538764,307991
1526.1,0.240297,533692,306898
1529.21,0.237586,527902,305469
1532.32,0.235119,521886,303708
1535.42,0.232372,515888,302123
1538.51,0.228703,509987,301201
1541.6,0.225803,503936,299621
1545.72,0.221764,494694,296874
1548.8,0.219725,488378,294463
1551.88,0.216964,481832,292369
1554.95,0.214317,474989,289979
1558.02,0.213181,467818,286349
1561.08,0.211662,460730,282999
1564.15,0.211860,454170,278842
1568.22,0.209779,444181,274019
1571.27,0.209767,436947,269564
1574.32,0.209525,429598,265178
1577.36,0.208145,422039,261341
1580.4,0.207180,414375,257166
1583.43,0.205846,406354,252964
1586.46,0.203327,398475,249502
1590.49,0.202353,388982,244105
1593.51,0.200118,380708,240145
1596.53,0.198306,372727,236094
1599.54,0.196433,365060,232237
1602.55,0.194043,357543,228710
1605.55,0.191940,349495,224647
1608.55,0.190031,341154,220252
1612.54,0.188697,330877,214274
1615.53,0.186513,322904,210165
1618.51,0.186683,315116,205016
1621.49,0.184262,307217,200994
1624.47,0.183469,299481,196291
1627.44,0.182945,292112,191692
1630.41,0.181995,284245,186938
1634.36,0.179981,274079,181090
1637.32,0.179254,266916,176653
1640.27,0.179878,259612,171572
1643.22,0.178247,251804,167038
1646.16,0.178488,244348,162002
1649.1,0.176907,236703,157506
1652.04,0.175355,228171,152372
1655.95,0.173039,215408,144618
1658.88,0.167941,204937,139213
1661.8,0.163479,193395,132729
1664.72,0.155671,179728,125587
1667.63,0.142414,163642,117891
1670.54,0.128069,146312,108946
1673.44,0.112822,128451,99064
1677.31,0.091310,105080,85155
1680.21,0.077925,88906,74303
1683.1,0.072930,75033,63434
1685.99,0.077628,63520,53123
1688.87,0.077851,53714,44899
1691.75,0.078157,45653,38134
1694.62,0.085109,39137,32172
1697.49,0.089908,33776,27460
1701.31,0.096640,28175,22554

File: Column 1_050619_20150331_123243.csv
Method:,Column 1,,
Host Date-Time:,31/3/15 @ 12:32:43,,
Header Version:,1,,
System Temp (C):,34.13,,
Detector Temp (C):,35,,
Humidity (%):,1.66,,
Lamp PD:,3818,,
Shift Vector Coefficients:,-10.5391,0.0761263,-0.000134223,,
Pixel to Wavelength Coefficients:,1775.68,-0.916766,-0.000235065,,
Serial Number:,5510004,,
Scan Config Name:,Column 1,,
Scan Config Type:,Slew,,
Section 1,,
Start wavelength (nm):,900,,
End wavelength (nm):,1700,,
Pattern Pixel Width (nm):,   7.03,,,,
Exposure (ms):,  0.635,,,,
Digital Resolution:,228,,
Num Repeats:,6,,
PGA Gain:,64,,
Total Measurement Time in sec:,  2.722,,
Wavelength (nm),Absorbance (AU),Reference Signal (unitless),Sample Signal (unitless)
901.51,0.067606,108485,92846
905.376,0.073688,121306,102375
909.237,0.077046,131909,110466
913.095,0.077964,143299,119751
916.948,0.078125,156982,131137
922.079,0.079325,179937,149898
925.923,0.080286,200504,166662
929.762,0.082525,222660,184127
933.597,0.082545,244426,202117
937.427,0.081034,263972,219040
941.254,0.079875,281845,234496
945.076,0.079149,297271,247744
950.165,0.077861,315605,263805
953.978,0.076954,328029,274763
957.786,0.076607,340470,285412
961.59,0.077213,352317,294931
965.389,0.077413,363056,303781
969.185,0.077246,373162,312357
972.976,0.077505,382632,320093
976.763,0.077804,391202,327037
981.806,0.077948,400190,334440
985.583,0.078823,406088,338686
989.355,0.079379,410162,341646
993.124,0.080091,412868,343337
996.888,0.080448,414263,344214
1000.65,0.081136,415476,344675
1004.4,0.082815,415479,343348
1009.41,0.083876,414358,341586
1013.15,0.084356,412923,340027
1016.89,0.084521,411526,338748
1020.63,0.084517,409066,336726
1024.36,0.084235,406777,335059
1028.09,0.084076,404427,333245
1031.82,0.084400,401911,330925
1036.78,0.083825,398410,328477
1040.49,0.083488,396204,326912
1044.2,0.083301,394236,325428
1047.91,0.082461,392042,324244
1051.61,0.082873,389823,322103
1055.31,0.082313,388234,321204
1059,0.081979,387599,320925
1063.92,0.081301,386688,320671
1067.61,0.080312,386598,321327
1071.29,0.080885,387377,321550
1074.96,0.079525,388536,323524
1078.63,0.078644,389855,325281
1082.3,0.077696,391215,327129
1085.96,0.076136,393215,329985
1090.84,0.076150,396270,332538
1094.49,0.075760,398760,334928
1098.14,0.075350,400987,337117
1101.79,0.074410,403477,339945
1105.43,0.074594,406116,342024
1109.06,0.074227,407701,343649
1112.7,0.074179,409859,345506
1117.53,0.073057,412494,348627
1121.15,0.073609,414909,350222
1124.77,0.073513,416559,351693
1128.38,0.074406,418532,352633
1131.99,0.075332,419956,353079
1135.6,0.077326,421946,353127
1139.2,0.078786,423881,353556
1143.99,0.080339,426786,354708
1147.58,0.080673,428617,355956
1151.17,0.082310,431169,356728
1154.75,0.082664,433579,358430
1158.33,0.083790,436264,359716
1161.91,0.085730,439132,360467
1165.48,0.087595,442389,361584
1169.04,0.089980,446101,362621
1173.79,0.093473,451929,364416
1177.34,0.095700,456026,365839
1180.9,0.098146,461306,367996
1184.44,0.099354,467657,372026
1187.99,0.100621,473969,375949
1191.52,0.100248,479856,380946
1195.06,0.100661,487372,386545
1199.76,0.099841,497347,395201
1203.29,0.098919,504311,401587
1206.81,0.099113,511507,407135
1210.33,0.097931,519078,414287
1213.84,0.097823,527163,420845
1217.35,0.096718,534208,427555
1220.85,0.096385,540472,432901
1225.51,0.095815,549929,441054
1229.01,0.095121,556888,447349
1232.5,0.094367,562180,452385
1235.98,0.093835,567975,457609
1239.46,0.092768,574815,464259
1242.94,0.091598,582782,471963
1246.41,0.091306,591476,479326
1251.03,0.091196,604016,489613
1254.5,0.091238,612289,496271
1257.96,0.091544,619125,501458
1261.41,0.092077,624551,505232
1264.86,0.092777,629900,508739
1268.31,0.093069,634345,511984
1271.75,0.093811,638574,514518
1276.33,0.094226,642499,517186
1279.76,0.093809,645905,520427
1283.19,0.093453,648307,522791
1286.61,0.093150,650446,524882
1290.03,0.092941,652132,526495
1293.44,0.092415,653907,528568
1296.85,0.091737,655963,531058
1301.39,0.091392,657349,532604
1304.8,0.091819,657558,532249
1308.19,0.092134,658515,532638
1311.58,0.091993,658804,533044
1314.97,0.092701,659011,532343
1318.36,0.092630,658272,531833
1321.73,0.092808,658022,531413
1326.23,0.093514,657870,530427
1329.6,0.094443,656482,528178
1332.97,0.095200,654926,526008
1336.33,0.095988,653727,524093
1339.69,0.097973,652497,520721
1343.04,0.099211,649913,517183
1346.39,0.100974,647671,513311
1349.73,0.102751,645338,509373
1354.18,0.105922,641175,502406
1357.52,0.107984,638376,497843
1360.85,0.110018,635805,493521
1364.17,0.111986,633413,489442
1367.49,0.113701,631026,485676
1370.81,0.115753,628050,481106
1374.12,0.117689,625034,476666
1378.54,0.120592,620272,469884
1381.84,0.123754,616892,463933
1385.14,0.126636,613613,458415
1388.43,0.130157,611526,453167
1391.72,0.134151,610663,448384
1395.01,0.137825,610634,444586
1398.29,0.142449,611700,440646
1402.66,0.148045,614051,436676
1405.93,0.152765,616268,433515
1409.2,0.157288,617795,430087
1412.46,0.161872,618872,426313
1415.72,0.165331,619795,423562
1418.98,0.169204,620495,420276
1422.23,0.172771,621087,417236
1426.56,0.175949,621375,414386
1429.8,0.177958,621616,412633
1433.04,0.181155,622129,409945
1436.27,0.183216,621526,407609
1439.5,0.184752,621113,405900
1442.72,0.187587,620921,403134
1445.94,0.189676,620270,400779
1450.23,0.194049,618860,395862
1453.44,0.196806,617697,392617
1456.64,0.199102,616264,389641
1459.85,0.201833,614413,386036
1463.04,0.205113,612307,381818
1466.24,0.208455,610032,377483
1469.43,0.212194,607345,372599
1473.67,0.218371,603789,365186
1476.85,0.224828,601175,358239
1480.02,0.230839,597737,351294
1483.19,0.237159,594479,344332
1486.36,0.243874,591232,337197
1489.52,0.247859,587853,332208
1492.68,0.252130,583875,326731
1496.89,0.253928,578062,322141
1500.03,0.254275,574159,319711
1503.18,0.253709,570285,317968
1506.32,0.253375,565444,315511
1509.45,0.251659,560571,314030
1512.58,0.250467,555821,312225
1515.71,0.248261,550344,310723
1519.87,0.245639,543983,308991
1522.99,0.242386,538764,308328
1526.1,0.240314,533692,306886
1529.21,0.237048,527902,305848
1532.32,0.234376,521886,304228
1535.42,0.231786,515888,302531
1538.51,0.228770,509987,301154
1541.6,0.225764,503936,299648
1545.72,0.222004,494694,296710
1548.8,0.218654,488378,295190
1551.88,0.216642,481832,292586
1554.95,0.214719,474989,289711
1558.02,0.213324,467818,286255
1561.08,0.212147,460730,282683
1564.15,0.211571,454170,279028
1568.22,0.209974,444181,273896
1571.27,0.209725,436947,269590
1574.32,0.208187,429598,265996
1577.36,0.207308,422039,261845
1580.4,0.206900,414375,257332
1583.43,0.205314,406354,253274
1586.46,0.203165,398475,249595
1590.49,0.201580,388982,244540
1593.51,0.200066,380708,240174
1596.53,0.197641,372727,236456
1599.54,0.195420,365060,232779
1602.55,0.193548,357543,228971
1605.55,0.192078,349495,224576
1608.55,0.190636,341154,219945
1612.54,0.188379,330877,214431
1615.53,0.186065,322904,210382
1618.51,0.185555,315116,205549
1621.49,0.185647,307217,200354
1624.47,0.183635,299481,196216
1627.44,0.181514,292112,192325
1630.41,0.181308,284245,187234
1634.36,0.179638,274079,181233
1637.32,0.179792,266916,176434
1640.27,0.178390,259612,172161
1643.22,0.178292,251804,167021
1646.16,0.177468,244348,162383
1649.1,0.176554,236703,157634
1652.04,0.174311,228171,152739
1655.95,0.171134,215408,145254
1658.88,0.168159,204937,139143
1661.8,0.163394,193395,132755
1664.72,0.154959,179728,125793
1667.63,0.142061,163642,117987
1670.54,0.126298,146312,109391
1673.44,0.111963,128451,99260
1677.31,0.090077,105080,85397
1680.21,0.077434,88906,74387
1683.1,0.073485,75033,63353
1685.99,0.068711,63520,54225
1688.87,0.076393,53714,45050
1691.75,0.078647,45653,38091
1694.62,0.091748,39137,31684
1697.49,0.088613,33776,27542
1701.31,0.094010,28175,22691