Folder: textile_sorting_NIRSCAN_/samples/wool/wool-000811 (part 58)

File: Column 1_050562_20150331_120536.csv
Method:,Column 1,,
Host Date-Time:,31/3/15 @ 12:5:36,,
Header Version:,1,,
System Temp (C):,33.78,,
Detector Temp (C):,33.42,,
Humidity (%):,2.05,,
Lamp PD:,3819,,
Shift Vector Coefficients:,-10.5391,0.0761263,-0.000134223,,
Pixel to Wavelength Coefficients:,1775.68,-0.916766,-0.000235065,,
Serial Number:,5510004,,
Scan Config Name:,Column 1,,
Scan Config Type:,Slew,,
Section 1,,
Start wavelength (nm):,900,,
End wavelength (nm):,1700,,
Pattern Pixel Width (nm):,   7.03,,,,
Exposure (ms):,  0.635,,,,
Digital Resolution:,228,,
Num Repeats:,6,,
PGA Gain:,64,,
Total Measurement Time in sec:,  2.671,,
Wavelength (nm),Absorbance (AU),Reference Signal (unitless),Sample Signal (unitless)
901.51,0.034437,108485,100215
905.376,0.041141,121306,110342
909.237,0.043096,131909,119448
913.095,0.044900,143299,129224
916.948,0.043308,156982,142083
922.079,0.045281,179937,162121
925.923,0.046248,200504,180250
929.762,0.047308,222660,199680
933.597,0.049259,244426,218217
937.427,0.047339,263972,236711
941.254,0.047269,281845,252779
945.076,0.045835,297271,267496
950.165,0.046226,315605,283738
953.978,0.045946,328029,295098
957.786,0.046225,340470,306093
961.59,0.046443,352317,316585
965.389,0.046446,363056,326233
969.185,0.046709,373162,335111
972.976,0.047083,382632,343319
976.763,0.047563,391202,350621
981.806,0.048452,400190,357943
985.583,0.049123,406088,362658
989.355,0.049966,410162,365586
993.124,0.049844,412868,368101
996.888,0.050489,414263,368797
1000.65,0.051140,415476,369323
1004.4,0.052461,415479,368204
1009.41,0.054162,414358,365775
1013.15,0.054914,412923,363877
1016.89,0.054902,411526,362656
1020.63,0.054783,409066,360587
1024.36,0.055354,406777,358098
1028.09,0.054346,404427,356857
1031.82,0.054892,401911,354191
1036.78,0.053786,398410,352001
1040.49,0.053236,396204,350496
1044.2,0.052918,394236,349010
1047.91,0.052630,392042,347298
1051.61,0.051862,389823,345944
1055.31,0.051222,388234,345042
1059,0.051298,387599,344417
1063.92,0.049683,386688,344888
1067.61,0.049326,386598,345091
1071.29,0.048901,387377,346125
1074.96,0.048656,388536,347356
1078.63,0.047707,389855,349298
1082.3,0.046748,391215,351291
1085.96,0.046242,393215,353499
1090.84,0.045711,396270,356681
1094.49,0.045606,398760,359009
1098.14,0.044911,400987,361592
1101.79,0.044506,403477,364177
1105.43,0.044804,406116,366308
1109.06,0.044310,407701,368156
1112.7,0.044285,409859,370126
1117.53,0.044178,412494,372597
1121.15,0.044513,414909,374490
1124.77,0.044907,416559,375638
1128.38,0.046735,418532,375832
1131.99,0.047412,419956,376523
1135.6,0.049657,421946,376357
1139.2,0.051622,423881,376376
1143.99,0.054295,426786,376630
1147.58,0.055536,428617,377167
1151.17,0.056332,431169,378718
1154.75,0.057689,433579,379646
1158.33,0.059171,436264,380696
1161.91,0.061654,439132,381014
1165.48,0.064295,442389,381513
1169.04,0.066613,446101,382666
1173.79,0.070392,451929,384307
1177.34,0.072775,456026,385669
1180.9,0.074614,461306,388486
1184.44,0.076716,467657,391933
1187.99,0.077426,473969,396574
1191.52,0.077123,479856,401780
1195.06,0.077154,487372,408044
1199.76,0.076245,497347,417267
1203.29,0.075177,504311,424152
1206.81,0.074898,511507,430481
1210.33,0.073518,519078,438243
1213.84,0.072826,527163,445778
1217.35,0.072228,534208,452358
1220.85,0.071198,540472,458749
1225.51,0.070066,549929,467994
1229.01,0.070040,556888,473945
1232.5,0.069654,562180,478874
1235.98,0.069025,567975,484512
1239.46,0.067583,574815,491977
1242.94,0.066705,582782,499806
1246.41,0.065727,591476,508405
1251.03,0.065958,604016,518908
1254.5,0.065785,612289,526225
1257.96,0.066389,619125,531361
1261.41,0.066998,624551,535266
1264.86,0.067341,629900,539425
1268.31,0.068031,634345,542369
1271.75,0.069053,638574,544701
1276.33,0.069207,642499,547855
1279.76,0.068878,645905,551176
1283.19,0.068691,648307,553465
1286.61,0.068473,650446,555569
1290.03,0.067930,652132,557706
1293.44,0.067464,653907,559825
1296.85,0.066923,655963,562285
1301.39,0.066980,657349,563399
1304.8,0.067302,657558,563160
1308.19,0.067307,658515,563974
1311.58,0.067217,658804,564338
1314.97,0.068197,659011,563243
1318.36,0.068521,658272,562192
1321.73,0.069100,658022,561229
1326.23,0.069784,657870,560217
1329.6,0.070742,656482,557803
1332.97,0.071991,654926,554883
1336.33,0.072688,653727,552979
1339.69,0.074887,652497,549151
1343.04,0.076379,649913,545100
1346.39,0.078379,647671,540724
1349.73,0.081149,645338,535351
1354.18,0.084069,641175,528333
1357.52,0.086576,638376,522999
1360.85,0.088493,635805,518598
1364.17,0.090816,633413,513891
1367.49,0.093074,631026,509299
1370.81,0.095686,628050,503858
1374.12,0.098395,625034,498320
1378.54,0.101460,620272,491046
1381.84,0.104918,616892,484497
1385.14,0.109186,613613,477209
1388.43,0.113183,611526,471229
1391.72,0.118245,610663,465111
1395.01,0.123673,610634,459312
1398.29,0.128513,611700,455015
1402.66,0.136488,614051,448452
1405.93,0.141990,616268,444406
1409.2,0.147627,617795,439762
1412.46,0.152755,618872,435357
1415.72,0.157353,619795,431415
1418.98,0.161787,620495,427515
1422.23,0.165966,621087,423825
1426.56,0.169866,621375,420231
1429.8,0.173045,621616,417328
1433.04,0.175313,622129,415497
1436.27,0.178112,621526,412427
1439.5,0.180003,621113,410362
1442.72,0.182790,620921,407611
1445.94,0.185266,620270,404869
1450.23,0.189257,618860,400254
1453.44,0.191649,617697,397307
1456.64,0.194576,616264,393723
1459.85,0.197410,614413,389987
1463.04,0.200582,612307,385822
1466.24,0.203324,610032,381969
1469.43,0.206827,607345,377232
1473.67,0.213213,603789,369549
1476.85,0.218606,601175,363408
1480.02,0.224536,597737,356430
1483.19,0.231444,594479,348893
1486.36,0.237371,591232,342284
1489.52,0.242133,587853,336617
1492.68,0.245846,583875,331493
1496.89,0.248063,578062,326521
1500.03,0.249191,574159,323475
1503.18,0.248669,570285,321679
1506.32,0.248131,565444,319344
1509.45,0.246764,560571,317590
1512.58,0.244837,555821,316299
1515.71,0.242726,550344,314708
1519.87,0.239517,543983,313378
1522.99,0.237518,538764,311803
1526.1,0.234024,533692,311363
1529.21,0.231200,527902,309994
1532.32,0.227628,521886,308992
1535.42,0.225823,515888,306713
1538.51,0.222220,509987,305731
1541.6,0.218895,503936,304425
1545.72,0.214357,494694,301981
1548.8,0.210868,488378,300530
1551.88,0.208350,481832,298226
1554.95,0.206666,474989,295133
1558.02,0.204364,467818,292222
1561.08,0.203198,460730,288568
1564.15,0.203269,454170,284413
1568.22,0.201533,444181,279272
1571.27,0.200935,436947,275102
1574.32,0.199368,429598,271453
1577.36,0.197849,422039,267611
1580.4,0.196270,414375,263708
1583.43,0.194960,406354,259385
1586.46,0.193457,398475,255237
1590.49,0.191767,388982,250128
1593.51,0.189173,380708,246274
1596.53,0.186285,372727,242720
1599.54,0.184670,365060,238613
1602.55,0.182678,357543,234774
1605.55,0.180233,349495,230785
1608.55,0.178107,341154,226383
1612.54,0.175988,330877,220637
1615.53,0.173902,322904,216357
1618.51,0.173528,315116,211321
1621.49,0.172119,307217,206693
1624.47,0.170275,299481,202346
1627.44,0.169068,292112,197916
1630.41,0.167708,284245,193190
1634.36,0.165881,274079,187066
1637.32,0.165074,266916,182516
1640.27,0.163722,259612,178075
1643.22,0.164258,251804,172506
1646.16,0.163168,244348,167819
1649.1,0.163556,236703,162423
1652.04,0.159752,228171,157946
1655.95,0.158165,215408,149657
1658.88,0.155511,204937,143255
1661.8,0.151526,193395,136433
1664.72,0.144397,179728,128890
1667.63,0.134876,163642,119955
1670.54,0.122913,146312,110247
1673.44,0.111688,128451,99323
1677.31,0.098178,105080,83819
1680.21,0.089391,88906,72367
1683.1,0.089858,75033,61009
1685.99,0.091466,63520,51457
1688.87,0.101453,53714,42524
1691.75,0.096974,45653,36517
1694.62,0.107420,39137,30561
1697.49,0.109760,33776,26233
1701.31,0.117951,28175,21474

File: Column 1_050562_20150331_120539.csv
Method:,Column 1,,
Host Date-Time:,31/3/15 @ 12:5:39,,
Header Version:,1,,
System Temp (C):,33.78,,
Detector Temp (C):,33.4,,
Humidity (%):,2.05,,
Lamp PD:,3819,,
Shift Vector Coefficients:,-10.5391,0.0761263,-0.000134223,,
Pixel to Wavelength Coefficients:,1775.68,-0.916766,-0.000235065,,
Serial Number:,5510004,,
Scan Config Name:,Column 1,,
Scan Config Type:,Slew,,
Section 1,,
Start wavelength (nm):,900,,
End wavelength (nm):,1700,,
Pattern Pixel Width (nm):,   7.03,,,,
Exposure (ms):,  0.635,,,,
Digital Resolution:,228,,
Num Repeats:,6,,
PGA Gain:,64,,
Total Measurement Time in sec:,  2.685,,
Wavelength (nm),Absorbance (AU),Reference Signal (unitless),Sample Signal (unitless)
901.51,0.033822,108485,100357
905.376,0.042549,121306,109985
909.237,0.042703,131909,119556
913.095,0.044467,143299,129353
916.948,0.044980,156982,141537
922.079,0.045622,179937,161994
925.923,0.046846,200504,180002
929.762,0.047641,222660,199527
933.597,0.048005,244426,218848
937.427,0.047776,263972,236473
941.254,0.046454,281845,253254
945.076,0.046841,297271,266877
950.165,0.046358,315605,283652
953.978,0.045961,328029,295088
957.786,0.046057,340470,306212
961.59,0.046607,352317,316466
965.389,0.046613,363056,326107
969.185,0.046981,373162,334901
972.976,0.047052,382632,343344
976.763,0.047467,391202,350699
981.806,0.048394,400190,357991
985.583,0.048837,406088,362897
989.355,0.049484,410162,365992
993.124,0.049896,412868,368057
996.888,0.050284,414263,368971
1000.65,0.051142,415476,369321
1004.4,0.052597,415479,368088
1009.41,0.053619,414358,366232
1013.15,0.054278,412923,364411
1016.89,0.054872,411526,362681
1020.63,0.054822,409066,360555
1024.36,0.054558,406777,358755
1028.09,0.054775,404427,356505
1031.82,0.054024,401911,354900
1036.78,0.053490,398410,352241
1040.49,0.053150,396204,350565
1044.2,0.053291,394236,348711
1047.91,0.052080,392042,347738
1051.61,0.051879,389823,345930
1055.31,0.051897,388234,344506
1059,0.051046,387599,344617
1063.92,0.050011,386688,344627
1067.61,0.049924,386598,344616
1071.29,0.048739,387377,346254
1074.96,0.048309,388536,347634
1078.63,0.047797,389855,349226
1082.3,0.047131,391215,350982
1085.96,0.046047,393215,353658
1090.84,0.045749,396270,356650
1094.49,0.045190,398760,359353
1098.14,0.045225,400987,361331
1101.79,0.044658,403477,364050
1105.43,0.044349,406116,366692
1109.06,0.043756,407701,368626
1112.7,0.044348,409859,370072
1117.53,0.043847,412494,372881
1121.15,0.044848,414909,374201
1124.77,0.045288,416559,375309
1128.38,0.046748,418532,375821
1131.99,0.048157,419956,375878
1135.6,0.049716,421946,376306
1139.2,0.051839,423881,376188
1143.99,0.054230,426786,376687
1147.58,0.055482,428617,377214
1151.17,0.056043,431169,378970
1154.75,0.057815,433579,379536
1158.33,0.059491,436264,380416
1161.91,0.061433,439132,381208
1165.48,0.063426,442389,382277
1169.04,0.066579,446101,382696
1173.79,0.070399,451929,384301
1177.34,0.072537,456026,385880
1180.9,0.074825,461306,388297
1184.44,0.076884,467657,391781
1187.99,0.077672,473969,396349
1191.52,0.077366,479856,401555
1195.06,0.077068,487372,408124
1199.76,0.076145,497347,417364
1203.29,0.075431,504311,423904
1206.81,0.074708,511507,430669
1210.33,0.073818,519078,437940
1213.84,0.073141,527163,445455
1217.35,0.072070,534208,452523
1220.85,0.071711,540472,458208
1225.51,0.070617,549929,467401
1229.01,0.069935,556888,474059
1232.5,0.069675,562180,478851
1235.98,0.068827,567975,484733
1239.46,0.067665,574815,491885
1242.94,0.066544,582782,499991
1246.41,0.066120,591476,507945
1251.03,0.065982,604016,518880
1254.5,0.065894,612289,526093
1257.96,0.066264,619125,531514
1261.41,0.066971,624551,535300
1264.86,0.067357,629900,539404
1268.31,0.067909,634345,542521
1271.75,0.068915,638574,544874
1276.33,0.069357,642499,547665
1279.76,0.069285,645905,550660
1283.19,0.068762,648307,553374
1286.61,0.068373,650446,555697
1290.03,0.068076,652132,557519
1293.44,0.067343,653907,559980
1296.85,0.067186,655963,561945
1301.39,0.067045,657349,563315
1304.8,0.067083,657558,563445
1308.19,0.067142,658515,564188
1311.58,0.067208,658804,564349
1314.97,0.068131,659011,563328
1318.36,0.068491,658272,562230
1321.73,0.068717,658022,561725
1326.23,0.069654,657870,560385
1329.6,0.070777,656482,557758
1332.97,0.071660,654926,555306
1336.33,0.072844,653727,552780
1339.69,0.074608,652497,549503
1343.04,0.076436,649913,545029
1346.39,0.078805,647671,540194
1349.73,0.080720,645338,535880
1354.18,0.084033,641175,528376
1357.52,0.086665,638376,522891
1360.85,0.088790,635805,518244
1364.17,0.090524,633413,514236
1367.49,0.093116,631026,509250
1370.81,0.095635,628050,503917
1374.12,0.098349,625034,498373
1378.54,0.101806,620272,490655
1381.84,0.104765,616892,484668
1385.14,0.109306,613613,477077
1388.43,0.113170,611526,471243
1391.72,0.118203,610663,465156
1395.01,0.123774,610634,459205
1398.29,0.128616,611700,454907
1402.66,0.136424,614051,448519
1405.93,0.142112,616268,444281
1409.2,0.147750,617795,439637
1412.46,0.152964,618872,435148
1415.72,0.157707,619795,431063
1418.98,0.160988,620495,428302
1422.23,0.165551,621087,424230
1426.56,0.169640,621375,420449
1429.8,0.172517,621616,417835
1433.04,0.175513,622129,415305
1436.27,0.177739,621526,412782
1439.5,0.179979,621113,410385
1442.72,0.182533,620921,407853
1445.94,0.185183,620270,404947
1450.23,0.188899,618860,400584
1453.44,0.191460,617697,397480
1456.64,0.194760,616264,393556
1459.85,0.197595,614413,389821
1463.04,0.200168,612307,386190
1466.24,0.203428,610032,381878
1469.43,0.207116,607345,376981
1473.67,0.213059,603789,369680
1476.85,0.219195,601175,362916
1480.02,0.224315,597737,356611
1483.19,0.231403,594479,348926
1486.36,0.237140,591232,342466
1489.52,0.242337,587853,336459
1492.68,0.245109,583875,332056
1496.89,0.247832,578062,326695
1500.03,0.248892,574159,323698
1503.18,0.249629,570285,320969
1506.32,0.248165,565444,319319
1509.45,0.247132,560571,317321
1512.58,0.245027,555821,316161
1515.71,0.242497,550344,314874
1519.87,0.239432,543983,313439
1522.99,0.236362,538764,312634
1526.1,0.234000,533692,311380
1529.21,0.231117,527902,310053
1532.32,0.227662,521886,308968
1535.42,0.225669,515888,306822
1538.51,0.221188,509987,306458
1541.6,0.219083,503936,304293
1545.72,0.214098,494694,302161
1548.8,0.211558,488378,300053
1551.88,0.208196,481832,298332
1554.95,0.205448,474989,295962
1558.02,0.204800,467818,291929
1561.08,0.203471,460730,288387
1564.15,0.201921,454170,285297
1568.22,0.201309,444181,279416
1571.27,0.200651,436947,275282
1574.32,0.199936,429598,271098
1577.36,0.198201,422039,267394
1580.4,0.196786,414375,263395
1583.43,0.195236,406354,259220
1586.46,0.193199,398475,255389
1590.49,0.191045,388982,250544
1593.51,0.188608,380708,246595
1596.53,0.186534,372727,242581
1599.54,0.183894,365060,239040
1602.55,0.181716,357543,235295
1605.55,0.180536,349495,230624
1608.55,0.178431,341154,226214
1612.54,0.176534,330877,220360
1615.53,0.173557,322904,216529
1618.51,0.171786,315116,212170
1621.49,0.170838,307217,207304
1624.47,0.169188,299481,202853
1627.44,0.169413,292112,197759
1630.41,0.166583,284245,193691
1634.36,0.166778,274079,186680
1637.32,0.165112,266916,182500
1640.27,0.163771,259612,178055
1643.22,0.163504,251804,172806
1646.16,0.162286,244348,168160
1649.1,0.161699,236703,163119
1652.04,0.160137,228171,157806
1655.95,0.157171,215408,150000
1658.88,0.156540,204937,142916
1661.8,0.151478,193395,136448
1664.72,0.145179,179728,128658
1667.63,0.134395,163642,120088
1670.54,0.125050,146312,109706
1673.44,0.110456,128451,99605
1677.31,0.096007,105080,84239
1680.21,0.091122,88906,72079
1683.1,0.087381,75033,61358
1685.99,0.094677,63520,51078
1688.87,0.093469,53714,43313
1691.75,0.102371,45653,36066
1694.62,0.105676,39137,30684
1697.49,0.113067,33776,26034
1701.31,0.121851,28175,21282

File: Column 1_050562_20150331_120541.csv
Method:,Column 1,,
Host Date-Time:,31/3/15 @ 12:5:41,,
Header Version:,1,,
System Temp (C):,33.79,,
Detector Temp (C):,33.4,,
Humidity (%):,2.05,,
Lamp PD:,3819,,
Shift Vector Coefficients:,-10.5391,0.0761263,-0.000134223,,
Pixel to Wavelength Coefficients:,1775.68,-0.916766,-0.000235065,,
Serial Number:,5510004,,
Scan Config Name:,Column 1,,
Scan Config Type:,Slew,,
Section 1,,
Start wavelength (nm):,900,,
End wavelength (nm):,1700,,
Pattern Pixel Width (nm):,   7.03,,,,
Exposure (ms):,  0.635,,,,
Digital Resolution:,228,,
Num Repeats:,6,,
PGA Gain:,64,,
Total Measurement Time in sec:,  2.672,,
Wavelength (nm),Absorbance (AU),Reference Signal (unitless),Sample Signal (unitless)
901.51,0.033100,108485,100524
905.376,0.037621,121306,111240
909.237,0.041234,131909,119961
913.095,0.042744,143299,129867
916.948,0.044235,156982,141780
922.079,0.045244,179937,162135
925.923,0.045997,200504,180354
929.762,0.047436,222660,199621
933.597,0.047559,244426,219073
937.427,0.046571,263972,237130
941.254,0.046325,281845,253329
945.076,0.045313,297271,267818
950.165,0.045807,315605,284012
953.978,0.045242,328029,295577
957.786,0.045623,340470,306518
961.59,0.046416,352317,316605
965.389,0.045971,363056,326590
969.185,0.046351,373162,335387
972.976,0.046951,382632,343424
976.763,0.047713,391202,350500
981.806,0.047513,400190,358718
985.583,0.048362,406088,363294
989.355,0.049441,410162,366028
993.124,0.049628,412868,368284
996.888,0.050522,414263,368769
1000.65,0.051328,415476,369163
1004.4,0.052178,415479,368444
1009.41,0.053155,414358,366624
1013.15,0.054004,412923,364641
1016.89,0.054468,411526,363019
1020.63,0.054339,409066,360956
1024.36,0.054191,406777,359059
1028.09,0.053803,404427,357303
1031.82,0.053542,401911,355294
1036.78,0.053149,398410,352518
1040.49,0.053028,396204,350664
1044.2,0.053164,394236,348813
1047.91,0.052948,392042,347044
1051.61,0.051571,389823,346176
1055.31,0.050794,388234,345382
1059,0.050440,387599,345098
1063.92,0.050020,386688,344620
1067.61,0.049501,386598,344952
1071.29,0.048600,387377,346365
1074.96,0.047639,388536,348171
1078.63,0.047503,389855,349462
1082.3,0.046230,391215,351711
1085.96,0.046391,393215,353378
1090.84,0.045397,396270,356939
1094.49,0.044769,398760,359702
1098.14,0.044185,400987,362197
1101.79,0.044226,403477,364412
1105.43,0.044918,406116,366212
1109.06,0.043848,407701,368548
1112.7,0.043648,409859,370669
1117.53,0.043290,412494,373360
1121.15,0.044763,414909,374274
1124.77,0.044786,416559,375743
1128.38,0.046533,418532,376007
1131.99,0.047561,419956,376394
1135.6,0.049914,421946,376134
1139.2,0.051195,423881,376746
1143.99,0.053596,426786,377237
1147.58,0.055143,428617,377508
1151.17,0.056241,431169,378797
1154.75,0.056927,433579,380313
1158.33,0.058914,436264,380921
1161.91,0.061219,439132,381396
1165.48,0.063590,442389,382133
1169.04,0.065851,446101,383338
1173.79,0.069720,451929,384902
1177.34,0.072329,456026,386065
1180.9,0.074434,461306,388647
1184.44,0.076547,467657,392085
1187.99,0.076873,473969,397079
1191.52,0.076498,479856,402358
1195.06,0.077345,487372,407864
1199.76,0.075752,497347,417741
1203.29,0.074409,504311,424903
1206.81,0.074351,511507,431023
1210.33,0.073381,519078,438381
1213.84,0.072494,527163,446119
1217.35,0.071833,534208,452770
1220.85,0.070813,540472,459156
1225.51,0.069978,549929,468089
1229.01,0.069707,556888,474308
1232.5,0.068975,562180,479623
1235.98,0.068728,567975,484843
1239.46,0.067142,574815,492477
1242.94,0.066157,582782,500437
1246.41,0.065650,591476,508495
1251.03,0.065129,604016,519900
1254.5,0.065655,612289,526382
1257.96,0.065779,619125,532108
1261.41,0.066674,624551,535666
1264.86,0.067170,629900,539637
1268.31,0.067854,634345,542590
1271.75,0.068585,638574,545288
1276.33,0.069041,642499,548064
1279.76,0.068740,645905,551351
1283.19,0.068102,648307,554216
1286.61,0.067825,650446,556399
1290.03,0.067852,652132,557807
1293.44,0.067380,653907,559933
1296.85,0.067220,655963,561900
1301.39,0.066780,657349,563658
1304.8,0.066716,657558,563921
1308.19,0.067305,658515,563976
1311.58,0.067015,658804,564600
1314.97,0.067536,659011,564101
1318.36,0.068294,658272,562486
1321.73,0.068673,658022,561781
1326.23,0.069401,657870,560711
1329.6,0.070666,656482,557900
1332.97,0.071625,654926,555350
1336.33,0.073016,653727,552561
1339.69,0.074525,652497,549608
1343.04,0.076538,649913,544901
1346.39,0.078818,647671,540178
1349.73,0.080354,645338,536331
1354.18,0.084047,641175,528360
1357.52,0.086025,638376,523663
1360.85,0.088401,635805,518708
1364.17,0.090746,633413,513974
1367.49,0.092723,631026,509711
1370.81,0.095647,628050,503903
1374.12,0.097460,625034,499394
1378.54,0.101767,620272,490699
1381.84,0.104805,616892,484623
1385.14,0.108945,613613,477474
1388.43,0.112929,611526,471505
1391.72,0.118065,610663,465304
1395.01,0.122708,610634,460334
1398.29,0.128226,611700,455316
1402.66,0.136040,614051,448915
1405.93,0.141510,616268,444897
1409.2,0.147408,617795,439984
1412.46,0.152558,618872,435555
1415.72,0.157076,619795,431690
1418.98,0.161446,620495,427851
1422.23,0.164530,621087,425229
1426.56,0.169734,621375,420358
1429.8,0.171667,621616,418654
1433.04,0.174826,622129,415963
1436.27,0.177663,621526,412854
1439.5,0.179452,621113,410883
1442.72,0.182605,620921,407785
1445.94,0.184810,620270,405295
1450.23,0.188550,618860,400906
1453.44,0.191636,617697,397319
1456.64,0.193928,616264,394311
1459.85,0.197689,614413,389737
1463.04,0.199935,612307,386397
1466.24,0.203412,610032,381892
1469.43,0.206806,607345,377250
1473.67,0.212743,603789,369949
1476.85,0.218395,601175,363585
1480.02,0.224115,597737,356776
1483.19,0.230660,594479,349524
1486.36,0.236631,591232,342868
1489.52,0.241656,587853,336987
1492.68,0.244899,583875,332216
1496.89,0.248014,578062,326558
1500.03,0.248594,574159,323920
1503.18,0.248812,570285,321573
1506.32,0.248064,565444,319393
1509.45,0.246426,560571,317837
1512.58,0.244664,555821,316425
1515.71,0.242226,550344,315071
1519.87,0.239443,543983,313431
1522.99,0.236900,538764,312247
1526.1,0.234246,533692,311204
1529.21,0.231126,527902,310047
1532.32,0.227890,521886,308806
1535.42,0.224839,515888,307409
1538.51,0.223471,509987,304851
1541.6,0.218849,503936,304457
1545.72,0.214400,494694,301951
1548.8,0.210546,488378,300753
1551.88,0.207537,481832,298785
1554.95,0.205571,474989,295878
1558.02,0.204027,467818,292449
1561.08,0.202845,460730,288803
1564.15,0.202299,454170,285049
1568.22,0.201781,444181,279112
1571.27,0.200168,436947,275588
1574.32,0.199922,429598,271107
1577.36,0.197043,422039,268108
1580.4,0.196984,414375,263275
1583.43,0.194742,406354,259515
1586.46,0.193109,398475,255442
1590.49,0.191115,388982,250504
1593.51,0.188814,380708,246478
1596.53,0.185897,372727,242937
1599.54,0.184110,365060,238921
1602.55,0.181710,357543,235298
1605.55,0.178991,349495,231446
1608.55,0.176835,341154,227047
1612.54,0.175088,330877,221095
1615.53,0.173056,322904,216779
1618.51,0.172313,315116,211913
1621.49,0.170630,307217,207403
1624.47,0.169696,299481,202616
1627.44,0.169016,292112,197940
1630.41,0.166243,284245,193843
1634.36,0.165477,274079,187240
1637.32,0.164788,266916,182636
1640.27,0.164977,259612,177561
1643.22,0.162257,251804,173303
1646.16,0.161247,244348,168563
1649.1,0.161555,236703,163173
1652.04,0.160387,228171,157715
1655.95,0.156835,215408,150116
1658.88,0.153466,204937,143931
1661.8,0.148759,193395,137305
1664.72,0.144144,179728,128965
1667.63,0.134258,163642,120126
1670.54,0.122771,146312,110283
1673.44,0.109707,128451,99777
1677.31,0.098655,105080,83727
1680.21,0.087546,88906,72675
1683.1,0.084876,75033,61713
1685.99,0.088086,63520,51859
1688.87,0.093499,53714,43310
1691.75,0.096879,45653,36525
1694.62,0.103938,39137,30807
1697.49,0.110522,33776,26187
1701.31,0.110254,28175,21858