Folder: textile_sorting_NIRSCAN_/samples/wool/wool-000811 (part 90)

File: Column 1_050579_20150331_121334.csv
Method:,Column 1,,
Host Date-Time:,31/3/15 @ 12:13:34,,
Header Version:,1,,
System Temp (C):,33.81,,
Detector Temp (C):,34.64,,
Humidity (%):,2.05,,
Lamp PD:,3819,,
Shift Vector Coefficients:,-10.5391,0.0761263,-0.000134223,,
Pixel to Wavelength Coefficients:,1775.68,-0.916766,-0.000235065,,
Serial Number:,5510004,,
Scan Config Name:,Column 1,,
Scan Config Type:,Slew,,
Section 1,,
Start wavelength (nm):,900,,
End wavelength (nm):,1700,,
Pattern Pixel Width (nm):,   7.03,,,,
Exposure (ms):,  0.635,,,,
Digital Resolution:,228,,
Num Repeats:,6,,
PGA Gain:,64,,
Total Measurement Time in sec:,  2.668,,
Wavelength (nm),Absorbance (AU),Reference Signal (unitless),Sample Signal (unitless)
901.51,0.072319,108485,91844
905.376,0.078299,121306,101294
909.237,0.080179,131909,109672
913.095,0.079861,143299,119229
916.948,0.082037,156982,129961
922.079,0.082728,179937,148728
925.923,0.084444,200504,165074
929.762,0.084482,222660,183299
933.597,0.083674,244426,201592
937.427,0.083670,263972,217715
941.254,0.082433,281845,233119
945.076,0.082161,297271,246032
950.165,0.081335,315605,261703
953.978,0.080399,328029,272592
957.786,0.080858,340470,282632
961.59,0.081328,352317,292150
965.389,0.081140,363056,301185
969.185,0.081050,373162,309633
972.976,0.081422,382632,317219
976.763,0.081825,391202,324023
981.806,0.082467,400190,330978
985.583,0.083295,406088,335216
989.355,0.083634,410162,338315
993.124,0.084176,412868,340122
996.888,0.084625,414263,340919
1000.65,0.085079,415476,341560
1004.4,0.086118,415479,340746
1009.41,0.087586,414358,338680
1013.15,0.087485,412923,337586
1016.89,0.088252,411526,335850
1020.63,0.088273,409066,333826
1024.36,0.088468,406777,331809
1028.09,0.088130,404427,330149
1031.82,0.087699,401911,328421
1036.78,0.087259,398410,325890
1040.49,0.087842,396204,323651
1044.2,0.087229,394236,322498
1047.91,0.087041,392042,320842
1051.61,0.086877,389823,319147
1055.31,0.085842,388234,318604
1059,0.085472,387599,318354
1063.92,0.085560,386688,317542
1067.61,0.084433,386598,318293
1071.29,0.084639,387377,318783
1074.96,0.084030,388536,320185
1078.63,0.083494,389855,321669
1082.3,0.082088,391215,323838
1085.96,0.081370,393215,326032
1090.84,0.080806,396270,328992
1094.49,0.080119,398760,331583
1098.14,0.079492,400987,333917
1101.79,0.079536,403477,335956
1105.43,0.079058,406116,338526
1109.06,0.078026,407701,340656
1112.7,0.077884,409859,342571
1117.53,0.077661,412494,344950
1121.15,0.078304,414909,346457
1124.77,0.078427,416559,347736
1128.38,0.079669,418532,348385
1131.99,0.080181,419956,349159
1135.6,0.082356,421946,349061
1139.2,0.083397,423881,349822
1143.99,0.085919,426786,350180
1147.58,0.086008,428617,351610
1151.17,0.086771,431169,353083
1154.75,0.088103,433579,353969
1158.33,0.089869,436264,354716
1161.91,0.091473,439132,355731
1165.48,0.093635,442389,356590
1169.04,0.095112,446101,358361
1173.79,0.098707,451929,360050
1177.34,0.101132,456026,361291
1180.9,0.103337,461306,363624
1184.44,0.104870,467657,367331
1187.99,0.106411,473969,370970
1191.52,0.105989,479856,375943
1195.06,0.106529,487372,381357
1199.76,0.105066,497347,390475
1203.29,0.104357,504311,396590
1206.81,0.103967,511507,402610
1210.33,0.103331,519078,409168
1213.84,0.103025,527163,415834
1217.35,0.102243,534208,422151
1220.85,0.101225,540472,428103
1225.51,0.100165,549929,436658
1229.01,0.100276,556888,442071
1232.5,0.099770,562180,446792
1235.98,0.099220,567975,451970
1239.46,0.098029,574815,458669
1242.94,0.097460,582782,465636
1246.41,0.096721,591476,473387
1251.03,0.096558,604016,483605
1254.5,0.096630,612289,490147
1257.96,0.097367,619125,494779
1261.41,0.097856,624551,498554
1264.86,0.098436,629900,502152
1268.31,0.098478,634345,505647
1271.75,0.099019,638574,508385
1276.33,0.099396,642499,511065
1279.76,0.099282,645905,513910
1283.19,0.098913,648307,516259
1286.61,0.098628,650446,518302
1290.03,0.098403,652132,519915
1293.44,0.097426,653907,522504
1296.85,0.097713,655963,523801
1301.39,0.097676,657349,524952
1304.8,0.097633,657558,525171
1308.19,0.097663,658515,525899
1311.58,0.097948,658804,525785
1314.97,0.098475,659011,525313
1318.36,0.098632,658272,524534
1321.73,0.099449,658022,523349
1326.23,0.100207,657870,522316
1329.6,0.101534,656482,519624
1332.97,0.102378,654926,517386
1336.33,0.103542,653727,515056
1339.69,0.105061,652497,512292
1343.04,0.106753,649913,508279
1346.39,0.109371,647671,503481
1349.73,0.110970,645338,499824
1354.18,0.113774,641175,493404
1357.52,0.116004,638376,488734
1360.85,0.118024,635805,484507
1364.17,0.120135,633413,480344
1367.49,0.122390,631026,476055
1370.81,0.124500,628050,471514
1374.12,0.127003,625034,466553
1378.54,0.130065,620272,459745
1381.84,0.133601,616892,453532
1385.14,0.136679,613613,447936
1388.43,0.141279,611526,441709
1391.72,0.146286,610663,436029
1395.01,0.151189,610634,431114
1398.29,0.156651,611700,426469
1402.66,0.164392,614051,420545
1405.93,0.170281,616268,416379
1409.2,0.175761,617795,412177
1412.46,0.181640,618872,407344
1415.72,0.186018,619795,403859
1418.98,0.190232,620495,400411
1422.23,0.193789,621087,397524
1426.56,0.198374,621375,393532
1429.8,0.200934,621616,391371
1433.04,0.203890,622129,389037
1436.27,0.205879,621526,386884
1439.5,0.207815,621113,384907
1442.72,0.210337,620921,382560
1445.94,0.212737,620270,380053
1450.23,0.215856,618860,376475
1453.44,0.218616,617697,373387
1456.64,0.220871,616264,370592
1459.85,0.223869,614413,366937
1463.04,0.226446,612307,363516
1466.24,0.229189,610032,359885
1469.43,0.232215,607345,355812
1473.67,0.237125,603789,349752
1476.85,0.242053,601175,344309
1480.02,0.247207,597737,338301
1483.19,0.252371,594479,332480
1486.36,0.256828,591232,327288
1489.52,0.260696,587853,322532
1492.68,0.264364,583875,317655
1496.89,0.265745,578062,313494
1500.03,0.266333,574159,310956
1503.18,0.266436,570285,308785
1506.32,0.265415,565444,306884
1509.45,0.263679,560571,305458
1512.58,0.261639,555821,304296
1515.71,0.260430,550344,302137
1519.87,0.257854,543983,300422
1522.99,0.255119,538764,299419
1526.1,0.253074,533692,298000
1529.21,0.250072,527902,296812
1532.32,0.247261,521886,295335
1535.42,0.244617,515888,293723
1538.51,0.241766,509987,292276
1541.6,0.238300,503936,291122
1545.72,0.234204,494694,288491
1548.8,0.232860,488378,285691
1551.88,0.229233,481832,284225
1554.95,0.227179,474989,281517
1558.02,0.225217,467818,278522
1561.08,0.224155,460730,274974
1564.15,0.223730,454170,271324
1568.22,0.222554,444181,266076
1571.27,0.221842,436947,262172
1574.32,0.221901,429598,257728
1577.36,0.219170,422039,254790
1580.4,0.219155,414375,250172
1583.43,0.217000,406354,246550
1586.46,0.215083,398475,242839
1590.49,0.213241,388982,238061
1593.51,0.211122,380708,234137
1596.53,0.208409,372727,230665
1599.54,0.207666,365060,226307
1602.55,0.205998,357543,222500
1605.55,0.203753,349495,218619
1608.55,0.202908,341154,213817
1612.54,0.199354,330877,209080
1615.53,0.196674,322904,205305
1618.51,0.196714,315116,200335
1621.49,0.195123,307217,196030
1624.47,0.193688,299481,191726
1627.44,0.193065,292112,187277
1630.41,0.191548,284245,182871
1634.36,0.190831,274079,176622
1637.32,0.189626,266916,172484
1640.27,0.188599,259612,168161
1643.22,0.188705,251804,163064
1646.16,0.187451,244348,158693
1649.1,0.185630,236703,154374
1652.04,0.184436,228171,149219
1655.95,0.181530,215408,141818
1658.88,0.176952,204937,136354
1661.8,0.172295,193395,130062
1664.72,0.165336,179728,122823
1667.63,0.153737,163642,114857
1670.54,0.140532,146312,105864
1673.44,0.125228,128451,96274
1677.31,0.108236,105080,81900
1680.21,0.095032,88906,71433
1683.1,0.090172,75033,60965
1685.99,0.092886,63520,51289
1688.87,0.095489,53714,43112
1691.75,0.096784,45653,36533
1694.62,0.104220,39137,30787
1697.49,0.107218,33776,26387
1701.31,0.109817,28175,21880

File: Column 1_050579_20150331_121340.csv
Method:,Column 1,,
Host Date-Time:,31/3/15 @ 12:13:40,,
Header Version:,1,,
System Temp (C):,33.82,,
Detector Temp (C):,34.67,,
Humidity (%):,1.95,,
Lamp PD:,3819,,
Shift Vector Coefficients:,-10.5391,0.0761263,-0.000134223,,
Pixel to Wavelength Coefficients:,1775.68,-0.916766,-0.000235065,,
Serial Number:,5510004,,
Scan Config Name:,Column 1,,
Scan Config Type:,Slew,,
Section 1,,
Start wavelength (nm):,900,,
End wavelength (nm):,1700,,
Pattern Pixel Width (nm):,   7.03,,,,
Exposure (ms):,  0.635,,,,
Digital Resolution:,228,,
Num Repeats:,6,,
PGA Gain:,64,,
Total Measurement Time in sec:,  2.663,,
Wavelength (nm),Absorbance (AU),Reference Signal (unitless),Sample Signal (unitless)
901.51,0.072920,108485,91717
905.376,0.077990,121306,101366
909.237,0.080222,131909,109661
913.095,0.079603,143299,119300
916.948,0.081072,156982,130250
922.079,0.082888,179937,148673
925.923,0.082869,200504,165674
929.762,0.083680,222660,183638
933.597,0.084714,244426,201110
937.427,0.084252,263972,217423
941.254,0.082783,281845,232931
945.076,0.081695,297271,246296
950.165,0.081161,315605,261808
953.978,0.080826,328029,272324
957.786,0.080768,340470,282690
961.59,0.081103,352317,292301
965.389,0.081175,363056,301161
969.185,0.081540,373162,309284
972.976,0.081521,382632,317147
976.763,0.082398,391202,323596
981.806,0.082399,400190,331030
985.583,0.083491,406088,335065
989.355,0.084185,410162,337886
993.124,0.083847,412868,340380
996.888,0.084447,414263,341059
1000.65,0.084937,415476,341672
1004.4,0.086593,415479,340374
1009.41,0.087546,414358,338711
1013.15,0.088541,412923,336766
1016.89,0.088665,411526,335531
1020.63,0.088500,409066,333652
1024.36,0.088710,406777,331624
1028.09,0.087632,404427,330528
1031.82,0.087708,401911,328414
1036.78,0.088061,398410,325289
1040.49,0.087709,396204,323750
1044.2,0.087182,394236,322533
1047.91,0.087235,392042,320699
1051.61,0.086990,389823,319064
1055.31,0.086384,388234,318207
1059,0.086012,387599,317959
1063.92,0.085117,386688,317866
1067.61,0.085144,386598,317772
1071.29,0.084067,387377,319203
1074.96,0.083754,388536,320389
1078.63,0.083401,389855,321738
1082.3,0.082290,391215,323687
1085.96,0.081145,393215,326201
1090.84,0.080987,396270,328855
1094.49,0.080190,398760,331529
1098.14,0.080303,400987,333294
1101.79,0.079100,403477,336294
1105.43,0.078353,406116,339076
1109.06,0.078263,407701,340470
1112.7,0.078083,409859,342414
1117.53,0.077514,412494,345067
1121.15,0.077946,414909,346742
1124.77,0.078541,416559,347645
1128.38,0.078933,418532,348976
1131.99,0.080069,419956,349249
1135.6,0.081721,421946,349571
1139.2,0.083779,423881,349514
1143.99,0.085408,426786,350592
1147.58,0.086292,428617,351380
1151.17,0.087467,431169,352517
1154.75,0.088082,433579,353986
1158.33,0.089848,436264,354733
1161.91,0.091978,439132,355318
1165.48,0.093724,442389,356517
1169.04,0.096243,446101,357429
1173.79,0.099415,451929,359464
1177.34,0.101059,456026,361352
1180.9,0.103390,461306,363579
1184.44,0.104981,467657,367237
1187.99,0.106437,473969,370948
1191.52,0.106550,479856,375458
1195.06,0.105423,487372,382329
1199.76,0.105322,497347,390245
1203.29,0.104856,504311,396134
1206.81,0.103990,511507,402589
1210.33,0.103562,519078,408950
1213.84,0.102633,527163,416209
1217.35,0.102271,534208,422123
1220.85,0.101840,540472,427497
1225.51,0.100856,549929,435964
1229.01,0.099862,556888,442492
1232.5,0.099659,562180,446906
1235.98,0.099029,567975,452168
1239.46,0.098265,574815,458420
1242.94,0.097071,582782,466053
1246.41,0.096561,591476,473561
1251.03,0.096700,604016,483446
1254.5,0.096964,612289,489770
1257.96,0.096610,619125,495642
1261.41,0.097199,624551,499308
1264.86,0.098050,629900,502599
1268.31,0.098668,634345,505426
1271.75,0.099195,638574,508178
1276.33,0.099659,642499,510756
1279.76,0.099545,645905,513598
1283.19,0.099210,648307,515906
1286.61,0.098790,650446,518109
1290.03,0.098234,652132,520118
1293.44,0.097617,653907,522275
1296.85,0.097603,655963,523934
1301.39,0.097687,657349,524939
1304.8,0.097180,657558,525719
1308.19,0.097425,658515,526188
1311.58,0.097965,658804,525765
1314.97,0.098520,659011,525258
1318.36,0.098840,658272,524282
1321.73,0.099211,658022,523636
1326.23,0.100407,657870,522075
1329.6,0.101416,656482,519765
1332.97,0.102321,654926,517453
1336.33,0.103431,653727,515188
1339.69,0.104945,652497,512429
1343.04,0.106722,649913,508315
1346.39,0.109009,647671,503901
1349.73,0.110614,645338,500234
1354.18,0.113864,641175,493302
1357.52,0.115894,638376,488858
1360.85,0.117662,635805,484911
1364.17,0.120157,633413,480319
1367.49,0.121928,631026,476562
1370.81,0.124548,628050,471461
1374.12,0.126411,625034,467189
1378.54,0.129812,620272,460013
1381.84,0.133405,616892,453737
1385.14,0.137022,613613,447582
1388.43,0.140923,611526,442071
1391.72,0.146314,610663,436001
1395.01,0.151617,610634,430689
1398.29,0.156377,611700,426738
1402.66,0.164138,614051,420791
1405.93,0.170251,616268,416408
1409.2,0.175574,617795,412354
1412.46,0.181164,618872,407790
1415.72,0.185696,619795,404159
1418.98,0.190245,620495,400399
1422.23,0.193729,621087,397579
1426.56,0.198528,621375,393392
1429.8,0.200879,621616,391420
1433.04,0.203473,622129,389410
1436.27,0.205937,621526,386832
1439.5,0.207879,621113,384850
1442.72,0.210078,620921,382788
1445.94,0.211964,620270,380730
1450.23,0.216169,618860,376204
1453.44,0.218584,617697,373415
1456.64,0.221000,616264,370482
1459.85,0.223280,614413,367435
1463.04,0.226175,612307,363743
1466.24,0.228880,610032,360141
1469.43,0.232038,607345,355957
1473.67,0.237123,603789,349754
1476.85,0.241584,601175,344681
1480.02,0.246580,597737,338790
1483.19,0.251589,594479,333079
1486.36,0.257073,591232,327103
1489.52,0.261169,587853,322181
1492.68,0.264526,583875,317537
1496.89,0.265963,578062,313337
1500.03,0.266159,574159,311081
1503.18,0.265632,570285,309357
1506.32,0.264787,565444,307328
1509.45,0.263237,560571,305769
1512.58,0.262137,555821,303947
1515.71,0.260461,550344,302116
1519.87,0.257325,543983,300788
1522.99,0.255103,538764,299430
1526.1,0.252301,533692,298531
1529.21,0.250089,527902,296800
1532.32,0.247468,521886,295194
1535.42,0.244396,515888,293873
1538.51,0.241567,509987,292410
1541.6,0.238365,503936,291079
1545.72,0.234387,494694,288370
1548.8,0.231994,488378,286261
1551.88,0.229837,481832,283830
1554.95,0.227014,474989,281624
1558.02,0.225361,467818,278430
1561.08,0.224447,460730,274789
1564.15,0.223916,454170,271208
1568.22,0.222967,444181,265823
1571.27,0.221915,436947,262128
1574.32,0.220674,429598,258457
1577.36,0.219145,422039,254805
1580.4,0.217699,414375,251012
1583.43,0.216749,406354,246692
1586.46,0.215996,398475,242329
1590.49,0.212425,388982,238509
1593.51,0.211165,380708,234114
1596.53,0.209606,372727,230030
1599.54,0.207766,365060,226255
1602.55,0.205495,357543,222758
1605.55,0.203209,349495,218893
1608.55,0.201015,341154,214751
1612.54,0.199003,330877,209249
1615.53,0.197508,322904,204911
1618.51,0.196272,315116,200539
1621.49,0.195712,307217,195764
1624.47,0.194198,299481,191501
1627.44,0.193891,292112,186921
1630.41,0.191296,284245,182977
1634.36,0.190551,274079,176736
1637.32,0.189291,266916,172617
1640.27,0.189326,259612,167880
1643.22,0.188159,251804,163269
1646.16,0.188095,244348,158458
1649.1,0.187584,236703,153681
1652.04,0.185083,228171,148997
1655.95,0.183031,215408,141329
1658.88,0.178254,204937,135946
1661.8,0.173127,193395,129813
1664.72,0.165552,179728,122762
1667.63,0.153726,163642,114860
1670.54,0.138824,146312,106281
1673.44,0.125355,128451,96246
1677.31,0.103731,105080,82754
1680.21,0.095848,88906,71299
1683.1,0.088026,75033,61267
1685.99,0.092666,63520,51315
1688.87,0.093199,53714,43340
1691.75,0.099443,45653,36310
1694.62,0.104714,39137,30752
1697.49,0.108190,33776,26328
1701.31,0.120242,28175,21361

File: Column 1_050579_20150331_121343.csv
Method:,Column 1,,
Host Date-Time:,31/3/15 @ 12:13:43,,
Header Version:,1,,
System Temp (C):,33.78,,
Detector Temp (C):,34.59,,
Humidity (%):,1.95,,
Lamp PD:,3819,,
Shift Vector Coefficients:,-10.5391,0.0761263,-0.000134223,,
Pixel to Wavelength Coefficients:,1775.68,-0.916766,-0.000235065,,
Serial Number:,5510004,,
Scan Config Name:,Column 1,,
Scan Config Type:,Slew,,
Section 1,,
Start wavelength (nm):,900,,
End wavelength (nm):,1700,,
Pattern Pixel Width (nm):,   7.03,,,,
Exposure (ms):,  0.635,,,,
Digital Resolution:,228,,
Num Repeats:,6,,
PGA Gain:,64,,
Total Measurement Time in sec:,  2.669,,
Wavelength (nm),Absorbance (AU),Reference Signal (unitless),Sample Signal (unitless)
901.51,0.071757,108485,91963
905.376,0.076267,121306,101769
909.237,0.078337,131909,110138
913.095,0.080787,143299,118975
916.948,0.081169,156982,130221
922.079,0.082979,179937,148642
925.923,0.083882,200504,165288
929.762,0.086289,222660,182538
933.597,0.084537,244426,201192
937.427,0.083588,263972,217756
941.254,0.082623,281845,233017
945.076,0.082887,297271,245621
950.165,0.081327,315605,261708
953.978,0.080124,328029,272765
957.786,0.080756,340470,282698
961.59,0.081280,352317,292182
965.389,0.080655,363056,301522
969.185,0.081057,373162,309628
972.976,0.080954,382632,317561
976.763,0.082281,391202,323683
981.806,0.082211,400190,331173
985.583,0.083060,406088,335398
989.355,0.084097,410162,337955
993.124,0.083911,412868,340330
996.888,0.084520,414263,341001
1000.65,0.085657,415476,341106
1004.4,0.086107,415479,340755
1009.41,0.087334,414358,338877
1013.15,0.087389,412923,337660
1016.89,0.088203,411526,335888
1020.63,0.087699,409066,334268
1024.36,0.088824,406777,331537
1028.09,0.088125,404427,330153
1031.82,0.088234,401911,328017
1036.78,0.086931,398410,326136
1040.49,0.087146,396204,324170
1044.2,0.087357,394236,322403
1047.91,0.087041,392042,320842
1051.61,0.086534,389823,319399
1055.31,0.086559,388234,318079
1059,0.086005,387599,317964
1063.92,0.084704,386688,318168
1067.61,0.083823,386598,318740
1071.29,0.084195,387377,319109
1074.96,0.083344,388536,320691
1078.63,0.082938,389855,322081
1082.3,0.082431,391215,323582
1085.96,0.081147,393215,326199
1090.84,0.080359,396270,329331
1094.49,0.080110,398760,331590
1098.14,0.079943,400987,333570
1101.79,0.078711,403477,336595
1105.43,0.079030,406116,338548
1109.06,0.077933,407701,340729
1112.7,0.077738,409859,342686
1117.53,0.077048,412494,345438
1121.15,0.077924,414909,346760
1124.77,0.078407,416559,347752
1128.38,0.079475,418532,348541
1131.99,0.080291,419956,349070
1135.6,0.081883,421946,349441
1139.2,0.083406,423881,349815
1143.99,0.085544,426786,350482
1147.58,0.085682,428617,351874
1151.17,0.086927,431169,352956
1154.75,0.088163,433579,353920
1158.33,0.089444,436264,355063
1161.91,0.091886,439132,355393
1165.48,0.093556,442389,356655
1169.04,0.095693,446101,357882
1173.79,0.098939,451929,359858
1177.34,0.101007,456026,361395
1180.9,0.103295,461306,363659
1184.44,0.105402,467657,366881
1187.99,0.106199,473969,371151
1191.52,0.105681,479856,376210
1195.06,0.105884,487372,381924
1199.76,0.104886,497347,390637
1203.29,0.104141,504311,396787
1206.81,0.103884,511507,402687
1210.33,0.103571,519078,408942
1213.84,0.103274,527163,415596
1217.35,0.102261,534208,422133
1220.85,0.101030,540472,428295
1225.51,0.100579,549929,436242
1229.01,0.100653,556888,441687
1232.5,0.099405,562180,447168
1235.98,0.099423,567975,451758
1239.46,0.097949,574815,458753
1242.94,0.097384,582782,465717
1246.41,0.096778,591476,473325
1251.03,0.096717,604016,483428
1254.5,0.096467,612289,490331
1257.96,0.097089,619125,495096
1261.41,0.097736,624551,498691
1264.86,0.098358,629900,502243
1268.31,0.098637,634345,505462
1271.75,0.099126,638574,508259
1276.33,0.099425,642499,511031
1279.76,0.099423,645905,513743
1283.19,0.098908,648307,516265
1286.61,0.098612,650446,518321
1290.03,0.098346,652132,519983
1293.44,0.097788,653907,522069
1296.85,0.097571,655963,523972
1301.39,0.097324,657349,525378
1304.8,0.097245,657558,525641
1308.19,0.097854,658515,525668
1311.58,0.097975,658804,525752
1314.97,0.098268,659011,525563
1318.36,0.098769,658272,524368
1321.73,0.098990,658022,523903
1326.23,0.100193,657870,522333
1329.6,0.100975,656482,520293
1332.97,0.102138,654926,517672
1336.33,0.103282,653727,515364
1339.69,0.105261,652497,512056
1343.04,0.106712,649913,508327
1346.39,0.108675,647671,504289
1349.73,0.110654,645338,500188
1354.18,0.113676,641175,493515
1357.52,0.115477,638376,489327
1360.85,0.117665,635805,484908
1364.17,0.119647,633413,480884
1367.49,0.122188,631026,476277
1370.81,0.124052,628050,472000
1374.12,0.126534,625034,467057
1378.54,0.129659,620272,460175
1381.84,0.132856,616892,454311
1385.14,0.136848,613613,447761
1388.43,0.141543,611526,441440
1391.72,0.145569,610663,436750
1395.01,0.150989,610634,431312
1398.29,0.156829,611700,426294
1402.66,0.164072,614051,420855
1405.93,0.170270,616268,416389
1409.2,0.175666,617795,412267
1412.46,0.180906,618872,408033
1415.72,0.185659,619795,404193
1418.98,0.189910,620495,400708
1422.23,0.193410,621087,397871
1426.56,0.197692,621375,394150
1429.8,0.200620,621616,391654
1433.04,0.203366,622129,389506
1436.27,0.205590,621526,387141
1439.5,0.207509,621113,385178
1442.72,0.209914,620921,382933
1445.94,0.212730,620270,380059
1450.23,0.215752,618860,376565
1453.44,0.218057,617697,373868
1456.64,0.220447,616264,370954
1459.85,0.223424,614413,367313
1463.04,0.225976,612307,363909
1466.24,0.228855,610032,360162
1469.43,0.231861,607345,356102
1473.67,0.236624,603789,350156
1476.85,0.241364,601175,344855
1480.02,0.246205,597737,339082
1483.19,0.252410,594479,332450
1486.36,0.256971,591232,327180
1489.52,0.260672,587853,322550
1492.68,0.263984,583875,317933
1496.89,0.265957,578062,313341
1500.03,0.266442,574159,310878
1503.18,0.266302,570285,308880
1506.32,0.264703,565444,307388
1509.45,0.263646,560571,305481
1512.58,0.262434,555821,303739
1515.71,0.260370,550344,302179
1519.87,0.257214,543983,300865
1522.99,0.254994,538764,299505
1526.1,0.252275,533692,298549
1529.21,0.251670,527902,295722
1532.32,0.246460,521886,295880
1535.42,0.244125,515888,294056
1538.51,0.241252,509987,292622
1541.6,0.237942,503936,291362
1545.72,0.233878,494694,288708
1548.8,0.231325,488378,286702
1551.88,0.229505,481832,284047
1554.95,0.226852,474989,281729
1558.02,0.225278,467818,278483
1561.08,0.224960,460730,274465
1564.15,0.223786,454170,271289
1568.22,0.222324,444181,266217
1571.27,0.222068,436947,262036
1574.32,0.220224,429598,258725
1577.36,0.219653,422039,254507
1580.4,0.218040,414375,250815
1583.43,0.216484,406354,246843
1586.46,0.215240,398475,242751
1590.49,0.212953,388982,238219
1593.51,0.210670,380708,234381
1596.53,0.209014,372727,230344
1599.54,0.206069,365060,227141
1602.55,0.205464,357543,222774
1605.55,0.203239,349495,218878
1608.55,0.201643,341154,214441
1612.54,0.198908,330877,209295
1615.53,0.197466,322904,204931
1618.51,0.196319,315116,200517
1621.49,0.194934,307217,196115
1624.47,0.194482,299481,191376
1627.44,0.192641,292112,187460
1630.41,0.191569,284245,182862
1634.36,0.190273,274079,176849
1637.32,0.190087,266916,172301
1640.27,0.190354,259612,167483
1643.22,0.187734,251804,163429
1646.16,0.188188,244348,158424
1649.1,0.185846,236703,154297
1652.04,0.185876,228171,148725
1655.95,0.183529,215408,141167
1658.88,0.178785,204937,135780
1661.8,0.172382,193395,130036
1664.72,0.165368,179728,122814
1667.63,0.152865,163642,115088
1670.54,0.141505,146312,105627
1673.44,0.123140,128451,96738
1677.31,0.104219,105080,82661
1680.21,0.094595,88906,71505
1683.1,0.088387,75033,61216
1685.99,0.088279,63520,51836
1688.87,0.090143,53714,43646
1691.75,0.095123,45653,36673
1694.62,0.106412,39137,30632
1697.49,0.105166,33776,26512
1701.31,0.118700,28175,21437