Folder: textile_sorting_NIRSCAN_/samples/wool/wool-000811 (part 129)

File: Column 1_050603_20150331_122458.csv
Method:,Column 1,,
Host Date-Time:,31/3/15 @ 12:24:58,,
Header Version:,1,,
System Temp (C):,34.01,,
Detector Temp (C):,34.76,,
Humidity (%):,1.66,,
Lamp PD:,3818,,
Shift Vector Coefficients:,-10.5391,0.0761263,-0.000134223,,
Pixel to Wavelength Coefficients:,1775.68,-0.916766,-0.000235065,,
Serial Number:,5510004,,
Scan Config Name:,Column 1,,
Scan Config Type:,Slew,,
Section 1,,
Start wavelength (nm):,900,,
End wavelength (nm):,1700,,
Pattern Pixel Width (nm):,   7.03,,,,
Exposure (ms):,  0.635,,,,
Digital Resolution:,228,,
Num Repeats:,6,,
PGA Gain:,64,,
Total Measurement Time in sec:,  2.728,,
Wavelength (nm),Absorbance (AU),Reference Signal (unitless),Sample Signal (unitless)
901.51,0.070328,108485,92266
905.376,0.076053,121306,101819
909.237,0.077353,131909,110388
913.095,0.078131,143299,119705
916.948,0.079667,156982,130672
922.079,0.079232,179937,149930
925.923,0.082269,200504,165903
929.762,0.082393,222660,184183
933.597,0.082154,244426,202299
937.427,0.080398,263972,219361
941.254,0.080678,281845,234063
945.076,0.079888,297271,247323
950.165,0.078373,315605,263494
953.978,0.078013,328029,274094
957.786,0.077722,340470,284680
961.59,0.077596,352317,294671
965.389,0.077858,363056,303470
969.185,0.078819,373162,311228
972.976,0.078340,382632,319478
976.763,0.078882,391202,326226
981.806,0.078872,400190,333729
985.583,0.080223,406088,337596
989.355,0.080553,410162,340724
993.124,0.081505,412868,342221
996.888,0.081356,414263,343495
1000.65,0.082627,415476,343494
1004.4,0.083375,415479,342905
1009.41,0.084037,414358,341459
1013.15,0.084898,412923,339603
1016.89,0.085294,411526,338145
1020.63,0.085607,409066,335882
1024.36,0.084867,406777,334572
1028.09,0.084988,404427,332546
1031.82,0.085131,401911,330369
1036.78,0.085553,398410,327173
1040.49,0.084233,396204,326352
1044.2,0.084061,394236,324859
1047.91,0.084110,392042,323015
1051.61,0.083303,389823,321784
1055.31,0.083486,388234,320337
1059,0.082635,387599,320441
1063.92,0.081908,386688,320223
1067.61,0.081368,386598,320547
1071.29,0.081242,387377,321286
1074.96,0.080270,388536,322969
1078.63,0.079737,389855,324464
1082.3,0.078555,391215,326483
1085.96,0.078498,393215,328195
1090.84,0.077630,396270,331407
1094.49,0.076935,398760,334023
1098.14,0.076308,400987,336374
1101.79,0.076170,403477,338570
1105.43,0.075122,406116,341608
1109.06,0.074563,407701,343383
1112.7,0.074205,409859,345485
1117.53,0.074207,412494,347705
1121.15,0.074124,414909,349807
1124.77,0.074231,416559,351112
1128.38,0.076117,418532,351246
1131.99,0.077143,419956,351610
1135.6,0.078438,421946,352224
1139.2,0.079411,423881,353047
1143.99,0.081353,426786,353881
1147.58,0.082885,428617,354148
1151.17,0.082829,431169,356302
1154.75,0.084630,433579,356811
1158.33,0.085951,436264,357930
1161.91,0.087276,439132,359186
1165.48,0.088844,442389,360546
1169.04,0.091162,446101,361636
1173.79,0.094720,451929,363371
1177.34,0.096415,456026,365237
1180.9,0.099178,461306,367123
1184.44,0.100795,467657,370794
1187.99,0.101932,473969,374816
1191.52,0.102016,479856,379398
1195.06,0.101838,487372,385498
1199.76,0.100578,497347,394531
1203.29,0.100306,504311,400306
1206.81,0.100064,511507,406245
1210.33,0.099359,519078,412927
1213.84,0.098421,527163,420266
1217.35,0.098232,534208,426067
1220.85,0.097694,540472,431598
1225.51,0.096664,549929,440192
1229.01,0.096200,556888,446239
1232.5,0.095546,562180,451159
1235.98,0.095048,567975,456332
1239.46,0.093781,574815,463177
1242.94,0.093152,582782,470277
1246.41,0.092633,591476,477864
1251.03,0.092318,604016,488349
1254.5,0.092112,612289,495273
1257.96,0.092966,619125,499818
1261.41,0.093728,624551,503315
1264.86,0.093619,629900,507753
1268.31,0.094426,634345,510387
1271.75,0.095278,638574,512782
1276.33,0.095211,642499,516014
1279.76,0.095432,645905,518486
1283.19,0.094322,648307,521745
1286.61,0.094303,650446,523490
1290.03,0.093932,652132,525295
1293.44,0.093247,653907,527556
1296.85,0.093497,655963,528911
1301.39,0.093281,657349,530292
1304.8,0.092783,657558,531069
1308.19,0.093217,658515,531311
1311.58,0.093218,658804,531543
1314.97,0.093577,659011,531270
1318.36,0.094046,658272,530102
1321.73,0.094322,658022,529564
1326.23,0.095504,657870,528003
1329.6,0.095991,656482,526298
1332.97,0.096724,654926,524165
1336.33,0.097615,653727,522133
1339.69,0.099156,652497,519305
1343.04,0.100777,649913,515322
1346.39,0.102647,647671,511337
1349.73,0.104735,645338,507052
1354.18,0.107593,641175,500476
1357.52,0.109583,638376,496013
1360.85,0.111864,635805,491428
1364.17,0.113714,633413,487498
1367.49,0.115937,631026,483182
1370.81,0.117571,628050,479097
1374.12,0.119937,625034,474206
1378.54,0.122787,620272,467515
1381.84,0.125821,616892,461730
1385.14,0.129140,613613,455779
1388.43,0.133208,611526,449994
1391.72,0.136850,610663,445607
1395.01,0.141147,610634,441198
1398.29,0.145367,611700,437695
1402.66,0.152087,614051,432631
1405.93,0.156976,616268,429332
1409.2,0.161392,617795,426042
1412.46,0.166134,618872,422150
1415.72,0.170124,619795,418913
1418.98,0.173498,620495,416141
1422.23,0.177094,621087,413103
1426.56,0.180814,621375,409770
1429.8,0.183653,621616,407258
1433.04,0.185846,622129,405541
1436.27,0.188621,621526,402567
1439.5,0.190113,621113,400920
1442.72,0.192817,620921,398308
1445.94,0.194821,620270,396059
1450.23,0.198738,618860,391611
1453.44,0.200941,617697,388897
1456.64,0.203839,616264,385414
1459.85,0.206961,614413,381504
1463.04,0.209487,612307,377992
1466.24,0.213105,610032,373463
1469.43,0.216415,607345,368995
1473.67,0.222854,603789,361436
1476.85,0.228199,601175,355469
1480.02,0.233822,597737,348890
1483.19,0.240100,594479,342008
1486.36,0.246296,591232,335322
1489.52,0.251085,587853,329749
1492.68,0.254748,583875,324767
1496.89,0.256772,578062,320039
1500.03,0.257057,574159,317669
1503.18,0.257295,570285,315353
1506.32,0.256288,565444,313402
1509.45,0.254639,560571,311883
1512.58,0.253213,555821,310257
1515.71,0.251138,550344,308671
1519.87,0.247224,543983,307866
1522.99,0.244933,538764,306525
1526.1,0.243216,533692,304842
1529.21,0.239840,527902,303888
1532.32,0.237211,521886,302249
1535.42,0.234138,515888,300897
1538.51,0.231461,509987,299294
1541.6,0.227962,503936,298135
1545.72,0.224375,494694,295095
1548.8,0.221926,488378,292975
1551.88,0.219485,481832,290677
1554.95,0.216872,474989,288278
1558.02,0.215391,467818,284896
1561.08,0.214692,460730,281031
1564.15,0.214184,454170,277354
1568.22,0.212959,444181,272020
1571.27,0.212829,436947,267670
1574.32,0.211651,429598,263883
1577.36,0.210571,422039,259885
1580.4,0.209359,414375,255879
1583.43,0.207320,406354,252107
1586.46,0.206375,398475,247757
1590.49,0.204550,388982,242873
1593.51,0.202430,380708,238870
1596.53,0.200967,372727,234652
1599.54,0.198504,365060,231132
1602.55,0.196217,357543,227568
1605.55,0.194476,349495,223339
1608.55,0.192657,341154,218924
1612.54,0.190379,330877,213446
1615.53,0.189497,322904,208726
1618.51,0.187648,315116,204561
1621.49,0.187683,307217,199417
1624.47,0.186099,299481,195106
1627.44,0.185080,292112,190752
1630.41,0.183911,284245,186115
1634.36,0.182656,274079,179978
1637.32,0.181979,266916,175548
1640.27,0.182124,259612,170687
1643.22,0.180298,251804,166251
1646.16,0.179807,244348,161511
1649.1,0.179257,236703,156656
1652.04,0.177435,228171,151644
1655.95,0.174966,215408,143978
1658.88,0.169525,204937,138706
1661.8,0.164662,193395,132368
1664.72,0.157404,179728,125087
1667.63,0.145698,163642,117003
1670.54,0.131997,146312,107965
1673.44,0.116219,128451,98292
1677.31,0.093893,105080,84650
1680.21,0.081416,88906,73708
1683.1,0.078588,75033,62613
1685.99,0.079726,63520,52867
1688.87,0.080305,53714,44646
1691.75,0.086099,45653,37443
1694.62,0.095713,39137,31396
1697.49,0.098307,33776,26934
1701.31,0.101092,28175,22324

File: Column 1_050603_20150331_122501.csv
Method:,Column 1,,
Host Date-Time:,31/3/15 @ 12:25:1,,
Header Version:,1,,
System Temp (C):,34.02,,
Detector Temp (C):,34.8,,
Humidity (%):,1.66,,
Lamp PD:,3818,,
Shift Vector Coefficients:,-10.5391,0.0761263,-0.000134223,,
Pixel to Wavelength Coefficients:,1775.68,-0.916766,-0.000235065,,
Serial Number:,5510004,,
Scan Config Name:,Column 1,,
Scan Config Type:,Slew,,
Section 1,,
Start wavelength (nm):,900,,
End wavelength (nm):,1700,,
Pattern Pixel Width (nm):,   7.03,,,,
Exposure (ms):,  0.635,,,,
Digital Resolution:,228,,
Num Repeats:,6,,
PGA Gain:,64,,
Total Measurement Time in sec:,  2.672,,
Wavelength (nm),Absorbance (AU),Reference Signal (unitless),Sample Signal (unitless)
901.51,0.068820,108485,92587
905.376,0.075994,121306,101833
909.237,0.076995,131909,110479
913.095,0.077333,143299,119925
916.948,0.078880,156982,130909
922.079,0.081026,179937,149312
925.923,0.081166,200504,166325
929.762,0.082638,222660,184079
933.597,0.082549,244426,202115
937.427,0.080753,263972,219182
941.254,0.080429,281845,234197
945.076,0.079448,297271,247574
950.165,0.078205,315605,263596
953.978,0.077726,328029,274275
957.786,0.077585,340470,284770
961.59,0.078422,352317,294111
965.389,0.077798,363056,303512
969.185,0.078211,373162,311664
972.976,0.078665,382632,319239
976.763,0.079054,391202,326097
981.806,0.078950,400190,333669
985.583,0.080395,406088,337462
989.355,0.080288,410162,340932
993.124,0.080773,412868,342798
996.888,0.081060,414263,343729
1000.65,0.082387,415476,343684
1004.4,0.083221,415479,343027
1009.41,0.084404,414358,341171
1013.15,0.084775,412923,339699
1016.89,0.085239,411526,338188
1020.63,0.084681,409066,336599
1024.36,0.085258,406777,334271
1028.09,0.084923,404427,332596
1031.82,0.084672,401911,330718
1036.78,0.085059,398410,327545
1040.49,0.084391,396204,326233
1044.2,0.085046,394236,324123
1047.91,0.084099,392042,323023
1051.61,0.083735,389823,321464
1055.31,0.083588,388234,320262
1059,0.082576,387599,320484
1063.92,0.081987,386688,320165
1067.61,0.081426,386598,320504
1071.29,0.080590,387377,321769
1074.96,0.080585,388536,322735
1078.63,0.079908,389855,324336
1082.3,0.078926,391215,326204
1085.96,0.078597,393215,328120
1090.84,0.077140,396270,331781
1094.49,0.076807,398760,334122
1098.14,0.075963,400987,336641
1101.79,0.075341,403477,339217
1105.43,0.075528,406116,341289
1109.06,0.074416,407701,343499
1112.7,0.074477,409859,345269
1117.53,0.073992,412494,347877
1121.15,0.074342,414909,349632
1124.77,0.074748,416559,350694
1128.38,0.076342,418532,351064
1131.99,0.076239,419956,352342
1135.6,0.078004,421946,352576
1139.2,0.079356,423881,353092
1143.99,0.081433,426786,353816
1147.58,0.081640,428617,355164
1151.17,0.082995,431169,356166
1154.75,0.083953,433579,357368
1158.33,0.085095,436264,358636
1161.91,0.087380,439132,359100
1165.48,0.088940,442389,360466
1169.04,0.090969,446101,361796
1173.79,0.094487,451929,363566
1177.34,0.096882,456026,364844
1180.9,0.099193,461306,367110
1184.44,0.100829,467657,370765
1187.99,0.101540,473969,375154
1191.52,0.101234,479856,380082
1195.06,0.101650,487372,385665
1199.76,0.101353,497347,393828
1203.29,0.100543,504311,400088
1206.81,0.099926,511507,406374
1210.33,0.099547,519078,412749
1213.84,0.098630,527163,420063
1217.35,0.097900,534208,426393
1220.85,0.097701,540472,431591
1225.51,0.096528,549929,440330
1229.01,0.096017,556888,446427
1232.5,0.095258,562180,451458
1235.98,0.094669,567975,456731
1239.46,0.093744,574815,463217
1242.94,0.092934,582782,470514
1246.41,0.092576,591476,477926
1251.03,0.092508,604016,488136
1254.5,0.092584,612289,494735
1257.96,0.092977,619125,499806
1261.41,0.093149,624551,503987
1264.86,0.093768,629900,507579
1268.31,0.094337,634345,510491
1271.75,0.095026,638574,513080
1276.33,0.095286,642499,515925
1279.76,0.095328,645905,518610
1283.19,0.094408,648307,521642
1286.61,0.094196,650446,523619
1290.03,0.094022,652132,525187
1293.44,0.093122,653907,527708
1296.85,0.093617,655963,528765
1301.39,0.093070,657349,530550
1304.8,0.092988,657558,530819
1308.19,0.093277,658515,531238
1311.58,0.093353,658804,531378
1314.97,0.093834,659011,530956
1318.36,0.094249,658272,529854
1321.73,0.094139,658022,529787
1326.23,0.095086,657870,528511
1329.6,0.096046,656482,526232
1332.97,0.096665,654926,524237
1336.33,0.097530,653727,522235
1339.69,0.098987,652497,519507
1343.04,0.100855,649913,515229
1346.39,0.102943,647671,510989
1349.73,0.104927,645338,506828
1354.18,0.107623,641175,500442
1357.52,0.109060,638376,496611
1360.85,0.111372,635805,491985
1364.17,0.113511,633413,487726
1367.49,0.115704,631026,483441
1370.81,0.117691,628050,478964
1374.12,0.119924,625034,474220
1378.54,0.122957,620272,467332
1381.84,0.125944,616892,461599
1385.14,0.128780,613613,456157
1388.43,0.132932,611526,450280
1391.72,0.136821,610663,445636
1395.01,0.141239,610634,441105
1398.29,0.145499,611700,437562
1402.66,0.151842,614051,432875
1405.93,0.157138,616268,429172
1409.2,0.161747,617795,425694
1412.46,0.166158,618872,422127
1415.72,0.169880,619795,419149
1418.98,0.173671,620495,415975
1422.23,0.177305,621087,412902
1426.56,0.180960,621375,409632
1429.8,0.183543,621616,407361
1433.04,0.185868,622129,405520
1436.27,0.188127,621526,403025
1439.5,0.189832,621113,401179
1442.72,0.192612,620921,398496
1445.94,0.194784,620270,396093
1450.23,0.198399,618860,391916
1453.44,0.201814,617697,388116
1456.64,0.204076,616264,385204
1459.85,0.206950,614413,381514
1463.04,0.209956,612307,377584
1466.24,0.212797,610032,373728
1469.43,0.216880,607345,368600
1473.67,0.222698,603789,361566
1476.85,0.228777,601175,354996
1480.02,0.234108,597737,348660
1483.19,0.240396,594479,341775
1486.36,0.246181,591232,335411
1489.52,0.250794,587853,329970
1492.68,0.254020,583875,325312
1496.89,0.256613,578062,320156
1500.03,0.256932,574159,317761
1503.18,0.256970,570285,315589
1506.32,0.255904,565444,313679
1509.45,0.254803,560571,311765
1512.58,0.252992,555821,310415
1515.71,0.251043,550344,308739
1519.87,0.248003,543983,307314
1522.99,0.245240,538764,306308
1526.1,0.243024,533692,304977
1529.21,0.240004,527902,303773
1532.32,0.237033,521886,302373
1535.42,0.234084,515888,300934
1538.51,0.231425,509987,299319
1541.6,0.228713,503936,297620
1545.72,0.224775,494694,294823
1548.8,0.221706,488378,293123
1551.88,0.219182,481832,290880
1554.95,0.217369,474989,287948
1558.02,0.216237,467818,284341
1561.08,0.215100,460730,280767
1564.15,0.214316,454170,277270
1568.22,0.212989,444181,272001
1571.27,0.213129,436947,267485
1574.32,0.211784,429598,263802
1577.36,0.210496,422039,259930
1580.4,0.209428,414375,255838
1583.43,0.207551,406354,251973
1586.46,0.205851,398475,248056
1590.49,0.203920,388982,243226
1593.51,0.202421,380708,238875
1596.53,0.199675,372727,235351
1599.54,0.198284,365060,231249
1602.55,0.196444,357543,227449
1605.55,0.194543,349495,223305
1608.55,0.193034,341154,218734
1612.54,0.190370,330877,213450
1615.53,0.189181,322904,208878
1618.51,0.189134,315116,203862
1621.49,0.187354,307217,199568
1624.47,0.185509,299481,195371
1627.44,0.184962,292112,190804
1630.41,0.183743,284245,186187
1634.36,0.182169,274079,180180
1637.32,0.181927,266916,175569
1640.27,0.181865,259612,170789
1643.22,0.180136,251804,166313
1646.16,0.178574,244348,161970
1649.1,0.179215,236703,156671
1652.04,0.178109,228171,151409
1655.95,0.173995,215408,144300
1658.88,0.168727,204937,138961
1661.8,0.164370,193395,132457
1664.72,0.156471,179728,125356
1667.63,0.144856,163642,117230
1670.54,0.130383,146312,108367
1673.44,0.114795,128451,98615
1677.31,0.093801,105080,84668
1680.21,0.081900,88906,73626
1683.1,0.078269,75033,62659
1685.99,0.079956,63520,52839
1688.87,0.082695,53714,44401
1691.75,0.083497,45653,37668
1694.62,0.091748,39137,31684
1697.49,0.097164,33776,27005
1701.31,0.104510,28175,22149

File: Column 1_050603_20150331_122503.csv
Method:,Column 1,,
Host Date-Time:,31/3/15 @ 12:25:3,,
Header Version:,1,,
System Temp (C):,34,,
Detector Temp (C):,34.84,,
Humidity (%):,1.71,,
Lamp PD:,3818,,
Shift Vector Coefficients:,-10.5391,0.0761263,-0.000134223,,
Pixel to Wavelength Coefficients:,1775.68,-0.916766,-0.000235065,,
Serial Number:,5510004,,
Scan Config Name:,Column 1,,
Scan Config Type:,Slew,,
Section 1,,
Start wavelength (nm):,900,,
End wavelength (nm):,1700,,
Pattern Pixel Width (nm):,   7.03,,,,
Exposure (ms):,  0.635,,,,
Digital Resolution:,228,,
Num Repeats:,6,,
PGA Gain:,64,,
Total Measurement Time in sec:,  2.717,,
Wavelength (nm),Absorbance (AU),Reference Signal (unitless),Sample Signal (unitless)
901.51,0.067064,108485,92962
905.376,0.076403,121306,101737
909.237,0.075778,131909,110789
913.095,0.075840,143299,120338
916.948,0.079923,156982,130595
922.079,0.079333,179937,149895
925.923,0.082638,200504,165762
929.762,0.081749,222660,184456
933.597,0.081570,244426,202571
937.427,0.081528,263972,218791
941.254,0.080557,281845,234128
945.076,0.079444,297271,247576
950.165,0.078452,315605,263446
953.978,0.076948,328029,274767
957.786,0.077902,340470,284562
961.59,0.077663,352317,294626
965.389,0.077829,363056,303490
969.185,0.077345,373162,312286
972.976,0.078571,382632,319308
976.763,0.078454,391202,326548
981.806,0.078861,400190,333738
985.583,0.079817,406088,337912
989.355,0.079427,410162,341608
993.124,0.080802,412868,342775
996.888,0.080777,414263,343953
1000.65,0.082339,415476,343722
1004.4,0.083385,415479,342897
1009.41,0.083806,414358,341641
1013.15,0.084533,412923,339888
1016.89,0.085655,411526,337864
1020.63,0.085036,409066,336324
1024.36,0.084842,406777,334591
1028.09,0.084101,404427,333226
1031.82,0.084469,401911,330873
1036.78,0.083960,398410,328375
1040.49,0.084078,396204,326468
1044.2,0.084045,394236,324871
1047.91,0.083759,392042,323276
1051.61,0.082987,389823,322018
1055.31,0.082653,388234,320952
1059,0.082155,387599,320795
1063.92,0.082049,386688,320119
1067.61,0.081360,386598,320553
1071.29,0.080715,387377,321676
1074.96,0.079890,388536,323252
1078.63,0.079572,389855,324587
1082.3,0.078611,391215,326441
1085.96,0.077141,393215,329222
1090.84,0.077187,396270,331745
1094.49,0.076538,398760,334329
1098.14,0.075977,400987,336630
1101.79,0.075282,403477,339263
1105.43,0.075219,406116,341532
1109.06,0.074473,407701,343454
1112.7,0.073889,409859,345737
1117.53,0.073937,412494,347921
1121.15,0.074324,414909,349646
1124.77,0.074143,416559,351183
1128.38,0.075031,418532,352126
1131.99,0.075987,419956,352547
1135.6,0.077779,421946,352759
1139.2,0.078884,423881,353476
1143.99,0.081409,426786,353835
1147.58,0.082083,428617,354802
1151.17,0.082799,431169,356327
1154.75,0.083662,433579,357607
1158.33,0.084721,436264,358945
1161.91,0.086658,439132,359697
1165.48,0.089155,442389,360288
1169.04,0.091521,446101,361337
1173.79,0.094360,451929,363672
1177.34,0.097063,456026,364692
1180.9,0.098617,461306,367597
1184.44,0.100746,467657,370836
1187.99,0.101283,473969,375376
1191.52,0.101431,479856,379909
1195.06,0.101168,487372,386094
1199.76,0.100729,497347,394394
1203.29,0.100001,504311,400588
1206.81,0.099688,511507,406596
1210.33,0.099005,519078,413264
1213.84,0.098699,527163,419997
1217.35,0.097774,534208,426517
1220.85,0.096505,540472,432781
1225.51,0.096352,549929,440509
1229.01,0.095747,556888,446705
1232.5,0.095434,562180,451275
1235.98,0.094673,567975,456726
1239.46,0.093581,574815,463390
1242.94,0.092767,582782,470694
1246.41,0.092089,591476,478463
1251.03,0.092228,604016,488450
1254.5,0.092349,612289,495003
1257.96,0.092611,619125,500227
1261.41,0.093043,624551,504110
1264.86,0.093323,629900,508099
1268.31,0.094128,634345,510737
1271.75,0.094950,638574,513170
1276.33,0.095352,642499,515847
1279.76,0.095396,645905,518529
1283.19,0.094009,648307,522122
1286.61,0.094235,650446,523572
1290.03,0.093540,652132,525770
1293.44,0.093455,653907,527304
1296.85,0.092726,655963,529850
1301.39,0.092904,657349,530752
1304.8,0.092897,657558,530930
1308.19,0.093072,658515,531488
1311.58,0.092613,658804,532284
1314.97,0.093873,659011,530909
1318.36,0.093994,658272,530165
1321.73,0.094157,658022,529765
1326.23,0.094937,657870,528692
1329.6,0.095600,656482,526772
1332.97,0.097089,654926,523725
1336.33,0.097581,653727,522174
1339.69,0.098798,652497,519733
1343.04,0.100345,649913,515834
1346.39,0.102307,647671,511738
1349.73,0.104410,645338,507431
1354.18,0.107470,641175,500618
1357.52,0.109318,638376,496316
1360.85,0.111465,635805,491880
1364.17,0.113665,633413,487553
1367.49,0.115269,631026,483925
1370.81,0.117647,628050,479013
1374.12,0.120096,625034,474032
1378.54,0.122518,620272,467804
1381.84,0.125673,616892,461887
1385.14,0.129013,613613,455913
1388.43,0.132479,611526,450750
1391.72,0.136653,610663,445809
1395.01,0.140601,610634,441753
1398.29,0.145114,611700,437950
1402.66,0.151366,614051,433350
1405.93,0.156782,616268,429524
1409.2,0.161502,617795,425934
1412.46,0.165594,618872,422675
1415.72,0.170042,619795,418992
1418.98,0.173341,620495,416291
1422.23,0.176545,621087,413626
1426.56,0.180894,621375,409694
1429.8,0.183076,621616,407799
1433.04,0.185554,622129,405813
1436.27,0.187693,621526,403428
1439.5,0.189505,621113,401482
1442.72,0.191960,620921,399095
1445.94,0.194289,620270,396544
1450.23,0.198047,618860,392234
1453.44,0.201070,617697,388781
1456.64,0.203190,616264,385991
1459.85,0.206365,614413,382028
1463.04,0.208972,612307,378440
1466.24,0.212416,610032,374056
1469.43,0.216048,607345,369307
1473.67,0.222614,603789,361636
1476.85,0.227843,601175,355761
1480.02,0.234434,597737,348398
1483.19,0.240333,594479,341825
1486.36,0.245534,591232,335911
1489.52,0.250360,587853,330300
1492.68,0.253842,583875,325445
1496.89,0.255785,578062,320767
1500.03,0.256287,574159,318233
1503.18,0.256164,570285,316175
1506.32,0.255443,565444,314012
1509.45,0.254331,560571,312104
1512.58,0.252676,555821,310641
1515.71,0.250653,550344,309016
1519.87,0.247308,543983,307806
1522.99,0.245216,538764,306325
1526.1,0.242804,533692,305131
1529.21,0.240020,527902,303762
1532.32,0.236747,521886,302572
1535.42,0.234019,515888,300979
1538.51,0.230813,509987,299741
1541.6,0.227568,503936,298406
1545.72,0.223973,494694,295368
1548.8,0.221006,488378,293596
1551.88,0.219579,481832,290614
1554.95,0.216651,474989,288425
1558.02,0.215577,467818,284774
1561.08,0.214339,460730,281260
1564.15,0.213013,454170,278103
1568.22,0.212806,444181,272116
1571.27,0.212294,436947,268000
1574.32,0.211361,429598,264059
1577.36,0.209928,422039,260270
1580.4,0.209296,414375,255916
1583.43,0.207528,406354,251986
1586.46,0.204633,398475,248753
1590.49,0.204742,388982,242766
1593.51,0.201865,380708,239181
1596.53,0.199778,372727,235295
1599.54,0.198431,365060,231171
1602.55,0.195656,357543,227862
1605.55,0.193668,349495,223755
1608.55,0.191579,341154,219468
1612.54,0.190403,330877,213434
1615.53,0.188238,322904,209332
1618.51,0.187609,315116,204579
1621.49,0.185832,307217,200269
1624.47,0.185191,299481,195514
1627.44,0.183778,292112,191325
1630.41,0.182772,284245,186604
1634.36,0.181752,274079,180353
1637.32,0.180746,266916,176047
1640.27,0.180626,259612,171277
1643.22,0.180588,251804,166140
1646.16,0.178563,244348,161974
1649.1,0.178105,236703,157072
1652.04,0.178008,228171,151444
1655.95,0.173866,215408,144343
1658.88,0.170243,204937,138477
1661.8,0.164069,193395,132549
1664.72,0.156866,179728,125242
1667.63,0.145197,163642,117138
1670.54,0.129746,146312,108526
1673.44,0.114293,128451,98729
1677.31,0.095080,105080,84419
1680.21,0.082059,88906,73599
1683.1,0.076816,75033,62869
1685.99,0.075410,63520,53395
1688.87,0.082734,53714,44397
1691.75,0.085068,45653,37532
1694.62,0.087546,39137,31992
1697.49,0.080939,33776,28033
1701.31,0.107599,28175,21992