Folder: textile_sorting_NIRSCAN_/samples/wool/wool-000811 (part 143)

File: Column 1_050611_20150331_122846.csv
Method:,Column 1,,
Host Date-Time:,31/3/15 @ 12:28:46,,
Header Version:,1,,
System Temp (C):,34.07,,
Detector Temp (C):,34.9,,
Humidity (%):,1.66,,
Lamp PD:,3818,,
Shift Vector Coefficients:,-10.5391,0.0761263,-0.000134223,,
Pixel to Wavelength Coefficients:,1775.68,-0.916766,-0.000235065,,
Serial Number:,5510004,,
Scan Config Name:,Column 1,,
Scan Config Type:,Slew,,
Section 1,,
Start wavelength (nm):,900,,
End wavelength (nm):,1700,,
Pattern Pixel Width (nm):,   7.03,,,,
Exposure (ms):,  0.635,,,,
Digital Resolution:,228,,
Num Repeats:,6,,
PGA Gain:,64,,
Total Measurement Time in sec:,  2.669,,
Wavelength (nm),Absorbance (AU),Reference Signal (unitless),Sample Signal (unitless)
901.51,0.069312,108485,92482
905.376,0.072718,121306,102604
909.237,0.076209,131909,110679
913.095,0.076646,143299,120115
916.948,0.076746,156982,131554
922.079,0.078711,179937,150110
925.923,0.080498,200504,166581
929.762,0.081714,222660,184471
933.597,0.081386,244426,202657
937.427,0.080044,263972,219540
941.254,0.078869,281845,235040
945.076,0.078237,297271,248265
950.165,0.076897,315605,264391
953.978,0.077036,328029,274711
957.786,0.077612,340470,284752
961.59,0.077996,352317,294400
965.389,0.077139,363056,303973
969.185,0.076590,373162,312829
972.976,0.077592,382632,320029
976.763,0.077828,391202,327019
981.806,0.078121,400190,334307
985.583,0.078710,406088,338774
989.355,0.079258,410162,341741
993.124,0.079797,412868,343569
996.888,0.080401,414263,344251
1000.65,0.080869,415476,344887
1004.4,0.082332,415479,343730
1009.41,0.083287,414358,342049
1013.15,0.083743,412923,340507
1016.89,0.084171,411526,339021
1020.63,0.084116,409066,337037
1024.36,0.084509,406777,334848
1028.09,0.083509,404427,333681
1031.82,0.083708,401911,331453
1036.78,0.083556,398410,328681
1040.49,0.083411,396204,326970
1044.2,0.083384,394236,325366
1047.91,0.082755,392042,324024
1051.61,0.082914,389823,322072
1055.31,0.082622,388234,320975
1059,0.081776,387599,321075
1063.92,0.080528,386688,321242
1067.61,0.080081,386598,321498
1071.29,0.080015,387377,322195
1074.96,0.079334,388536,323666
1078.63,0.079246,389855,324831
1082.3,0.078330,391215,326652
1085.96,0.077094,393215,329258
1090.84,0.076326,396270,332403
1094.49,0.076147,398760,334630
1098.14,0.075602,400987,336921
1101.79,0.074574,403477,339817
1105.43,0.074830,406116,341838
1109.06,0.073873,407701,343929
1112.7,0.073845,409859,345772
1117.53,0.072882,412494,348767
1121.15,0.073752,414909,350107
1124.77,0.073686,416559,351553
1128.38,0.074636,418532,352446
1131.99,0.075372,419956,353046
1135.6,0.077187,421946,353240
1139.2,0.078670,423881,353650
1143.99,0.080440,426786,354626
1147.58,0.081556,428617,355233
1151.17,0.081991,431169,356990
1154.75,0.083250,433579,357947
1158.33,0.083991,436264,359549
1161.91,0.086203,439132,360074
1165.48,0.088313,442389,360987
1169.04,0.090481,446101,362203
1173.79,0.093537,451929,364362
1177.34,0.095672,456026,365862
1180.9,0.097706,461306,368369
1184.44,0.100412,467657,371121
1187.99,0.100769,473969,375821
1191.52,0.100521,479856,380706
1195.06,0.100302,487372,386864
1199.76,0.099821,497347,395220
1203.29,0.099096,504311,401423
1206.81,0.099233,511507,407023
1210.33,0.098395,519078,413845
1213.84,0.097366,527163,421288
1217.35,0.097089,534208,427190
1220.85,0.096140,540472,433145
1225.51,0.095495,549929,441379
1229.01,0.095058,556888,447414
1232.5,0.094647,562180,452094
1235.98,0.093987,567975,457449
1239.46,0.092580,574815,464460
1242.94,0.091441,582782,472134
1246.41,0.091326,591476,479304
1251.03,0.091101,604016,489720
1254.5,0.091756,612289,495679
1257.96,0.091913,619125,501032
1261.41,0.092198,624551,505091
1264.86,0.092905,629900,508589
1268.31,0.093347,634345,511656
1271.75,0.093882,638574,514434
1276.33,0.094377,642499,517006
1279.76,0.094108,645905,520069
1283.19,0.093827,648307,522340
1286.61,0.093077,650446,524970
1290.03,0.093131,652132,526265
1293.44,0.092418,653907,528565
1296.85,0.091940,655963,530810
1301.39,0.091722,657349,532199
1304.8,0.091726,657558,532363
1308.19,0.092244,658515,532502
1311.58,0.091994,658804,533043
1314.97,0.092432,659011,532673
1318.36,0.092975,658272,531411
1321.73,0.093456,658022,530621
1326.23,0.094168,657870,529630
1329.6,0.094748,656482,527807
1332.97,0.095539,654926,525597
1336.33,0.096620,653727,523331
1339.69,0.097752,652497,520986
1343.04,0.099544,649913,516787
1346.39,0.101881,647671,512240
1349.73,0.103425,645338,508583
1354.18,0.106070,641175,502234
1357.52,0.108408,638376,497357
1360.85,0.110254,635805,493253
1364.17,0.112304,633413,489084
1367.49,0.114599,631026,484672
1370.81,0.116596,628050,480174
1374.12,0.118413,625034,475873
1378.54,0.121436,620272,468971
1381.84,0.124075,616892,463590
1385.14,0.127422,613613,457586
1388.43,0.131045,611526,452241
1391.72,0.135160,610663,447344
1395.01,0.139029,610634,443355
1398.29,0.143766,611700,439311
1402.66,0.149364,614051,435352
1405.93,0.154703,616268,431585
1409.2,0.159079,617795,428317
1412.46,0.163760,618872,424464
1415.72,0.167296,619795,421650
1418.98,0.171103,620495,418442
1422.23,0.174521,621087,415558
1426.56,0.177632,621375,412783
1429.8,0.180297,621616,410417
1433.04,0.182969,622129,408236
1436.27,0.185134,621526,405812
1439.5,0.186803,621113,403987
1442.72,0.189314,620921,401534
1445.94,0.191999,620270,398641
1450.23,0.195569,618860,394479
1453.44,0.198408,617697,391172
1456.64,0.201093,616264,387859
1459.85,0.203501,614413,384556
1463.04,0.206410,612307,380679
1466.24,0.210343,610032,375846
1469.43,0.214307,607345,370790
1473.67,0.220118,603789,363720
1476.85,0.225044,601175,358061
1480.02,0.231541,597737,350727
1483.19,0.238142,594479,343554
1486.36,0.243932,591232,337152
1489.52,0.248958,587853,331368
1492.68,0.252567,583875,326402
1496.89,0.254881,578062,321435
1500.03,0.255308,574159,318951
1503.18,0.254449,570285,317426
1506.32,0.254784,565444,314489
1509.45,0.252977,560571,313079
1512.58,0.251523,555821,311467
1515.71,0.248997,550344,310197
1519.87,0.245769,543983,308899
1522.99,0.243162,538764,307777
1526.1,0.240602,533692,306682
1529.21,0.238140,527902,305080
1532.32,0.235117,521886,303710
1535.42,0.232183,515888,302254
1538.51,0.229036,509987,300970
1541.6,0.226122,503936,299401
1545.72,0.222488,494694,296380
1548.8,0.219658,488378,294509
1551.88,0.217727,481832,291856
1554.95,0.215684,474989,289068
1558.02,0.214083,467818,285755
1561.08,0.212689,460730,282330
1564.15,0.211960,454170,278778
1568.22,0.210966,444181,273271
1571.27,0.210155,436947,269323
1574.32,0.208906,429598,265556
1577.36,0.207884,422039,261498
1580.4,0.206868,414375,257351
1583.43,0.205865,406354,252953
1586.46,0.204205,398475,248998
1590.49,0.202659,388982,243933
1593.51,0.200524,380708,239921
1596.53,0.198223,372727,236139
1599.54,0.196631,365060,232131
1602.55,0.195683,357543,227848
1605.55,0.193340,349495,223924
1608.55,0.190812,341154,219856
1612.54,0.188179,330877,214530
1615.53,0.187622,322904,209629
1618.51,0.185794,315116,205436
1621.49,0.186465,307217,199977
1624.47,0.184253,299481,195937
1627.44,0.182751,292112,191778
1630.41,0.182351,284245,186785
1634.36,0.181057,274079,180642
1637.32,0.179844,266916,176413
1640.27,0.179537,259612,171707
1643.22,0.178638,251804,166888
1646.16,0.177222,244348,162475
1649.1,0.176289,236703,157730
1652.04,0.175427,228171,152347
1655.95,0.172859,215408,144678
1658.88,0.168209,204937,139127
1661.8,0.163466,193395,132733
1664.72,0.156076,179728,125470
1667.63,0.143329,163642,117643
1670.54,0.129002,146312,108712
1673.44,0.112217,128451,99202
1677.31,0.091800,105080,85059
1680.21,0.079066,88906,74108
1683.1,0.071863,75033,63590
1685.99,0.072411,63520,53765
1688.87,0.075747,53714,45117
1691.75,0.081082,45653,37878
1694.62,0.081976,39137,32405
1697.49,0.083253,33776,27884
1701.31,0.093570,28175,22714

File: Column 1_050611_20150331_122852.csv
Method:,Column 1,,
Host Date-Time:,31/3/15 @ 12:28:52,,
Header Version:,1,,
System Temp (C):,34.08,,
Detector Temp (C):,34.89,,
Humidity (%):,1.66,,
Lamp PD:,3817,,
Shift Vector Coefficients:,-10.5391,0.0761263,-0.000134223,,
Pixel to Wavelength Coefficients:,1775.68,-0.916766,-0.000235065,,
Serial Number:,5510004,,
Scan Config Name:,Column 1,,
Scan Config Type:,Slew,,
Section 1,,
Start wavelength (nm):,900,,
End wavelength (nm):,1700,,
Pattern Pixel Width (nm):,   7.03,,,,
Exposure (ms):,  0.635,,,,
Digital Resolution:,228,,
Num Repeats:,6,,
PGA Gain:,64,,
Total Measurement Time in sec:,  2.722,,
Wavelength (nm),Absorbance (AU),Reference Signal (unitless),Sample Signal (unitless)
901.51,0.069007,108485,92547
905.376,0.079307,121306,101059
909.237,0.078318,131909,110143
913.095,0.077094,143299,119991
916.948,0.079711,156982,130659
922.079,0.081224,179937,149244
925.923,0.081772,200504,166093
929.762,0.081907,222660,184389
933.597,0.081487,244426,202610
937.427,0.081187,263972,218963
941.254,0.080451,281845,234185
945.076,0.079121,297271,247760
950.165,0.078159,315605,263624
953.978,0.077515,328029,274408
957.786,0.077178,340470,285037
961.59,0.077814,352317,294523
965.389,0.077316,363056,303849
969.185,0.077313,373162,312309
972.976,0.077972,382632,319749
976.763,0.077819,391202,327026
981.806,0.078257,400190,334202
985.583,0.079355,406088,338271
989.355,0.079820,410162,341299
993.124,0.080660,412868,342887
996.888,0.080876,414263,343875
1000.65,0.081653,415476,344265
1004.4,0.082672,415479,343461
1009.41,0.084097,414358,341412
1013.15,0.084464,412923,339942
1016.89,0.084990,411526,338382
1020.63,0.084528,409066,336717
1024.36,0.084942,406777,334514
1028.09,0.084530,404427,332897
1031.82,0.084605,401911,330769
1036.78,0.083967,398410,328370
1040.49,0.084014,396204,326516
1044.2,0.083647,394236,325169
1047.91,0.083347,392042,323583
1051.61,0.083207,389823,321855
1055.31,0.082637,388234,320964
1059,0.082681,387599,320407
1063.92,0.081721,386688,320361
1067.61,0.081417,386598,320511
1071.29,0.080739,387377,321658
1074.96,0.080000,388536,323170
1078.63,0.079132,389855,324916
1082.3,0.078023,391215,326883
1085.96,0.077525,393215,328931
1090.84,0.076585,396270,332205
1094.49,0.075921,398760,334804
1098.14,0.075454,400987,337036
1101.79,0.075582,403477,339029
1105.43,0.074679,406116,341957
1109.06,0.074145,407701,343714
1112.7,0.073578,409859,345984
1117.53,0.073427,412494,348330
1121.15,0.074531,414909,349480
1124.77,0.074510,416559,350886
1128.38,0.075407,418532,351821
1131.99,0.075708,419956,352773
1135.6,0.077171,421946,353253
1139.2,0.079045,423881,353345
1143.99,0.080709,426786,354406
1147.58,0.081787,428617,355044
1151.17,0.082902,431169,356242
1154.75,0.083574,433579,357680
1158.33,0.084382,436264,359226
1161.91,0.086554,439132,359783
1165.48,0.088888,442389,360509
1169.04,0.090926,446101,361832
1173.79,0.093982,451929,363989
1177.34,0.095909,456026,365663
1180.9,0.098374,461306,367803
1184.44,0.100160,467657,371336
1187.99,0.101186,473969,375460
1191.52,0.101695,479856,379678
1195.06,0.100903,487372,386329
1199.76,0.100282,497347,394800
1203.29,0.099709,504311,400857
1206.81,0.099105,511507,407143
1210.33,0.098844,519078,413417
1213.84,0.098235,527163,420446
1217.35,0.097535,534208,426752
1220.85,0.096963,540472,432325
1225.51,0.095876,549929,440992
1229.01,0.095851,556888,446598
1232.5,0.094553,562180,452191
1235.98,0.093979,567975,457457
1239.46,0.093306,574815,463684
1242.94,0.092392,582782,471101
1246.41,0.091932,591476,478636
1251.03,0.091414,604016,489367
1254.5,0.091903,612289,495511
1257.96,0.092451,619125,500411
1261.41,0.093105,624551,504038
1264.86,0.093365,629900,508050
1268.31,0.093763,634345,511167
1271.75,0.094057,638574,514226
1276.33,0.094752,642499,516560
1279.76,0.094642,645905,519430
1283.19,0.093728,648307,522459
1286.61,0.093607,650446,524329
1290.03,0.093331,652132,526023
1293.44,0.092827,653907,528067
1296.85,0.092334,655963,530329
1301.39,0.092341,657349,531441
1304.8,0.092325,657558,531629
1308.19,0.092440,658515,532262
1311.58,0.092503,658804,532419
1314.97,0.092907,659011,532091
1318.36,0.093186,658272,531153
1321.73,0.093643,658022,530392
1326.23,0.094369,657870,529384
1329.6,0.095296,656482,527141
1332.97,0.096227,654926,524765
1336.33,0.097021,653727,522848
1339.69,0.098376,652497,520239
1343.04,0.099868,649913,516401
1346.39,0.101751,647671,512393
1349.73,0.103629,645338,508345
1354.18,0.106577,641175,501648
1357.52,0.108656,638376,497074
1360.85,0.110294,635805,493208
1364.17,0.112766,633413,488564
1367.49,0.114716,631026,484542
1370.81,0.117056,628050,479665
1374.12,0.118689,625034,475570
1378.54,0.121823,620272,468554
1381.84,0.124581,616892,463050
1385.14,0.127654,613613,457341
1388.43,0.131217,611526,452062
1391.72,0.135233,610663,447269
1395.01,0.139026,610634,443358
1398.29,0.144080,611700,438994
1402.66,0.150080,614051,434635
1405.93,0.154717,616268,431571
1409.2,0.159371,617795,428029
1412.46,0.163601,618872,424619
1415.72,0.167503,619795,421449
1418.98,0.170835,620495,418700
1422.23,0.174692,621087,415394
1426.56,0.177898,621375,412530
1429.8,0.180537,621616,410190
1433.04,0.182883,622129,408317
1436.27,0.185519,621526,405453
1439.5,0.187230,621113,403590
1442.72,0.189966,620921,400932
1445.94,0.192230,620270,398429
1450.23,0.195771,618860,394295
1453.44,0.198399,617697,391180
1456.64,0.201146,616264,387812
1459.85,0.203801,614413,384290
1463.04,0.207363,612307,379845
1466.24,0.211185,610032,375118
1469.43,0.214271,607345,370821
1473.67,0.220309,603789,363560
1476.85,0.226652,601175,356738
1480.02,0.232138,597737,350245
1483.19,0.238755,594479,343069
1486.36,0.244742,591232,336524
1489.52,0.249724,587853,330784
1492.68,0.252944,583875,326119
1496.89,0.254576,578062,321661
1500.03,0.255939,574159,318488
1503.18,0.255456,570285,316691
1506.32,0.254606,565444,314618
1509.45,0.253458,560571,312732
1512.58,0.251788,555821,311277
1515.71,0.249151,550344,310087
1519.87,0.246164,543983,308618
1522.99,0.243852,538764,307289
1526.1,0.241171,533692,306281
1529.21,0.238698,527902,304688
1532.32,0.235952,521886,303126
1535.42,0.233007,515888,301681
1538.51,0.229924,509987,300355
1541.6,0.226916,503936,298854
1545.72,0.222799,494694,296168
1548.8,0.220062,488378,294235
1551.88,0.218265,481832,291495
1554.95,0.216101,474989,288790
1558.02,0.214079,467818,285758
1561.08,0.212370,460730,282538
1564.15,0.212637,454170,278344
1568.22,0.211617,444181,272862
1571.27,0.210969,436947,268819
1574.32,0.209938,429598,264926
1577.36,0.208677,422039,261021
1580.4,0.207711,414375,256852
1583.43,0.206411,406354,252635
1586.46,0.204224,398475,248987
1590.49,0.202964,388982,243762
1593.51,0.201471,380708,239398
1596.53,0.199431,372727,235483
1599.54,0.197290,365060,231779
1602.55,0.195508,357543,227940
1605.55,0.193166,349495,224014
1608.55,0.191241,341154,219639
1612.54,0.188977,330877,214136
1615.53,0.188464,322904,209223
1618.51,0.187138,315116,204801
1621.49,0.186437,307217,199990
1624.47,0.184468,299481,195840
1627.44,0.183279,292112,191545
1630.41,0.183072,284245,186475
1634.36,0.182446,274079,180065
1637.32,0.181131,266916,175891
1640.27,0.180210,259612,171441
1643.22,0.178154,251804,167074
1646.16,0.179065,244348,161787
1649.1,0.177945,236703,157130
1652.04,0.176471,228171,151981
1655.95,0.174263,215408,144211
1658.88,0.171068,204937,138214
1661.8,0.163869,193395,132610
1664.72,0.155816,179728,125545
1667.63,0.142543,163642,117856
1670.54,0.129790,146312,108515
1673.44,0.115478,128451,98460
1677.31,0.095924,105080,84255
1680.21,0.080934,88906,73790
1683.1,0.079046,75033,62547
1685.99,0.077056,63520,53193
1688.87,0.079518,53714,44727
1691.75,0.083681,45653,37652
1694.62,0.091460,39137,31705
1697.49,0.093640,33776,27225
1701.31,0.106101,28175,22068

File: Column 1_050611_20150331_122900.csv
Method:,Column 1,,
Host Date-Time:,31/3/15 @ 12:29:0,,
Header Version:,1,,
System Temp (C):,34.06,,
Detector Temp (C):,34.95,,
Humidity (%):,1.66,,
Lamp PD:,3818,,
Shift Vector Coefficients:,-10.5391,0.0761263,-0.000134223,,
Pixel to Wavelength Coefficients:,1775.68,-0.916766,-0.000235065,,
Serial Number:,5510004,,
Scan Config Name:,Column 1,,
Scan Config Type:,Slew,,
Section 1,,
Start wavelength (nm):,900,,
End wavelength (nm):,1700,,
Pattern Pixel Width (nm):,   7.03,,,,
Exposure (ms):,  0.635,,,,
Digital Resolution:,228,,
Num Repeats:,6,,
PGA Gain:,64,,
Total Measurement Time in sec:,  2.673,,
Wavelength (nm),Absorbance (AU),Reference Signal (unitless),Sample Signal (unitless)
901.51,0.069552,108485,92431
905.376,0.075435,121306,101964
909.237,0.076743,131909,110543
913.095,0.077888,143299,119772
916.948,0.079086,156982,130847
922.079,0.081547,179937,149133
925.923,0.082164,200504,165943
929.762,0.082148,222660,184287
933.597,0.082893,244426,201955
937.427,0.081300,263972,218906
941.254,0.080650,281845,234078
945.076,0.078717,297271,247991
950.165,0.078002,315605,263719
953.978,0.077020,328029,274721
957.786,0.077478,340470,284840
961.59,0.077358,352317,294833
965.389,0.077761,363056,303538
969.185,0.077865,373162,311912
972.976,0.077874,382632,319821
976.763,0.078195,391202,326743
981.806,0.078466,400190,334041
985.583,0.079751,406088,337963
989.355,0.080113,410162,341069
993.124,0.080142,412868,343296
996.888,0.080723,414263,343996
1000.65,0.081108,415476,344697
1004.4,0.083256,415479,342999
1009.41,0.083456,414358,341916
1013.15,0.084224,412923,340130
1016.89,0.084449,411526,338804
1020.63,0.084998,409066,336353
1024.36,0.084221,406777,335070
1028.09,0.084401,404427,332996
1031.82,0.084665,401911,330723
1036.78,0.084114,398410,328259
1040.49,0.083507,396204,326898
1044.2,0.083655,394236,325163
1047.91,0.083638,392042,323366
1051.61,0.083308,389823,321780
1055.31,0.083053,388234,320657
1059,0.082097,387599,320838
1063.92,0.081671,386688,320398
1067.61,0.080465,386598,321214
1071.29,0.080409,387377,321903
1074.96,0.080019,388536,323156
1078.63,0.079510,389855,324633
1082.3,0.078330,391215,326652
1085.96,0.077916,393215,328635
1090.84,0.076682,396270,332131
1094.49,0.076073,398760,334687
1098.14,0.075408,400987,337072
1101.79,0.074523,403477,339857
1105.43,0.074681,406116,341955
1109.06,0.073993,407701,343834
1112.7,0.073811,409859,345799
1117.53,0.073519,412494,348256
1121.15,0.073538,414909,350280
1124.77,0.073904,416559,351376
1128.38,0.074735,418532,352366
1131.99,0.075850,419956,352658
1135.6,0.077347,421946,353110
1139.2,0.078568,423881,353733
1143.99,0.080726,426786,354392
1147.58,0.081438,428617,355330
1151.17,0.082052,431169,356940
1154.75,0.083855,433579,357448
1158.33,0.084648,436264,359006
1161.91,0.086299,439132,359995
1165.48,0.088454,442389,360870
1169.04,0.090124,446101,362501
1173.79,0.094334,451929,363694
1177.34,0.096232,456026,365391
1180.9,0.098227,461306,367927
1184.44,0.099799,467657,371645
1187.99,0.101351,473969,375318
1191.52,0.101147,479856,380158
1195.06,0.100901,487372,386331
1199.76,0.100221,497347,394856
1203.29,0.099610,504311,400948
1206.81,0.099426,511507,406842
1210.33,0.098512,519078,413733
1213.84,0.098010,527163,420664
1217.35,0.097269,534208,427013
1220.85,0.096454,540472,432832
1225.51,0.095953,549929,440914
1229.01,0.095558,556888,446899
1232.5,0.094579,562180,452164
1235.98,0.094054,567975,457378
1239.46,0.093213,574815,463783
1242.94,0.092599,582782,470877
1246.41,0.091759,591476,478826
1251.03,0.091601,604016,489156
1254.5,0.092010,612289,495389
1257.96,0.091885,619125,501064
1261.41,0.092533,624551,504702
1264.86,0.092964,629900,508519
1268.31,0.093554,634345,511413
1271.75,0.094149,638574,514117
1276.33,0.094705,642499,516616
1279.76,0.094412,645905,519705
1283.19,0.093871,648307,522287
1286.61,0.093591,650446,524349
1290.03,0.093078,652132,526329
1293.44,0.093005,653907,527851
1296.85,0.092655,655963,529937
1301.39,0.092113,657349,531720
1304.8,0.092516,657558,531396
1308.19,0.092457,658515,532241
1311.58,0.092140,658804,532864
1314.97,0.093122,659011,531827
1318.36,0.093237,658272,531090
1321.73,0.093354,658022,530746
1326.23,0.094304,657870,529464
1329.6,0.095091,656482,527390
1332.97,0.095680,654926,525427
1336.33,0.096875,653727,523024
1339.69,0.098449,652497,520151
1343.04,0.100032,649913,516206
1346.39,0.102042,647671,512050
1349.73,0.103679,645338,508286
1354.18,0.106275,641175,501997
1357.52,0.108604,638376,497133
1360.85,0.110394,635805,493094
1364.17,0.112581,633413,488772
1367.49,0.114822,631026,484424
1370.81,0.116720,628050,480037
1374.12,0.118426,625034,475858
1378.54,0.121322,620272,469094
1381.84,0.124378,616892,463267
1385.14,0.127519,613613,457484
1388.43,0.130983,611526,452306
1391.72,0.135116,610663,447389
1395.01,0.139124,610634,443258
1398.29,0.143520,611700,439560
1402.66,0.149769,614051,434946
1405.93,0.154173,616268,432112
1409.2,0.159340,617795,428060
1412.46,0.163328,618872,424886
1415.72,0.167271,619795,421674
1418.98,0.170887,620495,418650
1422.23,0.174147,621087,415916
1426.56,0.178034,621375,412401
1429.8,0.180696,621616,410040
1433.04,0.182989,622129,408217
1436.27,0.184974,621526,405962
1439.5,0.187411,621113,403422
1442.72,0.189848,620921,401041
1445.94,0.192136,620270,398515
1450.23,0.195878,618860,394198
1453.44,0.198507,617697,391083
1456.64,0.201093,616264,387859
1459.85,0.203484,614413,384571
1463.04,0.206943,612307,380212
1466.24,0.210850,610032,375407
1469.43,0.214815,607345,370357
1473.67,0.220522,603789,363382
1476.85,0.226189,601175,357118
1480.02,0.232080,597737,350292
1483.19,0.238480,594479,343286
1486.36,0.244485,591232,336723
1489.52,0.249501,587853,330954
1492.68,0.252796,583875,326230
1496.89,0.255235,578062,321173
1500.03,0.255945,574159,318484
1503.18,0.255452,570285,316694
1506.32,0.254273,565444,314859
1509.45,0.252989,560571,313070
1512.58,0.251729,555821,311319
1515.71,0.249020,550344,310180
1519.87,0.246429,543983,308430
1522.99,0.243508,538764,307532
1526.1,0.241229,533692,306240
1529.21,0.238234,527902,305014
1532.32,0.235324,521886,303565
1535.42,0.232694,515888,301899
1538.51,0.230358,509987,300055
1541.6,0.226617,503936,299060
1545.72,0.223290,494694,295833
1548.8,0.220096,488378,294212
1551.88,0.217730,481832,291854
1554.95,0.215732,474989,289036
1558.02,0.214316,467818,285602
1561.08,0.212786,460730,282267
1564.15,0.212861,454170,278200
1568.22,0.211436,444181,272976
1571.27,0.210814,436947,268915
1574.32,0.209967,429598,264908
1577.36,0.208948,422039,260858
1580.4,0.207792,414375,256804
1583.43,0.206518,406354,252573
1586.46,0.205014,398475,248535
1590.49,0.203514,388982,243453
1593.51,0.200929,380708,239697
1596.53,0.199417,372727,235491
1599.54,0.196839,365060,232020
1602.55,0.195075,357543,228167
1605.55,0.192937,349495,224132
1608.55,0.190652,341154,219937
1612.54,0.189348,330877,213953
1615.53,0.187409,322904,209732
1618.51,0.186208,315116,205240
1621.49,0.186105,307217,200143
1624.47,0.184514,299481,195819
1627.44,0.183276,292112,191546
1630.41,0.183089,284245,186468
1634.36,0.180966,274079,180680
1637.32,0.181299,266916,175823
1640.27,0.181611,259612,170889
1643.22,0.179881,251804,166411
1646.16,0.178885,244348,161854
1649.1,0.178323,236703,156993
1652.04,0.175963,228171,152159
1655.95,0.173836,215408,144353
1658.88,0.169722,204937,138643
1661.8,0.163990,193395,132573
1664.72,0.157456,179728,125072
1667.63,0.143343,163642,117639
1670.54,0.128731,146312,108780
1673.44,0.111876,128451,99280
1677.31,0.093380,105080,84750
1680.21,0.079072,88906,74107
1683.1,0.075010,75033,63131
1685.99,0.077048,63520,53194
1688.87,0.077416,53714,44944
1691.75,0.083797,45653,37642
1694.62,0.089492,39137,31849
1697.49,0.094662,33776,27161
1701.31,0.100198,28175,22370