Folder: textile_sorting_NIRSCAN_/samples/wool/wool-000811 (part 68)

File: Column 1_050568_20150331_120812.csv
Method:,Column 1,,
Host Date-Time:,31/3/15 @ 12:8:12,,
Header Version:,1,,
System Temp (C):,33.97,,
Detector Temp (C):,33.94,,
Humidity (%):,1.86,,
Lamp PD:,3819,,
Shift Vector Coefficients:,-10.5391,0.0761263,-0.000134223,,
Pixel to Wavelength Coefficients:,1775.68,-0.916766,-0.000235065,,
Serial Number:,5510004,,
Scan Config Name:,Column 1,,
Scan Config Type:,Slew,,
Section 1,,
Start wavelength (nm):,900,,
End wavelength (nm):,1700,,
Pattern Pixel Width (nm):,   7.03,,,,
Exposure (ms):,  0.635,,,,
Digital Resolution:,228,,
Num Repeats:,6,,
PGA Gain:,64,,
Total Measurement Time in sec:,  2.732,,
Wavelength (nm),Absorbance (AU),Reference Signal (unitless),Sample Signal (unitless)
901.51,0.034632,108485,100170
905.376,0.041295,121306,110303
909.237,0.043161,131909,119430
913.095,0.043990,143299,129495
916.948,0.046098,156982,141173
922.079,0.047058,179937,161459
925.923,0.047761,200504,179623
929.762,0.048811,222660,198990
933.597,0.050068,244426,217811
937.427,0.048442,263972,236111
941.254,0.048124,281845,252282
945.076,0.047149,297271,266688
950.165,0.046445,315605,283595
953.978,0.046245,328029,294895
957.786,0.046143,340470,306151
961.59,0.047637,352317,315716
965.389,0.046969,363056,325840
969.185,0.047116,373162,334797
972.976,0.047957,382632,342629
976.763,0.047546,391202,350635
981.806,0.048792,400190,357663
985.583,0.048977,406088,362780
989.355,0.050151,410162,365430
993.124,0.050320,412868,367698
996.888,0.050619,414263,368686
1000.65,0.051807,415476,368756
1004.4,0.053159,415479,367612
1009.41,0.053968,414358,365938
1013.15,0.054656,412923,364094
1016.89,0.055107,411526,362485
1020.63,0.055210,409066,360233
1024.36,0.055262,406777,358174
1028.09,0.054289,404427,356904
1031.82,0.054691,401911,354355
1036.78,0.054128,398410,351724
1040.49,0.053598,396204,350204
1044.2,0.053995,394236,348146
1047.91,0.053248,392042,346804
1051.61,0.052878,389823,345135
1055.31,0.051740,388234,344630
1059,0.051350,387599,344376
1063.92,0.050464,386688,344268
1067.61,0.049966,386598,344583
1071.29,0.049143,387377,345932
1074.96,0.048839,388536,347210
1078.63,0.048329,389855,348798
1082.3,0.047600,391215,350603
1085.96,0.046753,393215,353083
1090.84,0.045705,396270,356686
1094.49,0.046009,398760,358676
1098.14,0.045336,400987,361239
1101.79,0.044709,403477,364007
1105.43,0.045055,406116,366096
1109.06,0.044161,407701,368282
1112.7,0.044150,409859,370241
1117.53,0.043951,412494,372792
1121.15,0.044900,414909,374156
1124.77,0.045499,416559,375126
1128.38,0.047054,418532,375556
1131.99,0.048312,419956,375744
1135.6,0.050606,421946,375535
1139.2,0.051766,423881,376251
1143.99,0.054967,426786,376048
1147.58,0.055105,428617,377541
1151.17,0.056825,431169,378288
1154.75,0.057493,433579,379818
1158.33,0.059346,436264,380543
1161.91,0.061116,439132,381486
1165.48,0.064001,442389,381771
1169.04,0.066983,446101,382340
1173.79,0.070134,451929,384535
1177.34,0.073068,456026,385409
1180.9,0.075041,461306,388104
1184.44,0.076893,467657,391773
1187.99,0.078020,473969,396032
1191.52,0.077729,479856,401219
1195.06,0.077274,487372,407931
1199.76,0.076265,497347,417248
1203.29,0.075415,504311,423920
1206.81,0.074858,511507,430520
1210.33,0.073813,519078,437945
1213.84,0.073057,527163,445541
1217.35,0.072241,534208,452345
1220.85,0.071639,540472,458283
1225.51,0.070388,549929,467648
1229.01,0.070072,556888,473910
1232.5,0.069208,562180,479366
1235.98,0.068662,567975,484917
1239.46,0.067811,574815,491719
1242.94,0.066898,582782,499584
1246.41,0.066014,591476,508069
1251.03,0.065664,604016,519260
1254.5,0.066166,612289,525764
1257.96,0.066673,619125,531013
1261.41,0.066893,624551,535396
1264.86,0.067880,629900,538755
1268.31,0.068402,634345,541906
1271.75,0.068992,638574,544777
1276.33,0.069798,642499,547110
1279.76,0.069310,645905,550628
1283.19,0.068651,648307,553515
1286.61,0.068555,650446,555464
1290.03,0.068338,652132,557182
1293.44,0.067703,653907,559516
1296.85,0.067376,655963,561699
1301.39,0.066874,657349,563537
1304.8,0.066961,657558,563603
1308.19,0.067201,658515,564111
1311.58,0.067705,658804,563704
1314.97,0.068204,659011,563234
1318.36,0.068299,658272,562479
1321.73,0.068882,658022,561511
1326.23,0.069975,657870,559970
1329.6,0.070777,656482,557758
1332.97,0.071473,654926,555545
1336.33,0.072726,653727,552930
1339.69,0.074713,652497,549371
1343.04,0.076260,649913,545250
1346.39,0.079048,647671,539891
1349.73,0.080755,645338,535837
1354.18,0.083931,641175,528501
1357.52,0.086319,638376,523308
1360.85,0.088509,635805,518579
1364.17,0.090521,633413,514240
1367.49,0.092895,631026,509509
1370.81,0.095625,628050,503929
1374.12,0.097741,625034,499071
1378.54,0.100846,620272,491741
1381.84,0.104769,616892,484663
1385.14,0.107998,613613,478516
1388.43,0.112637,611526,471822
1391.72,0.117583,610663,465820
1395.01,0.122094,610634,460985
1398.29,0.127503,611700,456074
1402.66,0.134503,614051,450507
1405.93,0.140159,616268,446283
1409.2,0.145905,617795,441509
1412.46,0.150630,618872,437493
1415.72,0.155175,619795,433584
1418.98,0.159459,620495,429813
1422.23,0.163227,621087,426506
1426.56,0.167671,621375,422360
1429.8,0.170396,621616,419881
1433.04,0.173016,622129,417700
1436.27,0.175142,621526,415257
1439.5,0.177355,621113,412872
1442.72,0.179984,620921,410254
1445.94,0.182101,620270,407831
1450.23,0.186237,618860,403047
1453.44,0.189642,617697,399148
1456.64,0.192324,616264,395770
1459.85,0.195025,614413,392135
1463.04,0.198256,612307,387894
1466.24,0.201163,610032,383875
1469.43,0.204805,607345,378992
1473.67,0.211126,603789,371329
1476.85,0.216979,601175,364772
1480.02,0.223551,597737,357239
1483.19,0.229416,594479,350526
1486.36,0.235532,591232,343737
1489.52,0.241395,587853,337189
1492.68,0.245090,583875,332070
1496.89,0.247388,578062,327029
1500.03,0.247890,574159,324446
1503.18,0.248177,570285,322044
1506.32,0.246850,565444,320287
1509.45,0.245563,560571,318469
1512.58,0.243955,555821,316942
1515.71,0.241961,550344,315263
1519.87,0.237704,543983,314689
1522.99,0.235666,538764,313136
1526.1,0.233103,533692,312024
1529.21,0.231928,527902,309475
1532.32,0.226789,521886,309590
1535.42,0.224401,515888,307719
1538.51,0.220159,509987,307185
1541.6,0.219692,503936,303867
1545.72,0.212921,494694,302981
1548.8,0.209907,488378,301196
1551.88,0.207223,481832,299001
1554.95,0.204674,474989,296490
1558.02,0.203454,467818,292835
1561.08,0.202079,460730,289313
1564.15,0.200567,454170,286188
1568.22,0.200683,444181,279819
1571.27,0.199495,436947,276016
1574.32,0.198527,429598,271979
1577.36,0.196923,422039,268182
1580.4,0.195670,414375,264073
1583.43,0.193395,406354,260321
1586.46,0.192370,398475,255877
1590.49,0.189670,388982,251339
1593.51,0.188085,380708,246892
1596.53,0.185611,372727,243097
1599.54,0.183503,365060,239255
1602.55,0.180617,357543,235891
1605.55,0.178777,349495,231560
1608.55,0.176974,341154,226974
1612.54,0.175156,330877,221060
1615.53,0.173792,322904,216412
1618.51,0.171660,315116,212232
1621.49,0.169839,307217,207781
1624.47,0.169130,299481,202880
1627.44,0.167946,292112,198428
1630.41,0.166296,284245,193819
1634.36,0.165967,274079,187029
1637.32,0.164230,266916,182871
1640.27,0.164176,259612,177889
1643.22,0.161978,251804,173414
1646.16,0.161711,244348,168383
1649.1,0.161902,236703,163043
1652.04,0.160547,228171,157657
1655.95,0.157272,215408,149965
1658.88,0.152764,204937,144164
1661.8,0.149471,193395,137080
1664.72,0.142524,179728,129447
1667.63,0.132447,163642,120628
1670.54,0.121372,146312,110639
1673.44,0.106679,128451,100475
1677.31,0.087729,105080,85860
1680.21,0.082195,88906,73576
1683.1,0.078685,75033,62599
1685.99,0.079200,63520,52931
1688.87,0.082656,53714,44405
1691.75,0.092549,45653,36891
1694.62,0.099116,39137,31151
1697.49,0.099712,33776,26847
1701.31,0.110631,28175,21839

File: Column 1_050568_20150331_120815.csv
Method:,Column 1,,
Host Date-Time:,31/3/15 @ 12:8:15,,
Header Version:,1,,
System Temp (C):,33.97,,
Detector Temp (C):,33.92,,
Humidity (%):,1.86,,
Lamp PD:,3818,,
Shift Vector Coefficients:,-10.5391,0.0761263,-0.000134223,,
Pixel to Wavelength Coefficients:,1775.68,-0.916766,-0.000235065,,
Serial Number:,5510004,,
Scan Config Name:,Column 1,,
Scan Config Type:,Slew,,
Section 1,,
Start wavelength (nm):,900,,
End wavelength (nm):,1700,,
Pattern Pixel Width (nm):,   7.03,,,,
Exposure (ms):,  0.635,,,,
Digital Resolution:,228,,
Num Repeats:,6,,
PGA Gain:,64,,
Total Measurement Time in sec:,  2.673,,
Wavelength (nm),Absorbance (AU),Reference Signal (unitless),Sample Signal (unitless)
901.51,0.033204,108485,100500
905.376,0.039315,121306,110807
909.237,0.043390,131909,119367
913.095,0.043802,143299,129551
916.948,0.043363,156982,142065
922.079,0.046851,179937,161536
925.923,0.047577,200504,179699
929.762,0.048536,222660,199116
933.597,0.049072,244426,218311
937.427,0.047969,263972,236368
941.254,0.048574,281845,252021
945.076,0.047475,297271,266488
950.165,0.046231,315605,283735
953.978,0.046491,328029,294728
957.786,0.046428,340470,305950
961.59,0.047023,352317,316163
965.389,0.047033,363056,325792
969.185,0.046631,373162,335171
972.976,0.047406,382632,343064
976.763,0.048233,391202,350081
981.806,0.048548,400190,357864
985.583,0.049335,406088,362481
989.355,0.049965,410162,365587
993.124,0.049547,412868,368353
996.888,0.050993,414263,368369
1000.65,0.051889,415476,368686
1004.4,0.052764,415479,367947
1009.41,0.054137,414358,365796
1013.15,0.054880,412923,363906
1016.89,0.054902,411526,362656
1020.63,0.055045,409066,360370
1024.36,0.054757,406777,358591
1028.09,0.054687,404427,356577
1031.82,0.054412,401911,354583
1036.78,0.054146,398410,351710
1040.49,0.054165,396204,349747
1044.2,0.053530,394236,348519
1047.91,0.052757,392042,347197
1051.61,0.052582,389823,345371
1055.31,0.052321,388234,344170
1059,0.051860,387599,343972
1063.92,0.050407,386688,344313
1067.61,0.049636,386598,344845
1071.29,0.049211,387377,345878
1074.96,0.048660,388536,347353
1078.63,0.047749,389855,349264
1082.3,0.047330,391215,350821
1085.96,0.046565,393215,353236
1090.84,0.045979,396270,356461
1094.49,0.045560,398760,359047
1098.14,0.045232,400987,361325
1101.79,0.045198,403477,363597
1105.43,0.044275,406116,366754
1109.06,0.044454,407701,368034
1112.7,0.044551,409859,369899
1117.53,0.044577,412494,372255
1121.15,0.044978,414909,374089
1124.77,0.045480,416559,375143
1128.38,0.046530,418532,376009
1131.99,0.047393,419956,376540
1135.6,0.050248,421946,375845
1139.2,0.051570,423881,376421
1143.99,0.054094,426786,376805
1147.58,0.055386,428617,377297
1151.17,0.056034,431169,378978
1154.75,0.057438,433579,379866
1158.33,0.059007,436264,380840
1161.91,0.061354,439132,381277
1165.48,0.064133,442389,381655
1169.04,0.066490,446101,382775
1173.79,0.070139,451929,384531
1177.34,0.072146,456026,386228
1180.9,0.075133,461306,388022
1184.44,0.076476,467657,392149
1187.99,0.077120,473969,396853
1191.52,0.077046,479856,401851
1195.06,0.077014,487372,408175
1199.76,0.075917,497347,417583
1203.29,0.075466,504311,423870
1206.81,0.074690,511507,430687
1210.33,0.073481,519078,438280
1213.84,0.072894,527163,445709
1217.35,0.072491,534208,452084
1220.85,0.071163,540472,458786
1225.51,0.070193,549929,467858
1229.01,0.069789,556888,474219
1232.5,0.069396,562180,479159
1235.98,0.068386,567975,485225
1239.46,0.067571,574815,491991
1242.94,0.066217,582782,500368
1246.41,0.065925,591476,508174
1251.03,0.065730,604016,519180
1254.5,0.065994,612289,525972
1257.96,0.066449,619125,531287
1261.41,0.066660,624551,535683
1264.86,0.067706,629900,538971
1268.31,0.068169,634345,542196
1271.75,0.068966,638574,544810
1276.33,0.069191,642499,547875
1279.76,0.069085,645905,550914
1283.19,0.068762,648307,553374
1286.61,0.068379,650446,555690
1290.03,0.067735,652132,557957
1293.44,0.067329,653907,559999
1296.85,0.067457,655963,561594
1301.39,0.067229,657349,563076
1304.8,0.066860,657558,563734
1308.19,0.067262,658515,564032
1311.58,0.067546,658804,563911
1314.97,0.067785,659011,563777
1318.36,0.068464,658272,562265
1321.73,0.069010,658022,561346
1326.23,0.069708,657870,560315
1329.6,0.070359,656482,558295
1332.97,0.071554,654926,555442
1336.33,0.072576,653727,553121
1339.69,0.074539,652497,549591
1343.04,0.076111,649913,545437
1346.39,0.078635,647671,540405
1349.73,0.080316,645338,536378
1354.18,0.083462,641175,529072
1357.52,0.085707,638376,524046
1360.85,0.088101,635805,519067
1364.17,0.090197,633413,514624
1367.49,0.092534,631026,509933
1370.81,0.095227,628050,504391
1374.12,0.097546,625034,499295
1378.54,0.101035,620272,491527
1381.84,0.104173,616892,485329
1385.14,0.108052,613613,478457
1388.43,0.112244,611526,472249
1391.72,0.117245,610663,466183
1395.01,0.122020,610634,461064
1398.29,0.127427,611700,456154
1402.66,0.134738,614051,450263
1405.93,0.140684,616268,445744
1409.2,0.145485,617795,441936
1412.46,0.150539,618872,437584
1415.72,0.155090,619795,433669
1418.98,0.159281,620495,429989
1422.23,0.163092,621087,426639
1426.56,0.167267,621375,422753
1429.8,0.169308,621616,420934
1433.04,0.172646,622129,418056
1436.27,0.175090,621526,415307
1439.5,0.177056,621113,413157
1442.72,0.179756,620921,410469
1445.94,0.182529,620270,407429
1450.23,0.185593,618860,403645
1453.44,0.188990,617697,399747
1456.64,0.192037,616264,396032
1459.85,0.194862,614413,392282
1463.04,0.197668,612307,388420
1466.24,0.201094,610032,383936
1469.43,0.204972,607345,378847
1473.67,0.210231,603789,372095
1476.85,0.216996,601175,364758
1480.02,0.223353,597737,357402
1483.19,0.229705,594479,350293
1486.36,0.236106,591232,343283
1489.52,0.240767,587853,337677
1492.68,0.244694,583875,332373
1496.89,0.246619,578062,327609
1500.03,0.247645,574159,324629
1503.18,0.248076,570285,322119
1506.32,0.247290,565444,319963
1509.45,0.245160,560571,318765
1512.58,0.243694,555821,317133
1515.71,0.241724,550344,315435
1519.87,0.237905,543983,314543
1522.99,0.235489,538764,313263
1526.1,0.232619,533692,312372
1529.21,0.229410,527902,311274
1532.32,0.227218,521886,309284
1535.42,0.224298,515888,307792
1538.51,0.220466,509987,306968
1541.6,0.217312,503936,305537
1545.72,0.213459,494694,302606
1548.8,0.209812,488378,301262
1551.88,0.207179,481832,299031
1554.95,0.205160,474989,296158
1558.02,0.203100,467818,293074
1561.08,0.201054,460730,289996
1564.15,0.201593,454170,285513
1568.22,0.199878,444181,280338
1571.27,0.199081,436947,276279
1574.32,0.198382,429598,272070
1577.36,0.196543,422039,268417
1580.4,0.195673,414375,264071
1583.43,0.193539,406354,260235
1586.46,0.192034,398475,256075
1590.49,0.189785,388982,251272
1593.51,0.188124,380708,246870
1596.53,0.185508,372727,243155
1599.54,0.183705,365060,239144
1602.55,0.181559,357543,235380
1605.55,0.179265,349495,231300
1608.55,0.177556,341154,226670
1612.54,0.174287,330877,221503
1615.53,0.171614,322904,217500
1618.51,0.171175,315116,212469
1621.49,0.170398,307217,207514
1624.47,0.168604,299481,203126
1627.44,0.167903,292112,198448
1630.41,0.166911,284245,193545
1634.36,0.163986,274079,187884
1637.32,0.164140,266916,182909
1640.27,0.163259,259612,178265
1643.22,0.162229,251804,173314
1646.16,0.160881,244348,168705
1649.1,0.160912,236703,163415
1652.04,0.159029,228171,158209
1655.95,0.156783,215408,150134
1658.88,0.154532,204937,143578
1661.8,0.148942,193395,137247
1664.72,0.141954,179728,129617
1667.63,0.131407,163642,120917
1670.54,0.118282,146312,111429
1673.44,0.106917,128451,100420
1677.31,0.089259,105080,85558
1680.21,0.082502,88906,73524
1683.1,0.079157,75033,62531
1685.99,0.078413,63520,53027
1688.87,0.083194,53714,44350
1691.75,0.087237,45653,37345
1694.62,0.098363,39137,31205
1697.49,0.098098,33776,26947
1701.31,0.101929,28175,22281

File: Column 1_050568_20150331_120818.csv
Method:,Column 1,,
Host Date-Time:,31/3/15 @ 12:8:18,,
Header Version:,1,,
System Temp (C):,33.95,,
Detector Temp (C):,33.92,,
Humidity (%):,1.86,,
Lamp PD:,3819,,
Shift Vector Coefficients:,-10.5391,0.0761263,-0.000134223,,
Pixel to Wavelength Coefficients:,1775.68,-0.916766,-0.000235065,,
Serial Number:,5510004,,
Scan Config Name:,Column 1,,
Scan Config Type:,Slew,,
Section 1,,
Start wavelength (nm):,900,,
End wavelength (nm):,1700,,
Pattern Pixel Width (nm):,   7.03,,,,
Exposure (ms):,  0.635,,,,
Digital Resolution:,228,,
Num Repeats:,6,,
PGA Gain:,64,,
Total Measurement Time in sec:,  2.674,,
Wavelength (nm),Absorbance (AU),Reference Signal (unitless),Sample Signal (unitless)
901.51,0.033454,108485,100442
905.376,0.041563,121306,110235
909.237,0.043005,131909,119473
913.095,0.044302,143299,129402
916.948,0.044842,156982,141582
922.079,0.046096,179937,161817
925.923,0.047899,200504,179566
929.762,0.048621,222660,199077
933.597,0.049466,244426,218113
937.427,0.048057,263972,236320
941.254,0.048374,281845,252137
945.076,0.047649,297271,266381
950.165,0.047252,315605,283069
953.978,0.046355,328029,294820
957.786,0.046186,340470,306121
961.59,0.047410,352317,315881
965.389,0.047264,363056,325619
969.185,0.047642,373162,334392
972.976,0.047768,382632,342778
976.763,0.048555,391202,349821
981.806,0.048960,400190,357525
985.583,0.049645,406088,362222
989.355,0.050086,410162,365485
993.124,0.050794,412868,367297
996.888,0.051031,414263,368337
1000.65,0.051502,415476,369015
1004.4,0.053112,415479,367652
1009.41,0.054216,414358,365729
1013.15,0.054997,412923,363808
1016.89,0.055439,411526,362208
1020.63,0.054721,409066,360639
1024.36,0.055780,406777,357747
1028.09,0.055180,404427,356172
1031.82,0.054378,401911,354611
1036.78,0.054190,398410,351674
1040.49,0.054125,396204,349779
1044.2,0.053820,394236,348286
1047.91,0.053125,392042,346903
1051.61,0.052657,389823,345311
1055.31,0.052255,388234,344222
1059,0.051362,387599,344366
1063.92,0.050546,386688,344203
1067.61,0.049530,386598,344929
1071.29,0.049531,387377,345623
1074.96,0.049183,388536,346935
1078.63,0.048323,389855,348803
1082.3,0.047105,391215,351003
1085.96,0.046769,393215,353070
1090.84,0.045917,396270,356512
1094.49,0.045445,398760,359142
1098.14,0.045118,400987,361420
1101.79,0.045295,403477,363516
1105.43,0.045111,406116,366049
1109.06,0.044065,407701,368364
1112.7,0.044524,409859,369922
1117.53,0.043960,412494,372784
1121.15,0.045236,414909,373867
1124.77,0.045385,416559,375225
1128.38,0.047027,418532,375579
1131.99,0.048190,419956,375849
1135.6,0.049777,421946,376253
1139.2,0.051597,423881,376398
1143.99,0.054167,426786,376741
1147.58,0.055182,428617,377474
1151.17,0.056602,431169,378482
1154.75,0.058190,433579,379209
1158.33,0.059226,436264,380648
1161.91,0.061692,439132,380981
1165.48,0.064042,442389,381735
1169.04,0.066839,446101,382467
1173.79,0.070610,451929,384114
1177.34,0.072953,456026,385511
1180.9,0.074931,461306,388202
1184.44,0.077471,467657,391252
1187.99,0.077641,473969,396377
1191.52,0.077692,479856,401254
1195.06,0.077386,487372,407826
1199.76,0.076179,497347,417331
1203.29,0.075655,504311,423685
1206.81,0.074708,511507,430669
1210.33,0.074195,519078,437560
1213.84,0.073234,527163,445360
1217.35,0.072260,534208,452325
1220.85,0.071463,540472,458469
1225.51,0.070549,549929,467474
1229.01,0.070000,556888,473989
1232.5,0.069276,562180,479291
1235.98,0.068706,567975,484868
1239.46,0.067522,574815,492046
1242.94,0.066865,582782,499622
1246.41,0.066072,591476,508002
1251.03,0.066064,604016,518782
1254.5,0.066152,612289,525781
1257.96,0.066897,619125,530740
1261.41,0.067358,624551,534823
1264.86,0.067919,629900,538707
1268.31,0.068272,634345,542068
1271.75,0.069145,638574,544586
1276.33,0.069645,642499,547303
1279.76,0.069116,645905,550874
1283.19,0.068748,648307,553392
1286.61,0.068401,650446,555661
1290.03,0.068014,652132,557599
1293.44,0.067444,653907,559850
1296.85,0.067201,655963,561925
1301.39,0.067016,657349,563352
1304.8,0.067153,657558,563354
1308.19,0.067419,658515,563828
1311.58,0.067348,658804,564168
1314.97,0.068106,659011,563361
1318.36,0.068753,658272,561891
1321.73,0.069018,658022,561336
1326.23,0.069461,657870,560633
1329.6,0.070867,656482,557642
1332.97,0.071464,654926,555557
1336.33,0.072688,653727,552979
1339.69,0.074619,652497,549490
1343.04,0.076345,649913,545143
1346.39,0.078202,647671,540944
1349.73,0.080763,645338,535826
1354.18,0.083642,641175,528852
1357.52,0.086479,638376,523115
1360.85,0.088263,635805,518873
1364.17,0.090824,633413,513881
1367.49,0.092830,631026,509586
1370.81,0.095238,628050,504378
1374.12,0.097499,625034,499350
1378.54,0.101313,620272,491212
1381.84,0.104560,616892,484897
1385.14,0.108401,613613,478072
1388.43,0.112409,611526,472069
1391.72,0.117356,610663,466064
1395.01,0.122105,610634,460974
1398.29,0.127241,611700,456349
1402.66,0.134722,614051,450280
1405.93,0.140727,616268,445700
1409.2,0.146144,617795,441266
1412.46,0.150715,618872,437407
1415.72,0.155291,619795,433468
1418.98,0.159100,620495,430168
1422.23,0.162987,621087,426742
1426.56,0.167308,621375,422713
1429.8,0.169926,621616,420336
1433.04,0.172706,622129,417998
1436.27,0.175365,621526,415044
1439.5,0.177289,621113,412935
1442.72,0.179474,620921,410736
1445.94,0.182625,620270,407339
1450.23,0.186046,618860,403224
1453.44,0.188946,617697,399788
1456.64,0.192047,616264,396022
1459.85,0.194567,614413,392549
1463.04,0.197810,612307,388293
1466.24,0.201336,610032,383722
1469.43,0.204761,607345,379031
1473.67,0.211167,603789,371294
1476.85,0.216881,601175,364855
1480.02,0.223203,597737,357526
1483.19,0.229784,594479,350229
1486.36,0.236150,591232,343248
1489.52,0.241556,587853,337064
1492.68,0.245017,583875,332126
1496.89,0.247526,578062,326925
1500.03,0.248395,574159,324069
1503.18,0.248107,570285,322096
1506.32,0.247640,565444,319705
1509.45,0.245859,560571,318252
1512.58,0.244195,555821,316767
1515.71,0.242019,550344,315221
1519.87,0.238889,543983,313831
1522.99,0.235681,538764,313125
1526.1,0.233190,533692,311961
1529.21,0.229930,527902,310902
1532.32,0.226755,521886,309614
1535.42,0.224229,515888,307841
1538.51,0.220823,509987,306716
1541.6,0.217721,503936,305249
1545.72,0.212732,494694,303113
1548.8,0.210089,488378,301070
1551.88,0.207425,481832,298862
1554.95,0.205417,474989,295983
1558.02,0.203679,467818,292683
1561.08,0.202230,460730,289212
1564.15,0.201466,454170,285596
1568.22,0.200565,444181,279895
1571.27,0.199540,436947,275987
1574.32,0.198378,429598,272072
1577.36,0.197150,422039,268042
1580.4,0.195791,414375,263999
1583.43,0.193923,406354,260005
1586.46,0.192662,398475,255705
1590.49,0.191011,388982,250564
1593.51,0.188145,380708,246858
1596.53,0.184995,372727,243442
1599.54,0.182890,365060,239593
1602.55,0.181395,357543,235469
1605.55,0.178794,349495,231551
1608.55,0.177003,341154,226959
1612.54,0.175147,330877,221065
1615.53,0.172874,322904,216870
1618.51,0.171727,315116,212199
1621.49,0.171160,307217,207150
1624.47,0.169166,299481,202863
1627.44,0.169053,292112,197923
1630.41,0.167232,284245,193402
1634.36,0.164469,274079,187675
1637.32,0.164993,266916,182550
1640.27,0.163420,259612,178199
1643.22,0.163187,251804,172932
1646.16,0.162436,244348,168102
1649.1,0.161502,236703,163193
1652.04,0.159587,228171,158006
1655.95,0.156364,215408,150279
1658.88,0.153641,204937,143873
1661.8,0.149104,193395,137196
1664.72,0.143404,179728,129185
1667.63,0.133947,163642,120212
1670.54,0.121022,146312,110728
1673.44,0.106260,128451,100572
1677.31,0.090001,105080,85412
1680.21,0.082484,88906,73527
1683.1,0.078963,75033,62559
1685.99,0.084974,63520,52232
1688.87,0.087524,53714,43910
1691.75,0.087504,45653,37322
1694.62,0.098280,39137,31211
1697.49,0.094982,33776,27141
1701.31,0.110055,28175,21868