Folder: textile_sorting_NIRSCAN_/samples/wool/wool-000811 (part 85)

File: Column 1_050576_20150331_121226.csv
Method:,Column 1,,
Host Date-Time:,31/3/15 @ 12:12:26,,
Header Version:,1,,
System Temp (C):,33.83,,
Detector Temp (C):,34.67,,
Humidity (%):,2.54,,
Lamp PD:,3818,,
Shift Vector Coefficients:,-10.5391,0.0761263,-0.000134223,,
Pixel to Wavelength Coefficients:,1775.68,-0.916766,-0.000235065,,
Serial Number:,5510004,,
Scan Config Name:,Column 1,,
Scan Config Type:,Slew,,
Section 1,,
Start wavelength (nm):,900,,
End wavelength (nm):,1700,,
Pattern Pixel Width (nm):,   7.03,,,,
Exposure (ms):,  0.635,,,,
Digital Resolution:,228,,
Num Repeats:,6,,
PGA Gain:,64,,
Total Measurement Time in sec:,  2.682,,
Wavelength (nm),Absorbance (AU),Reference Signal (unitless),Sample Signal (unitless)
901.51,0.071690,108485,91977
905.376,0.079630,121306,100984
909.237,0.078629,131909,110064
913.095,0.081935,143299,118661
916.948,0.082492,156982,129825
922.079,0.083002,179937,148634
925.923,0.083748,200504,165339
929.762,0.085823,222660,182734
933.597,0.085031,244426,200963
937.427,0.083295,263972,217903
941.254,0.084098,281845,232227
945.076,0.082511,297271,245834
950.165,0.082402,315605,261061
953.978,0.081118,328029,272141
957.786,0.081488,340470,282222
961.59,0.081200,352317,292236
965.389,0.081096,363056,301216
969.185,0.081593,373162,309246
972.976,0.081619,382632,317075
976.763,0.082387,391202,323604
981.806,0.082251,400190,331143
985.583,0.083531,406088,335034
989.355,0.084374,410162,337739
993.124,0.084187,412868,340114
996.888,0.084749,414263,340822
1000.65,0.085804,415476,340990
1004.4,0.087057,415479,340010
1009.41,0.087936,414358,338407
1013.15,0.088055,412923,337143
1016.89,0.088261,411526,335843
1020.63,0.088290,409066,333813
1024.36,0.088862,406777,331508
1028.09,0.088109,404427,330165
1031.82,0.088492,401911,327822
1036.78,0.088194,398410,325189
1040.49,0.088132,396204,323435
1044.2,0.087961,394236,321955
1047.91,0.087944,392042,320176
1051.61,0.087222,389823,318893
1055.31,0.087225,388234,317591
1059,0.086514,387599,317591
1063.92,0.085893,386688,317298
1067.61,0.084718,386598,318084
1071.29,0.084688,387377,318747
1074.96,0.084340,388536,319957
1078.63,0.084117,389855,321208
1082.3,0.082709,391215,323375
1085.96,0.082231,393215,325386
1090.84,0.081148,396270,328733
1094.49,0.080724,398760,331122
1098.14,0.080501,400987,333142
1101.79,0.079443,403477,336028
1105.43,0.079511,406116,338173
1109.06,0.078703,407701,340125
1112.7,0.078367,409859,342190
1117.53,0.078336,412494,344415
1121.15,0.079269,414909,345688
1124.77,0.078695,416559,347521
1128.38,0.079670,418532,348384
1131.99,0.080858,419956,348615
1135.6,0.082331,421946,349081
1139.2,0.084154,423881,349213
1143.99,0.085993,426786,350120
1147.58,0.087061,428617,350759
1151.17,0.088312,431169,351832
1154.75,0.088694,433579,353488
1158.33,0.090216,436264,354432
1161.91,0.092379,439132,354990
1165.48,0.094661,442389,355749
1169.04,0.096749,446101,357013
1173.79,0.099620,451929,359294
1177.34,0.101537,456026,360955
1180.9,0.104248,461306,362862
1184.44,0.105839,467657,366512
1187.99,0.106368,473969,371007
1191.52,0.106539,479856,375467
1195.06,0.106581,487372,381311
1199.76,0.105489,497347,390095
1203.29,0.104969,504311,396031
1206.81,0.104596,511507,402027
1210.33,0.103716,519078,408805
1213.84,0.103421,527163,415455
1217.35,0.103113,534208,421306
1220.85,0.102410,540472,426936
1225.51,0.101547,549929,435271
1229.01,0.101024,556888,441310
1232.5,0.100345,562180,446201
1235.98,0.100363,567975,450782
1239.46,0.098516,574815,458155
1242.94,0.097650,582782,465432
1246.41,0.097322,591476,472732
1251.03,0.097247,604016,482838
1254.5,0.097552,612289,489108
1257.96,0.098283,619125,493737
1261.41,0.098446,624551,497877
1264.86,0.099011,629900,501488
1268.31,0.099330,634345,504656
1271.75,0.100180,638574,507027
1276.33,0.100321,642499,509978
1279.76,0.100647,645905,512297
1283.19,0.099879,648307,515112
1286.61,0.099157,650446,517671
1290.03,0.099156,652132,519014
1293.44,0.098812,653907,520840
1296.85,0.098416,655963,522954
1301.39,0.097895,657349,524688
1304.8,0.098369,657558,524282
1308.19,0.098777,658515,524552
1311.58,0.098740,658804,524827
1314.97,0.099503,659011,524070
1318.36,0.099601,658272,523365
1321.73,0.100011,658022,522672
1326.23,0.100987,657870,521379
1329.6,0.102060,656482,518994
1332.97,0.103100,654926,516526
1336.33,0.104651,653727,513743
1339.69,0.105956,652497,511237
1343.04,0.108062,649913,506749
1346.39,0.109652,647671,503156
1349.73,0.111988,645338,498654
1354.18,0.114824,641175,492212
1357.52,0.116903,638376,487723
1360.85,0.118584,635805,483883
1364.17,0.120796,633413,479613
1367.49,0.123222,631026,475144
1370.81,0.125454,628050,470479
1374.12,0.127483,625034,466037
1378.54,0.131043,620272,458711
1381.84,0.134913,616892,452164
1385.14,0.138339,613613,446227
1388.43,0.142833,611526,440131
1391.72,0.147696,610663,434616
1395.01,0.152794,610634,429524
1398.29,0.158798,611700,424366
1402.66,0.166873,614051,418149
1405.93,0.172870,616268,413904
1409.2,0.178414,617795,409666
1412.46,0.183848,618872,405278
1415.72,0.189096,619795,401007
1418.98,0.193045,620495,397826
1422.23,0.197082,621087,394521
1426.56,0.201354,621375,390841
1429.8,0.204291,621616,388357
1433.04,0.207240,622129,386047
1436.27,0.209543,621526,383633
1439.5,0.211796,621113,381395
1442.72,0.213851,620921,379477
1445.94,0.216523,620270,376754
1450.23,0.219497,618860,373332
1453.44,0.222088,617697,370414
1456.64,0.224954,616264,367124
1459.85,0.227016,614413,364288
1463.04,0.229918,612307,360621
1466.24,0.232495,610032,357156
1469.43,0.235218,607345,353360
1473.67,0.240318,603789,347190
1476.85,0.243982,601175,342783
1480.02,0.249223,597737,336734
1483.19,0.254647,594479,330742
1486.36,0.259219,591232,325491
1489.52,0.262810,587853,320966
1492.68,0.266325,583875,316224
1496.89,0.267465,578062,312255
1500.03,0.267969,574159,309787
1503.18,0.268161,570285,307561
1506.32,0.267073,565444,305715
1509.45,0.266410,560571,303543
1512.58,0.264467,555821,302321
1515.71,0.262706,550344,300558
1519.87,0.259387,543983,299363
1522.99,0.257095,538764,298060
1526.1,0.255442,533692,296380
1529.21,0.251664,527902,295726
1532.32,0.249392,521886,293889
1535.42,0.246474,515888,292470
1538.51,0.244373,509987,290527
1541.6,0.240580,503936,289598
1545.72,0.237033,494694,286618
1548.8,0.234231,488378,284790
1551.88,0.231836,481832,282527
1554.95,0.229425,474989,280065
1558.02,0.228584,467818,276371
1561.08,0.226445,460730,273528
1564.15,0.225871,454170,269990
1568.22,0.224119,444181,265119
1571.27,0.224279,436947,260705
1574.32,0.222496,429598,257375
1577.36,0.221572,422039,253385
1580.4,0.219791,414375,249806
1583.43,0.218356,406354,245781
1586.46,0.217141,398475,241691
1590.49,0.215183,388982,236999
1593.51,0.212326,380708,233489
1596.53,0.211053,372727,229265
1599.54,0.208948,365060,225640
1602.55,0.207437,357543,221764
1605.55,0.205218,349495,217883
1608.55,0.203262,341154,213643
1612.54,0.201155,330877,208215
1615.53,0.198401,322904,204490
1618.51,0.197745,315116,199860
1621.49,0.197163,307217,195111
1624.47,0.195994,299481,190711
1627.44,0.195145,292112,186382
1630.41,0.194202,284245,181757
1634.36,0.192089,274079,176111
1637.32,0.191114,266916,171894
1640.27,0.190860,259612,167288
1643.22,0.189897,251804,162617
1646.16,0.189052,244348,158109
1649.1,0.187957,236703,153549
1652.04,0.186572,228171,148487
1655.95,0.183258,215408,141255
1658.88,0.179396,204937,135589
1661.8,0.173509,193395,129699
1664.72,0.167101,179728,122325
1667.63,0.154562,163642,114639
1670.54,0.141945,146312,105520
1673.44,0.124629,128451,96407
1677.31,0.104356,105080,82635
1680.21,0.095458,88906,71363
1683.1,0.088806,75033,61157
1685.99,0.091382,63520,51467
1688.87,0.097772,53714,42886
1691.75,0.100581,45653,36215
1694.62,0.110271,39137,30361
1697.49,0.107284,33776,26383
1701.31,0.128949,28175,20937

File: Column 1_050577_20150331_121234.csv
Method:,Column 1,,
Host Date-Time:,31/3/15 @ 12:12:34,,
Header Version:,1,,
System Temp (C):,33.83,,
Detector Temp (C):,34.62,,
Humidity (%):,2.39,,
Lamp PD:,3819,,
Shift Vector Coefficients:,-10.5391,0.0761263,-0.000134223,,
Pixel to Wavelength Coefficients:,1775.68,-0.916766,-0.000235065,,
Serial Number:,5510004,,
Scan Config Name:,Column 1,,
Scan Config Type:,Slew,,
Section 1,,
Start wavelength (nm):,900,,
End wavelength (nm):,1700,,
Pattern Pixel Width (nm):,   7.03,,,,
Exposure (ms):,  0.635,,,,
Digital Resolution:,228,,
Num Repeats:,6,,
PGA Gain:,64,,
Total Measurement Time in sec:,  2.672,,
Wavelength (nm),Absorbance (AU),Reference Signal (unitless),Sample Signal (unitless)
901.51,0.070931,108485,92138
905.376,0.077999,121306,101364
909.237,0.078302,131909,110147
913.095,0.080813,143299,118968
916.948,0.080779,156982,130338
922.079,0.082862,179937,148682
925.923,0.083774,200504,165329
929.762,0.084575,222660,183260
933.597,0.085222,244426,200875
937.427,0.084073,263972,217513
941.254,0.082968,281845,232832
945.076,0.082007,297271,246119
950.165,0.081592,315605,261548
953.978,0.080712,328029,272396
957.786,0.080941,340470,282578
961.59,0.081414,352317,292092
965.389,0.081609,363056,300860
969.185,0.081224,373162,309509
972.976,0.081976,382632,316815
976.763,0.082297,391202,323671
981.806,0.083160,400190,330450
985.583,0.083517,406088,335045
989.355,0.084154,410162,337910
993.124,0.084340,412868,339994
996.888,0.084757,414263,340815
1000.65,0.085243,415476,341431
1004.4,0.086868,415479,340158
1009.41,0.087717,414358,338578
1013.15,0.087979,412923,337202
1016.89,0.088557,411526,335614
1020.63,0.088423,409066,333711
1024.36,0.088764,406777,331583
1028.09,0.088666,404427,329742
1031.82,0.087765,401911,328371
1036.78,0.088827,398410,324716
1040.49,0.087684,396204,323769
1044.2,0.087832,394236,322051
1047.91,0.087384,392042,320589
1051.61,0.086892,389823,319136
1055.31,0.087048,388234,317721
1059,0.086633,387599,317504
1063.92,0.085781,386688,317380
1067.61,0.084983,386598,317890
1071.29,0.084283,387377,319044
1074.96,0.084413,388536,319903
1078.63,0.082938,389855,322081
1082.3,0.081762,391215,324081
1085.96,0.081827,393215,325689
1090.84,0.080706,396270,329068
1094.49,0.080983,398760,330924
1098.14,0.080106,400987,333445
1101.79,0.079412,403477,336052
1105.43,0.079004,406116,338568
1109.06,0.078253,407701,340478
1112.7,0.078697,409859,341930
1117.53,0.078325,412494,344423
1121.15,0.078758,414909,346095
1124.77,0.078705,416559,347513
1128.38,0.079660,418532,348392
1131.99,0.080468,419956,348928
1135.6,0.082215,421946,349174
1139.2,0.083651,423881,349617
1143.99,0.085769,426786,350301
1147.58,0.086353,428617,351331
1151.17,0.087488,431169,352500
1154.75,0.088652,433579,353522
1158.33,0.090388,436264,354292
1161.91,0.092330,439132,355030
1165.48,0.093935,442389,356344
1169.04,0.096154,446101,357503
1173.79,0.099887,451929,359073
1177.34,0.101705,456026,360815
1180.9,0.103730,461306,363295
1184.44,0.105894,467657,366466
1187.99,0.106545,473969,370856
1191.52,0.106643,479856,375377
1195.06,0.105655,487372,382125
1199.76,0.105652,497347,389949
1203.29,0.105325,504311,395707
1206.81,0.104629,511507,401997
1210.33,0.103763,519078,408761
1213.84,0.103198,527163,415668
1217.35,0.102468,534208,421932
1220.85,0.101915,540472,427423
1225.51,0.101185,549929,435634
1229.01,0.100966,556888,441369
1232.5,0.100367,562180,446178
1235.98,0.099971,567975,451189
1239.46,0.098537,574815,458132
1242.94,0.097336,582782,465769
1246.41,0.097262,591476,472797
1251.03,0.097209,604016,482880
1254.5,0.097182,612289,489524
1257.96,0.097785,619125,494303
1261.41,0.098047,624551,498334
1264.86,0.098648,629900,501907
1268.31,0.099162,634345,504851
1271.75,0.099616,638574,507686
1276.33,0.099779,642499,510615
1279.76,0.100072,645905,512976
1283.19,0.099398,648307,515683
1286.61,0.099033,650446,517819
1290.03,0.098872,652132,519354
1293.44,0.098325,653907,521424
1296.85,0.098692,655963,522622
1301.39,0.098133,657349,524400
1304.8,0.098336,657558,524322
1308.19,0.098397,658515,525011
1311.58,0.099934,658804,523386
1314.97,0.099093,659011,524565
1318.36,0.099548,658272,523428
1321.73,0.100194,658022,522452
1326.23,0.101102,657870,521240
1329.6,0.102112,656482,518933
1332.97,0.102859,654926,516813
1336.33,0.104010,653727,514501
1339.69,0.105739,652497,511493
1343.04,0.107680,649913,507195
1346.39,0.109592,647671,503225
1349.73,0.111735,645338,498945
1354.18,0.114511,641175,492567
1357.52,0.116318,638376,488381
1360.85,0.118764,635805,483682
1364.17,0.120652,633413,479772
1367.49,0.123062,631026,475319
1370.81,0.125069,628050,470896
1374.12,0.127373,625034,466155
1378.54,0.130374,620272,459418
1381.84,0.134215,616892,452891
1385.14,0.138289,613613,446278
1388.43,0.142594,611526,440373
1391.72,0.147300,610663,435012
1395.01,0.152664,610634,429652
1398.29,0.158226,611700,424925
1402.66,0.166243,614051,418756
1405.93,0.171844,616268,414883
1409.2,0.178487,617795,409598
1412.46,0.183487,618872,405615
1415.72,0.188459,619795,401596
1418.98,0.192559,620495,398272
1422.23,0.196675,621087,394891
1426.56,0.200793,621375,391346
1429.8,0.203908,621616,388700
1433.04,0.206376,622129,386816
1436.27,0.209264,621526,383880
1439.5,0.210604,621113,382443
1442.72,0.213341,620921,379923
1445.94,0.215509,620270,377635
1450.23,0.219315,618860,373489
1453.44,0.222283,617697,370248
1456.64,0.224019,616264,367915
1459.85,0.226556,614413,364674
1463.04,0.228713,612307,361623
1466.24,0.231802,610032,357726
1469.43,0.234597,607345,353866
1473.67,0.239361,603789,347956
1476.85,0.244439,601175,342422
1480.02,0.248781,597737,337077
1483.19,0.254215,594479,331071
1486.36,0.258556,591232,325988
1489.52,0.262681,587853,321061
1492.68,0.265355,583875,316931
1496.89,0.267072,578062,312538
1500.03,0.267935,574159,309811
1503.18,0.267781,570285,307830
1506.32,0.266643,565444,306018
1509.45,0.265567,560571,304133
1512.58,0.264474,555821,302316
1515.71,0.262013,550344,301038
1519.87,0.259545,543983,299254
1522.99,0.257061,538764,298083
1526.1,0.254796,533692,296821
1529.21,0.252369,527902,295246
1532.32,0.248715,521886,294348
1535.42,0.246096,515888,292725
1538.51,0.242712,509987,291640
1541.6,0.239983,503936,289996
1545.72,0.236464,494694,286994
1548.8,0.233882,488378,285019
1551.88,0.230634,481832,283310
1554.95,0.228636,474989,280574
1558.02,0.227411,467818,277119
1561.08,0.226149,460730,273714
1564.15,0.224666,454170,270740
1568.22,0.223882,444181,265264
1571.27,0.223185,436947,261363
1574.32,0.222813,429598,257187
1577.36,0.221344,422039,253518
1580.4,0.220010,414375,249680
1583.43,0.217913,406354,246032
1586.46,0.216672,398475,241952
1590.49,0.214866,388982,237172
1593.51,0.212186,380708,233564
1596.53,0.209893,372727,229878
1599.54,0.209260,365060,225478
1602.55,0.205895,357543,222553
1605.55,0.205381,349495,217801
1608.55,0.202853,341154,213844
1612.54,0.200715,330877,208426
1615.53,0.198884,322904,204263
1618.51,0.196588,315116,200393
1621.49,0.196543,307217,195390
1624.47,0.195113,299481,191098
1627.44,0.194154,292112,186808
1630.41,0.192785,284245,182351
1634.36,0.190863,274079,176609
1637.32,0.190563,266916,172112
1640.27,0.190733,259612,167337
1643.22,0.189110,251804,162912
1646.16,0.188303,244348,158382
1649.1,0.187211,236703,153813
1652.04,0.185923,228171,148709
1655.95,0.182687,215408,141441
1658.88,0.179700,204937,135494
1661.8,0.174310,193395,129460
1664.72,0.165573,179728,122756
1667.63,0.154828,163642,114569
1670.54,0.140019,146312,105989
1673.44,0.125066,128451,96310
1677.31,0.105767,105080,82367
1680.21,0.093339,88906,71712
1683.1,0.088075,75033,61260
1685.99,0.090657,63520,51553
1688.87,0.095087,53714,43152
1691.75,0.100797,45653,36197
1694.62,0.101058,39137,31012
1697.49,0.103841,33776,26593
1701.31,0.108746,28175,21934

File: Column 1_050577_20150331_121243.csv
Method:,Column 1,,
Host Date-Time:,31/3/15 @ 12:12:43,,
Header Version:,1,,
System Temp (C):,33.82,,
Detector Temp (C):,34.64,,
Humidity (%):,2.25,,
Lamp PD:,3819,,
Shift Vector Coefficients:,-10.5391,0.0761263,-0.000134223,,
Pixel to Wavelength Coefficients:,1775.68,-0.916766,-0.000235065,,
Serial Number:,5510004,,
Scan Config Name:,Column 1,,
Scan Config Type:,Slew,,
Section 1,,
Start wavelength (nm):,900,,
End wavelength (nm):,1700,,
Pattern Pixel Width (nm):,   7.03,,,,
Exposure (ms):,  0.635,,,,
Digital Resolution:,228,,
Num Repeats:,6,,
PGA Gain:,64,,
Total Measurement Time in sec:,  2.721,,
Wavelength (nm),Absorbance (AU),Reference Signal (unitless),Sample Signal (unitless)
901.51,0.072607,108485,91783
905.376,0.077142,121306,101564
909.237,0.080587,131909,109569
913.095,0.080890,143299,118947
916.948,0.081736,156982,130051
922.079,0.084433,179937,148145
925.923,0.083937,200504,165267
929.762,0.084691,222660,183211
933.597,0.083920,244426,201478
937.427,0.083574,263972,217763
941.254,0.083068,281845,232778
945.076,0.082064,297271,246087
950.165,0.082132,315605,261223
953.978,0.080874,328029,272294
957.786,0.081051,340470,282506
961.59,0.081954,352317,291729
965.389,0.081237,363056,301118
969.185,0.081550,373162,309277
972.976,0.082018,382632,316784
976.763,0.081987,391202,323902
981.806,0.082745,400190,330766
985.583,0.083744,406088,334870
989.355,0.083859,410162,338140
993.124,0.084592,412868,339797
996.888,0.084517,414263,341004
1000.65,0.085893,415476,340920
1004.4,0.086406,415479,340520
1009.41,0.088146,414358,338244
1013.15,0.088072,412923,337130
1016.89,0.089048,411526,335235
1020.63,0.089061,409066,333221
1024.36,0.088784,406777,331568
1028.09,0.088537,404427,329840
1031.82,0.087810,401911,328337
1036.78,0.088256,398410,325143
1040.49,0.087820,396204,323667
1044.2,0.087695,394236,322152
1047.91,0.087193,392042,320730
1051.61,0.087099,389823,318984
1055.31,0.086608,388234,318043
1059,0.086435,387599,317649
1063.92,0.085529,386688,317564
1067.61,0.085214,386598,317721
1071.29,0.085365,387377,318250
1074.96,0.084580,388536,319780
1078.63,0.082888,389855,322118
1082.3,0.082292,391215,323686
1085.96,0.081926,393215,325615
1090.84,0.081206,396270,328689
1094.49,0.080902,398760,330986
1098.14,0.079941,400987,333572
1101.79,0.079917,403477,335662
1105.43,0.078972,406116,338593
1109.06,0.078482,407701,340298
1112.7,0.078417,409859,342151
1117.53,0.078294,412494,344448
1121.15,0.078187,414909,346550
1124.77,0.078668,416559,347543
1128.38,0.079894,418532,348205
1131.99,0.080356,419956,349018
1135.6,0.082193,421946,349192
1139.2,0.083948,423881,349378
1143.99,0.085625,426786,350417
1147.58,0.086364,428617,351322
1151.17,0.087661,431169,352360
1154.75,0.088728,433579,353460
1158.33,0.090280,436264,354380
1161.91,0.092362,439132,355004
1165.48,0.094725,442389,355696
1169.04,0.096360,446101,357333
1173.79,0.100120,451929,358881
1177.34,0.101801,456026,360735
1180.9,0.103860,461306,363186
1184.44,0.105843,467657,366509
1187.99,0.106561,473969,370842
1191.52,0.106661,479856,375362
1195.06,0.106617,487372,381280
1199.76,0.105795,497347,389820
1203.29,0.104885,504311,396108
1206.81,0.104431,511507,402180
1210.33,0.103814,519078,408713
1213.84,0.103530,527163,415351
1217.35,0.103166,534208,421254
1220.85,0.102219,540472,427124
1225.51,0.101735,549929,435083
1229.01,0.101138,556888,441194
1232.5,0.100442,562180,446101
1235.98,0.099830,567975,451335
1239.46,0.098569,574815,458099
1242.94,0.097623,582782,465461
1246.41,0.097069,591476,473008
1251.03,0.096896,604016,483228
1254.5,0.097064,612289,489657
1257.96,0.097658,619125,494448
1261.41,0.098084,624551,498292
1264.86,0.098870,629900,501651
1268.31,0.099033,634345,505001
1271.75,0.099621,638574,507680
1276.33,0.100011,642499,510342
1279.76,0.100050,645905,513001
1283.19,0.099751,648307,515264
1286.61,0.099081,650446,517762
1290.03,0.098442,652132,519868
1293.44,0.098081,653907,521717
1296.85,0.097959,655963,523504
1301.39,0.098028,657349,524527
1304.8,0.098139,657558,524560
1308.19,0.098268,658515,525167
1311.58,0.098255,658804,525414
1314.97,0.098921,659011,524773
1318.36,0.099503,658272,523483
1321.73,0.100115,658022,522547
1326.23,0.100612,657870,521829
1329.6,0.101881,656482,519208
1332.97,0.103056,654926,516578
1336.33,0.104128,653727,514362
1339.69,0.106018,652497,511164
1343.04,0.107734,649913,507132
1346.39,0.109754,647671,503038
1349.73,0.111634,645338,499061
1354.18,0.114532,641175,492543
1357.52,0.116642,638376,488016
1360.85,0.118819,635805,483621
1364.17,0.120724,633413,479693
1367.49,0.122884,631026,475514
1370.81,0.124996,628050,470975
1374.12,0.127020,625034,466534
1378.54,0.130692,620272,459082
1381.84,0.133999,616892,453117
1385.14,0.137977,613613,446599
1388.43,0.142313,611526,440658
1391.72,0.147529,610663,434783
1395.01,0.152892,610634,429427
1398.29,0.158386,611700,424769
1402.66,0.166109,614051,418886
1405.93,0.171866,616268,414862
1409.2,0.177774,617795,410271
1412.46,0.183563,618872,405544
1415.72,0.188038,619795,401985
1418.98,0.192114,620495,398680
1422.23,0.196305,621087,395228
1426.56,0.200683,621375,391445
1429.8,0.203400,621616,389155
1433.04,0.205584,622129,387522
1436.27,0.208395,621526,384649
1439.5,0.210388,621113,382633
1442.72,0.212746,620921,380444
1445.94,0.215446,620270,377689
1450.23,0.218968,618860,373787
1453.44,0.220653,617697,371640
1456.64,0.224095,616264,367851
1459.85,0.226427,614413,364782
1463.04,0.228879,612307,361485
1466.24,0.231015,610032,358375
1469.43,0.235020,607345,353521
1473.67,0.239362,603789,347955
1476.85,0.244053,601175,342727
1480.02,0.248283,597737,337464
1483.19,0.253830,594479,331365
1486.36,0.258756,591232,325838
1489.52,0.263052,587853,320787
1492.68,0.265344,583875,316939
1496.89,0.267689,578062,312094
1500.03,0.267428,574159,310173
1503.18,0.268010,570285,307668
1506.32,0.266654,565444,306010
1509.45,0.264747,560571,304708
1512.58,0.263482,555821,303007
1515.71,0.261230,550344,301581
1519.87,0.258886,543983,299709
1522.99,0.256360,538764,298565
1526.1,0.255190,533692,296552
1529.21,0.251380,527902,295919
1532.32,0.248257,521886,294658
1535.42,0.245992,515888,292795
1538.51,0.242646,509987,291684
1541.6,0.240052,503936,289950
1545.72,0.236220,494694,287155
1548.8,0.232546,488378,285897
1551.88,0.230651,481832,283299
1554.95,0.228737,474989,280509
1558.02,0.226881,467818,277457
1561.08,0.225509,460730,274118
1564.15,0.225204,454170,270405
1568.22,0.223146,444181,265714
1571.27,0.223259,436947,261318
1574.32,0.222172,429598,257567
1577.36,0.221241,422039,253578
1580.4,0.219330,414375,250071
1583.43,0.217796,406354,246098
1586.46,0.216613,398475,241985
1590.49,0.214330,388982,237465
1593.51,0.212610,380708,233336
1596.53,0.209954,372727,229846
1599.54,0.208681,365060,225779
1602.55,0.205520,357543,222745
1605.55,0.203320,349495,218837
1608.55,0.202099,341154,214216
1612.54,0.200186,330877,208680
1615.53,0.198488,322904,204449
1618.51,0.196683,315116,200349
1621.49,0.196681,307217,195328
1624.47,0.194511,299481,191363
1627.44,0.193933,292112,186903
1630.41,0.192778,284245,182354
1634.36,0.192104,274079,176105
1637.32,0.191311,266916,171816
1640.27,0.189491,259612,167816
1643.22,0.188931,251804,162979
1646.16,0.188240,244348,158405
1649.1,0.188081,236703,153505
1652.04,0.186341,228171,148566
1655.95,0.183566,215408,141155
1658.88,0.178797,204937,135776
1661.8,0.174243,193395,129480
1664.72,0.165619,179728,122743
1667.63,0.152940,163642,115068
1670.54,0.139724,146312,106061
1673.44,0.125287,128451,96261
1677.31,0.105071,105080,82499
1680.21,0.094510,88906,71519
1683.1,0.087063,75033,61403
1685.99,0.089269,63520,51718
1688.87,0.094523,53714,43208
1691.75,0.099216,45653,36329
1694.62,0.104672,39137,30755
1697.49,0.110738,33776,26174
1701.31,0.114928,28175,21624