Folder: textile_sorting_NIRSCAN_/samples/wool/wool-000811 (part 122)

File: Column 1_050599_20150331_122321.csv
Method:,Column 1,,
Host Date-Time:,31/3/15 @ 12:23:21,,
Header Version:,1,,
System Temp (C):,34.02,,
Detector Temp (C):,34.75,,
Humidity (%):,1.76,,
Lamp PD:,3818,,
Shift Vector Coefficients:,-10.5391,0.0761263,-0.000134223,,
Pixel to Wavelength Coefficients:,1775.68,-0.916766,-0.000235065,,
Serial Number:,5510004,,
Scan Config Name:,Column 1,,
Scan Config Type:,Slew,,
Section 1,,
Start wavelength (nm):,900,,
End wavelength (nm):,1700,,
Pattern Pixel Width (nm):,   7.03,,,,
Exposure (ms):,  0.635,,,,
Digital Resolution:,228,,
Num Repeats:,6,,
PGA Gain:,64,,
Total Measurement Time in sec:,  2.735,,
Wavelength (nm),Absorbance (AU),Reference Signal (unitless),Sample Signal (unitless)
901.51,0.069374,108485,92469
905.376,0.075717,121306,101898
909.237,0.077679,131909,110305
913.095,0.077442,143299,119895
916.948,0.078413,156982,131050
922.079,0.080517,179937,149487
925.923,0.083010,200504,165620
929.762,0.082176,222660,184275
933.597,0.083151,244426,201835
937.427,0.082431,263972,218337
941.254,0.080976,281845,233902
945.076,0.080531,297271,246957
950.165,0.078632,315605,263337
953.978,0.078165,328029,273998
957.786,0.078999,340470,283844
961.59,0.078821,352317,293841
965.389,0.078391,363056,303098
969.185,0.079330,373162,310862
972.976,0.078674,382632,319233
976.763,0.079526,391202,325743
981.806,0.079215,400190,333466
985.583,0.080035,406088,337742
989.355,0.080480,410162,340781
993.124,0.081582,412868,342160
996.888,0.081526,414263,343360
1000.65,0.082303,415476,343750
1004.4,0.083627,415479,342706
1009.41,0.084317,414358,341239
1013.15,0.084690,412923,339765
1016.89,0.086246,411526,337405
1020.63,0.085709,409066,335803
1024.36,0.085968,406777,333725
1028.09,0.085524,404427,332136
1031.82,0.085387,401911,330174
1036.78,0.085241,398410,327408
1040.49,0.084721,396204,325985
1044.2,0.084417,394236,324593
1047.91,0.084435,392042,322773
1051.61,0.084227,389823,321100
1055.31,0.083725,388234,320161
1059,0.082832,387599,320295
1063.92,0.082345,386688,319901
1067.61,0.081950,386598,320118
1071.29,0.081041,387377,321435
1074.96,0.080757,388536,322607
1078.63,0.080382,389855,323982
1082.3,0.079623,391215,325681
1085.96,0.078691,393215,328049
1090.84,0.077191,396270,331742
1094.49,0.076917,398760,334037
1098.14,0.076988,400987,335848
1101.79,0.076322,403477,338452
1105.43,0.076667,406116,340395
1109.06,0.075450,407701,342682
1112.7,0.074742,409859,345058
1117.53,0.074420,412494,347534
1121.15,0.075054,414909,349059
1124.77,0.075456,416559,350123
1128.38,0.076345,418532,351062
1131.99,0.077173,419956,351585
1135.6,0.078808,421946,351924
1139.2,0.079853,423881,352688
1143.99,0.082411,426786,353020
1147.58,0.082677,428617,354317
1151.17,0.084087,431169,355272
1154.75,0.084668,433579,356780
1158.33,0.086196,436264,357728
1161.91,0.087825,439132,358732
1165.48,0.089325,442389,360147
1169.04,0.092202,446101,360771
1173.79,0.095258,451929,362921
1177.34,0.097756,456026,364111
1180.9,0.099872,461306,366536
1184.44,0.101160,467657,370482
1187.99,0.102230,473969,374559
1191.52,0.102421,479856,379044
1195.06,0.102104,487372,385262
1199.76,0.101575,497347,393627
1203.29,0.100635,504311,400003
1206.81,0.100011,511507,406294
1210.33,0.099446,519078,412845
1213.84,0.099226,527163,419487
1217.35,0.098701,534208,425608
1220.85,0.097788,540472,431504
1225.51,0.097300,549929,439548
1229.01,0.096275,556888,446162
1232.5,0.096050,562180,450635
1235.98,0.095272,567975,456097
1239.46,0.094344,574815,462577
1242.94,0.093888,582782,469481
1246.41,0.092970,591476,477493
1251.03,0.092987,604016,487597
1254.5,0.093132,612289,494111
1257.96,0.093541,619125,499157
1261.41,0.094143,624551,502834
1264.86,0.094409,629900,506830
1268.31,0.095061,634345,509641
1271.75,0.095343,638574,512706
1276.33,0.095738,642499,515388
1279.76,0.096006,645905,517801
1283.19,0.094833,648307,521132
1286.61,0.094857,650446,522823
1290.03,0.094848,652132,524188
1293.44,0.094130,653907,526485
1296.85,0.093534,655963,528866
1301.39,0.093567,657349,529943
1304.8,0.093597,657558,530075
1308.19,0.094092,658515,530241
1311.58,0.093883,658804,530730
1314.97,0.094202,659011,530507
1318.36,0.094813,658272,529166
1321.73,0.094860,658022,528908
1326.23,0.095630,657870,527850
1329.6,0.096782,656482,525341
1332.97,0.097424,654926,523321
1336.33,0.098212,653727,521416
1339.69,0.100136,652497,518135
1343.04,0.101738,649913,514183
1346.39,0.103243,647671,510636
1349.73,0.105637,645338,506000
1354.18,0.108545,641175,499381
1357.52,0.110503,638376,494964
1360.85,0.112280,635805,490957
1364.17,0.114552,633413,486558
1367.49,0.116568,631026,482480
1370.81,0.118555,628050,478012
1374.12,0.120786,625034,473279
1378.54,0.124056,620272,466150
1381.84,0.127044,616892,460432
1385.14,0.130016,613613,454861
1388.43,0.133825,611526,449355
1391.72,0.137685,610663,444751
1395.01,0.142331,610634,439997
1398.29,0.147139,611700,435913
1402.66,0.153447,614051,431278
1405.93,0.158244,616268,428081
1409.2,0.163406,617795,424071
1412.46,0.167869,618872,420467
1415.72,0.172035,619795,417074
1418.98,0.175491,620495,414235
1422.23,0.179277,621087,411032
1426.56,0.182863,621375,407841
1429.8,0.184929,621616,406063
1433.04,0.187437,622129,404058
1436.27,0.190186,621526,401119
1439.5,0.192116,621113,399075
1442.72,0.193866,620921,397347
1445.94,0.197007,620270,394070
1450.23,0.199825,618860,390632
1453.44,0.203237,617697,386846
1456.64,0.206086,616264,383425
1459.85,0.208445,614413,380203
1463.04,0.211639,612307,376123
1466.24,0.214369,610032,372378
1469.43,0.218391,607345,367320
1473.67,0.223890,603789,360575
1476.85,0.229021,601175,354797
1480.02,0.235894,597737,347229
1483.19,0.242268,594479,340305
1486.36,0.247731,591232,334216
1489.52,0.252246,587853,328869
1492.68,0.255287,583875,324364
1496.89,0.257400,578062,319576
1500.03,0.258030,574159,316958
1503.18,0.258154,570285,314730
1506.32,0.257146,565444,312783
1509.45,0.256138,560571,310808
1512.58,0.253736,555821,309884
1515.71,0.251952,550344,308093
1519.87,0.249169,543983,306490
1522.99,0.245811,538764,305906
1526.1,0.243950,533692,304327
1529.21,0.240584,527902,303368
1532.32,0.237891,521886,301776
1535.42,0.235698,515888,299818
1538.51,0.232075,509987,298871
1541.6,0.229740,503936,296917
1545.72,0.225436,494694,294375
1548.8,0.222948,488378,292286
1551.88,0.221384,481832,289409
1554.95,0.218431,474989,287245
1558.02,0.217326,467818,283629
1561.08,0.214961,460730,280857
1564.15,0.215351,454170,276610
1568.22,0.213859,444181,271457
1571.27,0.213430,436947,267300
1574.32,0.213353,429598,262851
1577.36,0.210954,422039,259656
1580.4,0.209778,414375,255632
1583.43,0.208975,406354,251148
1586.46,0.207103,398475,247342
1590.49,0.205746,388982,242205
1593.51,0.203575,380708,238241
1596.53,0.201050,372727,234607
1599.54,0.199688,365060,230503
1602.55,0.197741,357543,226771
1605.55,0.195996,349495,222559
1608.55,0.192879,341154,218812
1612.54,0.191885,330877,212707
1615.53,0.190040,322904,208465
1618.51,0.188619,315116,204104
1621.49,0.189077,307217,198778
1624.47,0.186531,299481,194912
1627.44,0.185974,292112,190360
1630.41,0.184818,284245,185727
1634.36,0.183976,274079,179432
1637.32,0.182192,266916,175462
1640.27,0.182445,259612,170561
1643.22,0.182063,251804,165577
1646.16,0.180504,244348,161252
1649.1,0.179445,236703,156588
1652.04,0.178338,228171,151329
1655.95,0.175147,215408,143918
1658.88,0.170971,204937,138245
1661.8,0.166168,193395,131910
1664.72,0.159436,179728,124503
1667.63,0.146322,163642,116835
1670.54,0.132540,146312,107830
1673.44,0.117060,128451,98102
1677.31,0.098240,105080,83807
1680.21,0.086674,88906,72821
1683.1,0.079060,75033,62545
1685.99,0.080993,63520,52713
1688.87,0.078693,53714,44812
1691.75,0.084455,45653,37585
1694.62,0.095077,39137,31442
1697.49,0.092621,33776,27289
1701.31,0.103022,28175,22225

File: Column 1_050600_20150331_122327.csv
Method:,Column 1,,
Host Date-Time:,31/3/15 @ 12:23:27,,
Header Version:,1,,
System Temp (C):,33.95,,
Detector Temp (C):,34.72,,
Humidity (%):,1.76,,
Lamp PD:,3818,,
Shift Vector Coefficients:,-10.5391,0.0761263,-0.000134223,,
Pixel to Wavelength Coefficients:,1775.68,-0.916766,-0.000235065,,
Serial Number:,5510004,,
Scan Config Name:,Column 1,,
Scan Config Type:,Slew,,
Section 1,,
Start wavelength (nm):,900,,
End wavelength (nm):,1700,,
Pattern Pixel Width (nm):,   7.03,,,,
Exposure (ms):,  0.635,,,,
Digital Resolution:,228,,
Num Repeats:,6,,
PGA Gain:,64,,
Total Measurement Time in sec:,  2.725,,
Wavelength (nm),Absorbance (AU),Reference Signal (unitless),Sample Signal (unitless)
901.51,0.069660,108485,92408
905.376,0.074716,121306,102133
909.237,0.077062,131909,110462
913.095,0.077862,143299,119779
916.948,0.079242,156982,130800
922.079,0.080018,179937,149659
925.923,0.081531,200504,166185
929.762,0.082284,222660,184229
933.597,0.081969,244426,202385
937.427,0.081134,263972,218990
941.254,0.080188,281845,234327
945.076,0.079321,297271,247646
950.165,0.077978,315605,263734
953.978,0.077123,328029,274656
957.786,0.078546,340470,284140
961.59,0.078443,352317,294097
965.389,0.078014,363056,303361
969.185,0.078045,373162,311783
972.976,0.078635,382632,319261
976.763,0.078812,391202,326279
981.806,0.079228,400190,333456
985.583,0.079750,406088,337964
989.355,0.080074,410162,341100
993.124,0.081283,412868,342396
996.888,0.081041,414263,343744
1000.65,0.082464,415476,343623
1004.4,0.083762,415479,342600
1009.41,0.084503,414358,341093
1013.15,0.084469,412923,339938
1016.89,0.085753,411526,337788
1020.63,0.085375,409066,336061
1024.36,0.085150,406777,334354
1028.09,0.085532,404427,332130
1031.82,0.084937,401911,330516
1036.78,0.084846,398410,327706
1040.49,0.084169,396204,326400
1044.2,0.084654,394236,324416
1047.91,0.084220,392042,322933
1051.61,0.083973,389823,321288
1055.31,0.083542,388234,320296
1059,0.082800,387599,320319
1063.92,0.082527,386688,319767
1067.61,0.081311,386598,320589
1071.29,0.080846,387377,321579
1074.96,0.080420,388536,322858
1078.63,0.080006,389855,324263
1082.3,0.079356,391215,325881
1085.96,0.078159,393215,328451
1090.84,0.078041,396270,331093
1094.49,0.076974,398760,333993
1098.14,0.076141,400987,336503
1101.79,0.075955,403477,338738
1105.43,0.075656,406116,341188
1109.06,0.074435,407701,343484
1112.7,0.074396,409859,345333
1117.53,0.074072,412494,347813
1121.15,0.074759,414909,349296
1124.77,0.074813,416559,350642
1128.38,0.075435,418532,351798
1131.99,0.076722,419956,351951
1135.6,0.078072,421946,352521
1139.2,0.079328,423881,353115
1143.99,0.081810,426786,353509
1147.58,0.082456,428617,354498
1151.17,0.083367,431169,355861
1154.75,0.084511,433579,356909
1158.33,0.086003,436264,357887
1161.91,0.087932,439132,358644
1165.48,0.089498,442389,360003
1169.04,0.092048,446101,360899
1173.79,0.095483,451929,362733
1177.34,0.097050,456026,364703
1180.9,0.099549,461306,366809
1184.44,0.100673,467657,370898
1187.99,0.101929,473969,374818
1191.52,0.102075,479856,379346
1195.06,0.102171,487372,385203
1199.76,0.101440,497347,393749
1203.29,0.100411,504311,400210
1206.81,0.100344,511507,405983
1210.33,0.099239,519078,413041
1213.84,0.098863,527163,419838
1217.35,0.098478,534208,425826
1220.85,0.097218,540472,432071
1225.51,0.096961,549929,439892
1229.01,0.096675,556888,445752
1232.5,0.095868,562180,450824
1235.98,0.095178,567975,456196
1239.46,0.094350,574815,462571
1242.94,0.093239,582782,470183
1246.41,0.092704,591476,477786
1251.03,0.092970,604016,487617
1254.5,0.092579,612289,494741
1257.96,0.092946,619125,499842
1261.41,0.093668,624551,503385
1264.86,0.094067,629900,507230
1268.31,0.094628,634345,510149
1271.75,0.095676,638574,512313
1276.33,0.095705,642499,515427
1279.76,0.095388,645905,518538
1283.19,0.094894,648307,521059
1286.61,0.094384,650446,523392
1290.03,0.094374,652132,524761
1293.44,0.093504,653907,527245
1296.85,0.093383,655963,529050
1301.39,0.093491,657349,530036
1304.8,0.093326,657558,530406
1308.19,0.093737,658515,530675
1311.58,0.093556,658804,531129
1314.97,0.094512,659011,530128
1318.36,0.094375,658272,529700
1321.73,0.094570,658022,529262
1326.23,0.095679,657870,527790
1329.6,0.096012,656482,526273
1332.97,0.097324,654926,523441
1336.33,0.098406,653727,521183
1339.69,0.099945,652497,518363
1343.04,0.101395,649913,514589
1346.39,0.103233,647671,510648
1349.73,0.105207,645338,506501
1354.18,0.108034,641175,499968
1357.52,0.110287,638376,495210
1360.85,0.112081,635805,491183
1364.17,0.113877,633413,487315
1367.49,0.116097,631026,483004
1370.81,0.118426,628050,478154
1374.12,0.120494,625034,473598
1378.54,0.123404,620272,466851
1381.84,0.126340,616892,461179
1385.14,0.129573,613613,455325
1388.43,0.133443,611526,449751
1391.72,0.137628,610663,444809
1395.01,0.141420,610634,440921
1398.29,0.146615,611700,436439
1402.66,0.153071,614051,431652
1405.93,0.158254,616268,428071
1409.2,0.162257,617795,425194
1412.46,0.167254,618872,421063
1415.72,0.171474,619795,417613
1418.98,0.174947,620495,414755
1422.23,0.178457,621087,411809
1426.56,0.182118,621375,408541
1429.8,0.184717,621616,406261
1433.04,0.187638,622129,403871
1436.27,0.189483,621526,401769
1439.5,0.191129,621113,399983
1442.72,0.193641,620921,397553
1445.94,0.196550,620270,394485
1450.23,0.199580,618860,390852
1453.44,0.201959,617697,387986
1456.64,0.205230,616264,384182
1459.85,0.208269,614413,380357
1463.04,0.210767,612307,376879
1466.24,0.213849,610032,372824
1469.43,0.217339,607345,368211
1473.67,0.224149,603789,360360
1476.85,0.229273,601175,354591
1480.02,0.234873,597737,348046
1483.19,0.242305,594479,340276
1486.36,0.247496,591232,334397
1489.52,0.252114,587853,328969
1492.68,0.255228,583875,324408
1496.89,0.257168,578062,319747
1500.03,0.257829,574159,317105
1503.18,0.257502,570285,315203
1506.32,0.256299,565444,313394
1509.45,0.255219,560571,311467
1512.58,0.253051,555821,310373
1515.71,0.251914,550344,308120
1519.87,0.248887,543983,306689
1522.99,0.245613,538764,306045
1526.1,0.243730,533692,304481
1529.21,0.240797,527902,303219
1532.32,0.237412,521886,302109
1535.42,0.235078,515888,300246
1538.51,0.231599,509987,299199
1541.6,0.229419,503936,297137
1545.72,0.225365,494694,294423
1548.8,0.222370,488378,292675
1551.88,0.220992,481832,289670
1554.95,0.217603,474989,287793
1558.02,0.216401,467818,284234
1561.08,0.215278,460730,280652
1564.15,0.214794,454170,276965
1568.22,0.213143,444181,271905
1571.27,0.212498,436947,267874
1574.32,0.212493,429598,263372
1577.36,0.211188,422039,259516
1580.4,0.209556,414375,255763
1583.43,0.208127,406354,251639
1586.46,0.206664,398475,247592
1590.49,0.205023,388982,242609
1593.51,0.202601,380708,238776
1596.53,0.199765,372727,235302
1599.54,0.199275,365060,230722
1602.55,0.197075,357543,227119
1605.55,0.194809,349495,223168
1608.55,0.193563,341154,218468
1612.54,0.191207,330877,213039
1615.53,0.188975,322904,208977
1618.51,0.188970,315116,203939
1621.49,0.187078,307217,199695
1624.47,0.186466,299481,194941
1627.44,0.186008,292112,190345
1630.41,0.184378,284245,185915
1634.36,0.183064,274079,179809
1637.32,0.182635,266916,175283
1640.27,0.181027,259612,171119
1643.22,0.180735,251804,166084
1646.16,0.180302,244348,161327
1649.1,0.179068,236703,156724
1652.04,0.177538,228171,151608
1655.95,0.174498,215408,144133
1658.88,0.170396,204937,138428
1661.8,0.164803,193395,132325
1664.72,0.159042,179728,124616
1667.63,0.144245,163642,117395
1670.54,0.130118,146312,108433
1673.44,0.114293,128451,98729
1677.31,0.094674,105080,84498
1680.21,0.083709,88906,73320
1683.1,0.077895,75033,62713
1685.99,0.079004,63520,52955
1688.87,0.081006,53714,44574
1691.75,0.083877,45653,37635
1694.62,0.084907,39137,32187
1697.49,0.084064,33776,27832
1701.31,0.105000,28175,22124

File: Column 1_050600_20150331_122329.csv
Method:,Column 1,,
Host Date-Time:,31/3/15 @ 12:23:29,,
Header Version:,1,,
System Temp (C):,33.99,,
Detector Temp (C):,34.72,,
Humidity (%):,1.76,,
Lamp PD:,3818,,
Shift Vector Coefficients:,-10.5391,0.0761263,-0.000134223,,
Pixel to Wavelength Coefficients:,1775.68,-0.916766,-0.000235065,,
Serial Number:,5510004,,
Scan Config Name:,Column 1,,
Scan Config Type:,Slew,,
Section 1,,
Start wavelength (nm):,900,,
End wavelength (nm):,1700,,
Pattern Pixel Width (nm):,   7.03,,,,
Exposure (ms):,  0.635,,,,
Digital Resolution:,228,,
Num Repeats:,6,,
PGA Gain:,64,,
Total Measurement Time in sec:,  2.667,,
Wavelength (nm),Absorbance (AU),Reference Signal (unitless),Sample Signal (unitless)
901.51,0.069031,108485,92542
905.376,0.075802,121306,101878
909.237,0.075743,131909,110798
913.095,0.077033,143299,120008
916.948,0.079584,156982,130697
922.079,0.082337,179937,148862
925.923,0.082447,200504,165835
929.762,0.083623,222660,183662
933.597,0.082607,244426,202088
937.427,0.080987,263972,219064
941.254,0.081168,281845,233799
945.076,0.079448,297271,247574
950.165,0.079099,315605,263054
953.978,0.079244,328029,273318
957.786,0.078744,340470,284011
961.59,0.079058,352317,293681
965.389,0.078402,363056,303090
969.185,0.078430,373162,311507
972.976,0.078786,382632,319150
976.763,0.079618,391202,325674
981.806,0.079573,400190,333191
985.583,0.081439,406088,336652
989.355,0.080772,410162,340552
993.124,0.081484,412868,342237
996.888,0.081276,414263,343558
1000.65,0.082459,415476,343627
1004.4,0.083800,415479,342570
1009.41,0.085313,414358,340457
1013.15,0.085228,412923,339345
1016.89,0.085378,411526,338080
1020.63,0.086008,409066,335572
1024.36,0.085813,406777,333844
1028.09,0.085609,404427,332071
1031.82,0.085288,401911,330249
1036.78,0.085536,398410,327186
1040.49,0.085057,396204,325733
1044.2,0.084772,394236,324328
1047.91,0.084807,392042,322497
1051.61,0.083533,389823,321614
1055.31,0.084541,388234,319560
1059,0.083450,387599,319840
1063.92,0.082467,386688,319811
1067.61,0.081795,386598,320232
1071.29,0.081184,387377,321329
1074.96,0.080531,388536,322775
1078.63,0.080290,389855,324051
1082.3,0.080083,391215,325336
1085.96,0.078691,393215,328049
1090.84,0.077721,396270,331337
1094.49,0.078061,398760,333158
1098.14,0.077017,400987,335825
1101.79,0.075759,403477,338891
1105.43,0.075897,406116,340999
1109.06,0.075146,407701,342922
1112.7,0.074288,409859,345419
1117.53,0.074143,412494,347756
1121.15,0.075228,414909,348919
1124.77,0.075267,416559,350275
1128.38,0.076091,418532,351267
1131.99,0.076980,419956,351742
1135.6,0.078517,421946,352160
1139.2,0.079887,423881,352661
1143.99,0.081923,426786,353417
1147.58,0.083104,428617,353969
1151.17,0.083871,431169,355448
1154.75,0.084081,433579,357262
1158.33,0.085663,436264,358168
1161.91,0.087795,439132,358757
1165.48,0.089583,442389,359933
1169.04,0.092058,446101,360890
1173.79,0.095878,451929,362403
1177.34,0.097776,456026,364094
1180.9,0.099593,461306,366772
1184.44,0.100833,467657,370761
1187.99,0.102438,473969,374379
1191.52,0.102484,479856,378989
1195.06,0.102642,487372,384785
1199.76,0.101696,497347,393517
1203.29,0.101036,504311,399634
1206.81,0.100679,511507,405670
1210.33,0.099321,519078,412963
1213.84,0.099152,527163,419559
1217.35,0.098479,534208,425825
1220.85,0.098000,540472,431294
1225.51,0.096952,549929,439901
1229.01,0.096498,556888,445933
1232.5,0.096210,562180,450470
1235.98,0.095633,567975,455718
1239.46,0.096470,574815,460318
1242.94,0.093345,582782,470068
1246.41,0.093035,591476,477422
1251.03,0.092672,604016,487951
1254.5,0.093281,612289,493941
1257.96,0.093402,619125,499317
1261.41,0.094041,624551,502952
1264.86,0.094659,629900,506539
1268.31,0.094946,634345,509776
1271.75,0.095656,638574,512336
1276.33,0.096002,642499,515075
1279.76,0.095844,645905,517994
1283.19,0.094991,648307,520942
1286.61,0.095042,650446,522600
1290.03,0.094420,652132,524705
1293.44,0.093788,653907,526900
1296.85,0.093607,655963,528777
1301.39,0.093483,657349,530045
1304.8,0.093230,657558,530523
1308.19,0.093774,658515,530630
1311.58,0.093917,658804,530688
1314.97,0.094168,659011,530548
1318.36,0.094499,658272,529549
1321.73,0.094612,658022,529210
1326.23,0.096160,657870,527206
1329.6,0.096708,656482,525430
1332.97,0.097741,654926,522939
1336.33,0.098248,653727,521373
1339.69,0.099916,652497,518397
1343.04,0.101472,649913,514497
1346.39,0.103669,647671,510135
1349.73,0.105351,645338,506333
1354.18,0.108387,641175,499562
1357.52,0.110296,638376,495200
1360.85,0.112196,635805,491053
1364.17,0.114831,633413,486246
1367.49,0.116457,631026,482603
1370.81,0.118513,628050,478059
1374.12,0.120957,625034,473093
1378.54,0.123523,620272,466723
1381.84,0.126965,616892,460515
1385.14,0.129918,613613,454963
1388.43,0.133615,611526,449573
1391.72,0.138159,610663,444266
1395.01,0.142012,610634,440321
1398.29,0.146859,611700,436194
1402.66,0.153240,614051,431484
1405.93,0.158376,616268,427951
1409.2,0.162868,617795,424596
1412.46,0.167573,618872,420754
1415.72,0.171894,619795,417209
1418.98,0.175289,620495,414428
1422.23,0.178644,621087,411631
1426.56,0.182275,621375,408393
1429.8,0.184425,621616,406534
1433.04,0.187356,622129,404133
1436.27,0.190290,621526,401023
1439.5,0.191419,621113,399716
1442.72,0.194388,620921,396870
1445.94,0.196459,620270,394568
1450.23,0.199811,618860,390644
1453.44,0.202580,617697,387432
1456.64,0.205329,616264,384094
1459.85,0.207843,614413,380730
1463.04,0.211109,612307,376583
1466.24,0.214253,610032,372477
1469.43,0.218085,607345,367579
1473.67,0.224044,603789,360447
1476.85,0.230216,601175,353822
1480.02,0.235236,597737,347756
1483.19,0.241240,594479,341112
1486.36,0.246832,591232,334908
1489.52,0.251664,587853,329310
1492.68,0.255732,583875,324032
1496.89,0.257499,578062,319503
1500.03,0.257684,574159,317211
1503.18,0.257958,570285,314872
1506.32,0.256892,565444,312966
1509.45,0.255831,560571,311028
1512.58,0.253973,555821,309715
1515.71,0.251986,550344,308069
1519.87,0.248789,543983,306758
1522.99,0.246164,538764,305657
1526.1,0.243407,533692,304708
1529.21,0.240286,527902,303576
1532.32,0.238768,521886,301167
1535.42,0.234997,515888,300302
1538.51,0.232298,509987,298718
1541.6,0.229277,503936,297234
1545.72,0.225214,494694,294525
1548.8,0.222348,488378,292690
1551.88,0.219815,481832,290456
1554.95,0.218102,474989,287463
1558.02,0.216803,467818,283971
1561.08,0.215596,460730,280447
1564.15,0.214888,454170,276905
1568.22,0.214053,444181,271336
1571.27,0.213548,436947,267227
1574.32,0.212409,429598,263423
1577.36,0.211106,422039,259565
1580.4,0.210426,414375,255251
1583.43,0.208880,406354,251203
1586.46,0.207405,398475,247170
1590.49,0.204561,388982,242867
1593.51,0.203313,380708,238385
1596.53,0.200811,372727,234736
1599.54,0.200142,365060,230262
1602.55,0.197182,357543,227063
1605.55,0.195421,349495,222854
1608.55,0.194923,341154,217785
1612.54,0.192326,330877,212491
1615.53,0.189559,322904,208696
1618.51,0.189040,315116,203906
1621.49,0.186919,307217,199768
1624.47,0.187528,299481,194465
1627.44,0.185908,292112,190389
1630.41,0.184731,284245,185764
1634.36,0.184361,274079,179273
1637.32,0.183865,266916,174787
1640.27,0.183314,259612,170220
1643.22,0.181373,251804,165840
1646.16,0.180014,244348,161434
1649.1,0.181143,236703,155977
1652.04,0.178235,228171,151365
1655.95,0.175101,215408,143933
1658.88,0.171546,204937,138062
1661.8,0.166135,193395,131920
1664.72,0.157525,179728,125052
1667.63,0.146103,163642,116894
1670.54,0.131780,146312,108019
1673.44,0.116785,128451,98164
1677.31,0.097339,105080,83981
1680.21,0.085471,88906,73023
1683.1,0.080339,75033,62361
1685.99,0.079718,63520,52868
1688.87,0.081240,53714,44550
1691.75,0.085450,45653,37499
1694.62,0.091282,39137,31718
1697.49,0.091969,33776,27330
1701.31,0.110552,28175,21843