Folder: textile_sorting_NIRSCAN_/samples/wool/wool-000811 (part 170)

File: Column 1_050625_20150331_123525.csv
Method:,Column 1,,
Host Date-Time:,31/3/15 @ 12:35:25,,
Header Version:,1,,
System Temp (C):,34.14,,
Detector Temp (C):,35.09,,
Humidity (%):,1.56,,
Lamp PD:,3818,,
Shift Vector Coefficients:,-10.5391,0.0761263,-0.000134223,,
Pixel to Wavelength Coefficients:,1775.68,-0.916766,-0.000235065,,
Serial Number:,5510004,,
Scan Config Name:,Column 1,,
Scan Config Type:,Slew,,
Section 1,,
Start wavelength (nm):,900,,
End wavelength (nm):,1700,,
Pattern Pixel Width (nm):,   7.03,,,,
Exposure (ms):,  0.635,,,,
Digital Resolution:,228,,
Num Repeats:,6,,
PGA Gain:,64,,
Total Measurement Time in sec:,  2.666,,
Wavelength (nm),Absorbance (AU),Reference Signal (unitless),Sample Signal (unitless)
901.51,0.069327,108485,92479
905.376,0.074474,121306,102190
909.237,0.077908,131909,110247
913.095,0.078933,143299,119484
916.948,0.078987,156982,130877
922.079,0.080288,179937,149566
925.923,0.081124,200504,166341
929.762,0.082905,222660,183966
933.597,0.082895,244426,201954
937.427,0.080652,263972,219233
941.254,0.081564,281845,233586
945.076,0.077858,297271,248482
950.165,0.077586,315605,263972
953.978,0.077690,328029,274298
957.786,0.077928,340470,284545
961.59,0.077368,352317,294826
965.389,0.077493,363056,303725
969.185,0.077497,373162,312177
972.976,0.077437,382632,320143
976.763,0.078921,391202,326197
981.806,0.078979,400190,333647
985.583,0.079090,406088,338478
989.355,0.079284,410162,341721
993.124,0.079917,412868,343474
996.888,0.080586,414263,344104
1000.65,0.081188,415476,344634
1004.4,0.082793,415479,343365
1009.41,0.083815,414358,341634
1013.15,0.084065,412923,340255
1016.89,0.084777,411526,338548
1020.63,0.084868,409066,336454
1024.36,0.084676,406777,334719
1028.09,0.084336,404427,333046
1031.82,0.084386,401911,330936
1036.78,0.084218,398410,328180
1040.49,0.083778,396204,326694
1044.2,0.084135,394236,324804
1047.91,0.083627,392042,323374
1051.61,0.082578,389823,322322
1055.31,0.082930,388234,320748
1059,0.082316,387599,320676
1063.92,0.081464,386688,320551
1067.61,0.080289,386598,321344
1071.29,0.080275,387377,322002
1074.96,0.079858,388536,323276
1078.63,0.079004,389855,325012
1082.3,0.077846,391215,327016
1085.96,0.077367,393215,329051
1090.84,0.076603,396270,332191
1094.49,0.075794,398760,334902
1098.14,0.075290,400987,337163
1101.79,0.074923,403477,339544
1105.43,0.074654,406116,341976
1109.06,0.073695,407701,344070
1112.7,0.073360,409859,346158
1117.53,0.072805,412494,348829
1121.15,0.073995,414909,349911
1124.77,0.073505,416559,351699
1128.38,0.075113,418532,352059
1131.99,0.076087,419956,352466
1135.6,0.077396,421946,353070
1139.2,0.078322,423881,353934
1143.99,0.080389,426786,354667
1147.58,0.081166,428617,355552
1151.17,0.082102,431169,356899
1154.75,0.083095,433579,358074
1158.33,0.084150,436264,359418
1161.91,0.086355,439132,359948
1165.48,0.088042,442389,361212
1169.04,0.090409,446101,362263
1173.79,0.093715,451929,364213
1177.34,0.095567,456026,365951
1180.9,0.097580,461306,368476
1184.44,0.100059,467657,371423
1187.99,0.100774,473969,375817
1191.52,0.100566,479856,380667
1195.06,0.100711,487372,386500
1199.76,0.100570,497347,394539
1203.29,0.099605,504311,400953
1206.81,0.099140,511507,407110
1210.33,0.098080,519078,414145
1213.84,0.097513,527163,421145
1217.35,0.097012,534208,427266
1220.85,0.096008,540472,433277
1225.51,0.095586,549929,441286
1229.01,0.094708,556888,447775
1232.5,0.094407,562180,452344
1235.98,0.093859,567975,457583
1239.46,0.093049,574815,463958
1242.94,0.091484,582782,472087
1246.41,0.090779,591476,479908
1251.03,0.091277,604016,489521
1254.5,0.091489,612289,495984
1257.96,0.091728,619125,501245
1261.41,0.092159,624551,505137
1264.86,0.092954,629900,508531
1268.31,0.093370,634345,511630
1271.75,0.093780,638574,514554
1276.33,0.093929,642499,517539
1279.76,0.093823,645905,520410
1283.19,0.093439,648307,522807
1286.61,0.092808,650446,525295
1290.03,0.092764,652132,526710
1293.44,0.092430,653907,528550
1296.85,0.092003,655963,530733
1301.39,0.091970,657349,531895
1304.8,0.091637,657558,532472
1308.19,0.092200,658515,532556
1311.58,0.091600,658804,533527
1314.97,0.092062,659011,533127
1318.36,0.092423,658272,532087
1321.73,0.092351,658022,531973
1326.23,0.093658,657870,530252
1329.6,0.094555,656482,528041
1332.97,0.095211,654926,525994
1336.33,0.096223,653727,523810
1339.69,0.097665,652497,521091
1343.04,0.098925,649913,517524
1346.39,0.101324,647671,512897
1349.73,0.102490,645338,509679
1354.18,0.105517,641175,502874
1357.52,0.107888,638376,497953
1360.85,0.109714,635805,493867
1364.17,0.111533,633413,489952
1367.49,0.113414,631026,485997
1370.81,0.115668,628050,481201
1374.12,0.117907,625034,476427
1378.54,0.120712,620272,469754
1381.84,0.123476,616892,464230
1385.14,0.126736,613613,458309
1388.43,0.130141,611526,453183
1391.72,0.134217,610663,448316
1395.01,0.137298,610634,445126
1398.29,0.141620,611700,441488
1402.66,0.147401,614051,437324
1405.93,0.152340,616268,433940
1409.2,0.156576,617795,430793
1412.46,0.160902,618872,427266
1415.72,0.164848,619795,424033
1418.98,0.167925,620495,421515
1422.23,0.171144,621087,418802
1426.56,0.175181,621375,415119
1429.8,0.178292,621616,412316
1433.04,0.180145,622129,410899
1436.27,0.182008,621526,408744
1439.5,0.184384,621113,406244
1442.72,0.186563,620921,404086
1445.94,0.189585,620270,400863
1450.23,0.192560,618860,397221
1453.44,0.195773,617697,393552
1456.64,0.198271,616264,390387
1459.85,0.200987,614413,386788
1463.04,0.203786,612307,382986
1466.24,0.207554,610032,378267
1469.43,0.211464,607345,373226
1473.67,0.218183,603789,365344
1476.85,0.224012,601175,358913
1480.02,0.229890,597737,352063
1483.19,0.236863,594479,344567
1486.36,0.242945,591232,337919
1489.52,0.248594,587853,331646
1492.68,0.251560,583875,327160
1496.89,0.253668,578062,322334
1500.03,0.253820,574159,320046
1503.18,0.253640,570285,318018
1506.32,0.253646,565444,315314
1509.45,0.251921,560571,313841
1512.58,0.250309,555821,312339
1515.71,0.247817,550344,311041
1519.87,0.245218,543983,309291
1522.99,0.242721,538764,308090
1526.1,0.240397,533692,306827
1529.21,0.237370,527902,305621
1532.32,0.234362,521886,304238
1535.42,0.231441,515888,302771
1538.51,0.228292,509987,301486
1541.6,0.225525,503936,299813
1545.72,0.221637,494694,296961
1548.8,0.219047,488378,294923
1551.88,0.216491,481832,292688
1554.95,0.214160,474989,290084
1558.02,0.212858,467818,286562
1561.08,0.212291,460730,282589
1564.15,0.211642,454170,278982
1568.22,0.209968,444181,273900
1571.27,0.209633,436947,269647
1574.32,0.208775,429598,265636
1577.36,0.208040,422039,261404
1580.4,0.206954,414375,257300
1583.43,0.205576,406354,253121
1586.46,0.203331,398475,249500
1590.49,0.201700,388982,244472
1593.51,0.200442,380708,239966
1596.53,0.198214,372727,236144
1599.54,0.195667,365060,232647
1602.55,0.194402,357543,228521
1605.55,0.192420,349495,224399
1608.55,0.190644,341154,219941
1612.54,0.189097,330877,214077
1615.53,0.186104,322904,210363
1618.51,0.185650,315116,205504
1621.49,0.184744,307217,200771
1624.47,0.183699,299481,196187
1627.44,0.182497,292112,191890
1630.41,0.181343,284245,187219
1634.36,0.180267,274079,180971
1637.32,0.179332,266916,176621
1640.27,0.178920,259612,171951
1643.22,0.178227,251804,167046
1646.16,0.177629,244348,162323
1649.1,0.176491,236703,157657
1652.04,0.174638,228171,152624
1655.95,0.172095,215408,144933
1658.88,0.168574,204937,139010
1661.8,0.163077,193395,132852
1664.72,0.156173,179728,125442
1667.63,0.141424,163642,118160
1670.54,0.129362,146312,108622
1673.44,0.111347,128451,99401
1677.31,0.090220,105080,85369
1680.21,0.080293,88906,73899
1683.1,0.071597,75033,63629
1685.99,0.075255,63520,53414
1688.87,0.072926,53714,45411
1691.75,0.085994,45653,37452
1694.62,0.083183,39137,32315
1697.49,0.088502,33776,27549
1701.31,0.110254,28175,21858

File: Column 1_050625_20150331_123528.csv
Method:,Column 1,,
Host Date-Time:,31/3/15 @ 12:35:28,,
Header Version:,1,,
System Temp (C):,34.13,,
Detector Temp (C):,35.09,,
Humidity (%):,1.56,,
Lamp PD:,3817,,
Shift Vector Coefficients:,-10.5391,0.0761263,-0.000134223,,
Pixel to Wavelength Coefficients:,1775.68,-0.916766,-0.000235065,,
Serial Number:,5510004,,
Scan Config Name:,Column 1,,
Scan Config Type:,Slew,,
Section 1,,
Start wavelength (nm):,900,,
End wavelength (nm):,1700,,
Pattern Pixel Width (nm):,   7.03,,,,
Exposure (ms):,  0.635,,,,
Digital Resolution:,228,,
Num Repeats:,6,,
PGA Gain:,64,,
Total Measurement Time in sec:,  2.675,,
Wavelength (nm),Absorbance (AU),Reference Signal (unitless),Sample Signal (unitless)
901.51,0.069674,108485,92405
905.376,0.074215,121306,102251
909.237,0.076877,131909,110509
913.095,0.076660,143299,120111
916.948,0.077979,156982,131181
922.079,0.081756,179937,149061
925.923,0.082052,200504,165986
929.762,0.082931,222660,183955
933.597,0.081892,244426,202421
937.427,0.080218,263972,219452
941.254,0.080283,281845,234276
945.076,0.082210,297271,246004
950.165,0.078192,315605,263604
953.978,0.077473,328029,274435
957.786,0.077934,340470,284541
961.59,0.077331,352317,294851
965.389,0.077959,363056,303399
969.185,0.077529,373162,312154
972.976,0.078503,382632,319358
976.763,0.078470,391202,326536
981.806,0.078809,400190,333778
985.583,0.079649,406088,338042
989.355,0.079656,410162,341428
993.124,0.080172,412868,343273
996.888,0.080980,414263,343792
1000.65,0.080918,415476,344848
1004.4,0.082530,415479,343573
1009.41,0.083637,414358,341774
1013.15,0.084123,412923,340209
1016.89,0.084753,411526,338567
1020.63,0.084361,409066,336847
1024.36,0.084509,406777,334848
1028.09,0.084215,404427,333139
1031.82,0.084201,401911,331077
1036.78,0.083214,398410,328940
1040.49,0.083480,396204,326918
1044.2,0.084000,394236,324905
1047.91,0.083452,392042,323505
1051.61,0.082551,389823,322342
1055.31,0.082479,388234,321081
1059,0.082127,387599,320816
1063.92,0.081506,386688,320520
1067.61,0.080568,386598,321138
1071.29,0.080283,387377,321996
1074.96,0.079568,388536,323492
1078.63,0.079038,389855,324986
1082.3,0.077941,391215,326945
1085.96,0.077400,393215,329026
1090.84,0.076226,396270,332480
1094.49,0.075874,398760,334840
1098.14,0.075149,400987,337273
1101.79,0.074985,403477,339495
1105.43,0.074897,406116,341785
1109.06,0.073513,407701,344214
1112.7,0.073763,409859,345837
1117.53,0.073352,412494,348390
1121.15,0.073390,414909,350399
1124.77,0.073882,416559,351394
1128.38,0.074719,418532,352379
1131.99,0.075628,419956,352838
1135.6,0.076903,421946,353471
1139.2,0.078882,423881,353478
1143.99,0.080355,426786,354695
1147.58,0.081438,428617,355330
1151.17,0.081480,431169,357411
1154.75,0.083068,433579,358097
1158.33,0.083959,436264,359576
1161.91,0.085283,439132,360838
1165.48,0.087653,442389,361536
1169.04,0.090126,446101,362499
1173.79,0.093847,451929,364102
1177.34,0.095433,456026,366064
1180.9,0.098199,461306,367951
1184.44,0.099817,467657,371630
1187.99,0.100352,473969,376182
1191.52,0.100690,479856,380558
1195.06,0.100710,487372,386501
1199.76,0.099969,497347,395085
1203.29,0.099191,504311,401335
1206.81,0.098625,511507,407593
1210.33,0.097699,519078,414509
1213.84,0.097719,527163,420946
1217.35,0.097024,534208,427254
1220.85,0.096877,540472,432410
1225.51,0.095592,549929,441280
1229.01,0.094748,556888,447734
1232.5,0.094399,562180,452352
1235.98,0.093810,567975,457635
1239.46,0.092691,574815,464341
1242.94,0.091820,582782,471722
1246.41,0.091316,591476,479315
1251.03,0.090950,604016,489890
1254.5,0.091201,612289,496313
1257.96,0.091420,619125,501601
1261.41,0.091970,624551,505356
1264.86,0.092527,629900,509031
1268.31,0.093348,634345,511655
1271.75,0.093977,638574,514321
1276.33,0.093997,642499,517458
1279.76,0.093787,645905,520453
1283.19,0.093249,648307,523036
1286.61,0.092677,650446,525453
1290.03,0.092606,652132,526902
1293.44,0.092441,653907,528536
1296.85,0.092030,655963,530700
1301.39,0.091507,657349,532462
1304.8,0.091504,657558,532635
1308.19,0.091856,658515,532978
1311.58,0.091730,658804,533367
1314.97,0.092434,659011,532671
1318.36,0.092539,658272,531944
1321.73,0.092682,658022,531568
1326.23,0.093853,657870,530014
1329.6,0.094493,656482,528117
1332.97,0.095053,654926,526186
1336.33,0.096186,653727,523854
1339.69,0.097296,652497,521534
1343.04,0.099011,649913,517421
1346.39,0.100891,647671,513409
1349.73,0.102565,645338,509592
1354.18,0.105657,641175,502712
1357.52,0.107747,638376,498115
1360.85,0.109612,635805,493983
1364.17,0.111653,633413,489817
1367.49,0.113674,631026,485706
1370.81,0.116231,628050,480577
1374.12,0.117451,625034,476928
1378.54,0.120665,620272,469804
1381.84,0.123289,616892,464430
1385.14,0.126441,613613,458621
1388.43,0.129956,611526,453376
1391.72,0.133519,610663,449038
1395.01,0.137455,610634,444965
1398.29,0.141742,611700,441364
1402.66,0.148010,614051,436711
1405.93,0.152198,616268,434082
1409.2,0.156910,617795,430462
1412.46,0.161253,618872,426921
1415.72,0.164796,619795,424084
1418.98,0.168099,620495,421346
1422.23,0.171320,621087,418632
1426.56,0.175161,621375,415138
1429.8,0.177822,621616,412762
1433.04,0.180317,622129,410737
1436.27,0.182304,621526,408465
1439.5,0.184122,621113,406489
1442.72,0.186397,620921,404240
1445.94,0.189050,620270,401357
1450.23,0.192508,618860,397269
1453.44,0.195275,617697,394004
1456.64,0.199011,616264,389723
1459.85,0.201033,614413,386747
1463.04,0.204063,612307,382742
1466.24,0.207676,610032,378161
1469.43,0.211886,607345,372863
1473.67,0.217713,603789,365740
1476.85,0.224009,601175,358915
1480.02,0.230262,597737,351761
1483.19,0.237102,594479,344377
1486.36,0.243542,591232,337455
1489.52,0.247951,587853,332137
1492.68,0.250939,583875,327628
1496.89,0.253667,578062,322335
1500.03,0.254722,574159,319382
1503.18,0.254005,570285,317751
1506.32,0.253383,565444,315505
1509.45,0.251812,560571,313920
1512.58,0.249495,555821,312925
1515.71,0.247945,550344,310949
1519.87,0.244947,543983,309484
1522.99,0.242594,538764,308180
1526.1,0.240110,533692,307030
1529.21,0.236846,527902,305990
1532.32,0.233894,521886,304566
1535.42,0.231687,515888,302600
1538.51,0.227997,509987,301691
1541.6,0.225167,503936,300060
1545.72,0.221058,494694,297357
1548.8,0.218747,488378,295127
1551.88,0.216685,481832,292557
1554.95,0.214148,474989,290092
1558.02,0.212598,467818,286734
1561.08,0.211600,460730,283039
1564.15,0.211182,454170,279278
1568.22,0.209748,444181,274039
1571.27,0.209279,436947,269867
1574.32,0.208341,429598,265902
1577.36,0.208052,422039,261397
1580.4,0.207462,414375,256999
1583.43,0.205016,406354,253448
1586.46,0.202722,398475,249850
1590.49,0.201361,388982,244663
1593.51,0.199898,380708,240267
1596.53,0.197650,372727,236451
1599.54,0.196123,365060,232403
1602.55,0.193796,357543,228840
1605.55,0.192871,349495,224166
1608.55,0.190086,341154,220224
1612.54,0.187481,330877,214875
1615.53,0.187080,322904,209891
1618.51,0.185523,315116,205564
1621.49,0.184798,307217,200746
1624.47,0.182620,299481,196675
1627.44,0.183383,292112,191499
1630.41,0.181157,284245,187299
1634.36,0.180190,274079,181003
1637.32,0.179630,266916,176500
1640.27,0.179992,259612,171527
1643.22,0.179304,251804,166632
1646.16,0.177862,244348,162236
1649.1,0.176981,236703,157479
1652.04,0.174649,228171,152620
1655.95,0.172334,215408,144853
1658.88,0.166940,204937,139534
1661.8,0.162476,193395,133036
1664.72,0.154694,179728,125870
1667.63,0.141700,163642,118085
1670.54,0.126171,146312,109423
1673.44,0.112252,128451,99194
1677.31,0.090449,105080,85324
1680.21,0.078129,88906,74268
1683.1,0.076526,75033,62911
1685.99,0.073211,63520,53666
1688.87,0.077068,53714,44980
1691.75,0.080876,45653,37896
1694.62,0.089342,39137,31860
1697.49,0.090335,33776,27433
1701.31,0.101754,28175,22290

File: Column 1_050625_20150331_123534.csv
Method:,Column 1,,
Host Date-Time:,31/3/15 @ 12:35:34,,
Header Version:,1,,
System Temp (C):,34.14,,
Detector Temp (C):,35.05,,
Humidity (%):,1.56,,
Lamp PD:,3818,,
Shift Vector Coefficients:,-10.5391,0.0761263,-0.000134223,,
Pixel to Wavelength Coefficients:,1775.68,-0.916766,-0.000235065,,
Serial Number:,5510004,,
Scan Config Name:,Column 1,,
Scan Config Type:,Slew,,
Section 1,,
Start wavelength (nm):,900,,
End wavelength (nm):,1700,,
Pattern Pixel Width (nm):,   7.03,,,,
Exposure (ms):,  0.635,,,,
Digital Resolution:,228,,
Num Repeats:,6,,
PGA Gain:,64,,
Total Measurement Time in sec:,  2.670,,
Wavelength (nm),Absorbance (AU),Reference Signal (unitless),Sample Signal (unitless)
901.51,0.070140,108485,92306
905.376,0.074533,121306,102176
909.237,0.075974,131909,110739
913.095,0.078149,143299,119700
916.948,0.080016,156982,130567
922.079,0.078989,179937,150014
925.923,0.081727,200504,166110
929.762,0.083420,222660,183748
933.597,0.082222,244426,202267
937.427,0.081626,263972,218742
941.254,0.081329,281845,233712
945.076,0.079846,297271,247347
950.165,0.078589,315605,263363
953.978,0.077539,328029,274393
957.786,0.077702,340470,284693
961.59,0.077692,352317,294606
965.389,0.077470,363056,303741
969.185,0.077090,373162,312469
972.976,0.077820,382632,319861
976.763,0.077987,391202,326899
981.806,0.078932,400190,333683
985.583,0.079529,406088,338136
989.355,0.079675,410162,341413
993.124,0.080556,412868,342969
996.888,0.080966,414263,343803
1000.65,0.081923,415476,344051
1004.4,0.082300,415479,343755
1009.41,0.083920,414358,341551
1013.15,0.084020,412923,340290
1016.89,0.085055,411526,338331
1020.63,0.084954,409066,336387
1024.36,0.084942,406777,334514
1028.09,0.084744,404427,332733
1031.82,0.084095,401911,331158
1036.78,0.084013,398410,328335
1040.49,0.083371,396204,327000
1044.2,0.083431,394236,325331
1047.91,0.083666,392042,323345
1051.61,0.083149,389823,321898
1055.31,0.082336,388234,321187
1059,0.082137,387599,320808
1063.92,0.081512,386688,320515
1067.61,0.080634,386598,321089
1071.29,0.080074,387377,322151
1074.96,0.079789,388536,323327
1078.63,0.078861,389855,325119
1082.3,0.078603,391215,326447
1085.96,0.077176,393215,329196
1090.84,0.076725,396270,332098
1094.49,0.076375,398760,334454
1098.14,0.075607,400987,336917
1101.79,0.074673,403477,339739
1105.43,0.074380,406116,342192
1109.06,0.073989,407701,343837
1112.7,0.073107,409859,346360
1117.53,0.073401,412494,348351
1121.15,0.073800,414909,350068
1124.77,0.073393,416559,351790
1128.38,0.074711,418532,352385
1131.99,0.075071,419956,353291
1135.6,0.076887,421946,353484
1139.2,0.078589,423881,353716
1143.99,0.080351,426786,354698
1147.58,0.081092,428617,355613
1151.17,0.081865,431169,357094
1154.75,0.082347,433579,358692
1158.33,0.084293,436264,359299
1161.91,0.085669,439132,360517
1165.48,0.087620,442389,361563
1169.04,0.090237,446101,362407
1173.79,0.093728,451929,364202
1177.34,0.095791,456026,365762
1180.9,0.097797,461306,368292
1184.44,0.099673,467657,371753
1187.99,0.100777,473969,375814
1191.52,0.100709,479856,380541
1195.06,0.100552,487372,386642
1199.76,0.099988,497347,395068
1203.29,0.099147,504311,401376
1206.81,0.098919,511507,407317
1210.33,0.098488,519078,413756
1213.84,0.097799,527163,420868
1217.35,0.096914,534208,427362
1220.85,0.096129,540472,433156
1225.51,0.095273,549929,441605
1229.01,0.095401,556888,447061
1232.5,0.094324,562180,452430
1235.98,0.093886,567975,457555
1239.46,0.092730,574815,464299
1242.94,0.091636,582782,471922
1246.41,0.091247,591476,479391
1251.03,0.091373,604016,489413
1254.5,0.091235,612289,496274
1257.96,0.091435,619125,501584
1261.41,0.092318,624551,504952
1264.86,0.092547,629900,509008
1268.31,0.093048,634345,512009
1271.75,0.093964,638574,514336
1276.33,0.094216,642499,517198
1279.76,0.093669,645905,520594
1283.19,0.093023,648307,523309
1286.61,0.093447,650446,524523
1290.03,0.092795,652132,526672
1293.44,0.092029,653907,529038
1296.85,0.092112,655963,530600
1301.39,0.091915,657349,531962
1304.8,0.091462,657558,532687
1308.19,0.091605,658515,533286
1311.58,0.091932,658804,533119
1314.97,0.092202,659011,532955
1318.36,0.092262,658272,532284
1321.73,0.092928,658022,531267
1326.23,0.093795,657870,530084
1329.6,0.094055,656482,528650
1332.97,0.094975,654926,526280
1336.33,0.095913,653727,524183
1339.69,0.097309,652497,521518
1343.04,0.098799,649913,517674
1346.39,0.100855,647671,513451
1349.73,0.102395,645338,509791
1354.18,0.105713,641175,502648
1357.52,0.107218,638376,498722
1360.85,0.109604,635805,493992
1364.17,0.111760,633413,489696
1367.49,0.113758,631026,485612
1370.81,0.116151,628050,480666
1374.12,0.117923,625034,476410
1378.54,0.120428,620272,470061
1381.84,0.123510,616892,464194
1385.14,0.126107,613613,458973
1388.43,0.130243,611526,453077
1391.72,0.133542,610663,449014
1395.01,0.137114,610634,445315
1398.29,0.141824,611700,441280
1402.66,0.147284,614051,437442
1405.93,0.152373,616268,433907
1409.2,0.156581,617795,430788
1412.46,0.160927,618872,427242
1415.72,0.164759,619795,424120
1418.98,0.167825,620495,421612
1422.23,0.171004,621087,418937
1426.56,0.175262,621375,415042
1429.8,0.177645,621616,412931
1433.04,0.180429,622129,410631
1436.27,0.181936,621526,408812
1439.5,0.183979,621113,406623
1442.72,0.186685,620921,403972
1445.94,0.188910,620270,401486
1450.23,0.192720,618860,397075
1453.44,0.195114,617697,394150
1456.64,0.198609,616264,390084
1459.85,0.201449,614413,386377
1463.04,0.204249,612307,382578
1466.24,0.208037,610032,377847
1469.43,0.211744,607345,372985
1473.67,0.217835,603789,365637
1476.85,0.223804,601175,359085
1480.02,0.230265,597737,351759
1483.19,0.236504,594479,344852
1486.36,0.242520,591232,338250
1489.52,0.248205,587853,331943
1492.68,0.251256,583875,327389
1496.89,0.253468,578062,322483
1500.03,0.254667,574159,319422
1503.18,0.254240,570285,317579
1506.32,0.253254,565444,315599
1509.45,0.252827,560571,313187
1512.58,0.250118,555821,312476
1515.71,0.248476,550344,310569
1519.87,0.245412,543983,309153
1522.99,0.242552,538764,308210
1526.1,0.239937,533692,307152
1529.21,0.237387,527902,305609
1532.32,0.234047,521886,304459
1535.42,0.231602,515888,302659
1538.51,0.228119,509987,301606
1541.6,0.225567,503936,299784
1545.72,0.221491,494694,297061
1548.8,0.217845,488378,295741
1551.88,0.216040,481832,292992
1554.95,0.214333,474989,289968
1558.02,0.212675,467818,286683
1561.08,0.211574,460730,283056
1564.15,0.211121,454170,279317
1568.22,0.210276,444181,273706
1571.27,0.209390,436947,269798
1574.32,0.208766,429598,265642
1577.36,0.207780,422039,261561
1580.4,0.206574,414375,257525
1583.43,0.204721,406354,253620
1586.46,0.204151,398475,249029
1590.49,0.201448,388982,244614
1593.51,0.199766,380708,240340
1596.53,0.198172,372727,236167
1599.54,0.194878,365060,233070
1602.55,0.193982,357543,228742
1605.55,0.191909,349495,224663
1608.55,0.189989,341154,220273
1612.54,0.187992,330877,214622
1615.53,0.186286,322904,210275
1618.51,0.185251,315116,205693
1621.49,0.184619,307217,200829
1624.47,0.182865,299481,196564
1627.44,0.182391,292112,191937
1630.41,0.181002,284245,187366
1634.36,0.180627,274079,180821
1637.32,0.180108,266916,176306
1640.27,0.180393,259612,171369
1643.22,0.177730,251804,167237
1646.16,0.178159,244348,162125
1649.1,0.176650,236703,157599
1652.04,0.175355,228171,152372
1655.95,0.171960,215408,144978
1658.88,0.167760,204937,139271
1661.8,0.162088,193395,133155
1664.72,0.155070,179728,125761
1667.63,0.142153,163642,117962
1670.54,0.128061,146312,108948
1673.44,0.110640,128451,99563
1677.31,0.090408,105080,85332
1680.21,0.078036,88906,74284
1683.1,0.075808,75033,63015
1685.99,0.076770,63520,53228
1688.87,0.071656,53714,45544
1691.75,0.083197,45653,37694
1694.62,0.082378,39137,32375
1697.49,0.084438,33776,27808
1701.31,0.095659,28175,22605