Folder: textile_sorting_NIRSCAN_/samples/wool/wool-000811 (part 25)

File: Column 1_050544_20150331_115658.csv
Method:,Column 1,,
Host Date-Time:,31/3/15 @ 11:56:58,,
Header Version:,1,,
System Temp (C):,32.76,,
Detector Temp (C):,31.22,,
Humidity (%):,2.64,,
Lamp PD:,3823,,
Shift Vector Coefficients:,-10.5391,0.0761263,-0.000134223,,
Pixel to Wavelength Coefficients:,1775.68,-0.916766,-0.000235065,,
Serial Number:,5510004,,
Scan Config Name:,Column 1,,
Scan Config Type:,Slew,,
Section 1,,
Start wavelength (nm):,900,,
End wavelength (nm):,1700,,
Pattern Pixel Width (nm):,   7.03,,,,
Exposure (ms):,  0.635,,,,
Digital Resolution:,228,,
Num Repeats:,6,,
PGA Gain:,64,,
Total Measurement Time in sec:,  2.686,,
Wavelength (nm),Absorbance (AU),Reference Signal (unitless),Sample Signal (unitless)
901.51,0.044392,108485,97944
905.376,0.050294,121306,108041
909.237,0.053766,131909,116549
913.095,0.051664,143299,127227
916.948,0.052045,156982,139253
922.079,0.053718,179937,159002
925.923,0.053696,200504,177185
929.762,0.054273,222660,196503
933.597,0.055551,244426,215078
937.427,0.054467,263972,232858
941.254,0.054483,281845,248615
945.076,0.053481,297271,262828
950.165,0.054166,315605,278598
953.978,0.054058,328029,289637
957.786,0.054208,340470,300518
961.59,0.055471,352317,310072
965.389,0.054963,363056,319897
969.185,0.055416,373162,328459
972.976,0.055547,382632,336693
976.763,0.056541,391202,343447
981.806,0.056939,400190,351016
985.583,0.057331,406088,355868
989.355,0.058076,410162,358822
993.124,0.059171,412868,360280
996.888,0.059039,414263,361607
1000.65,0.060346,415476,361576
1004.4,0.060842,415479,361166
1009.41,0.062591,414358,358744
1013.15,0.063043,412923,357130
1016.89,0.063653,411526,355422
1020.63,0.063649,409066,353301
1024.36,0.063600,406777,351363
1028.09,0.063455,404427,349450
1031.82,0.062312,401911,348191
1036.78,0.062389,398410,345097
1040.49,0.061573,396204,343832
1044.2,0.061224,394236,342399
1047.91,0.060167,392042,341323
1051.61,0.059792,389823,339684
1055.31,0.059314,388234,338672
1059,0.058598,387599,338676
1063.92,0.057363,386688,338842
1067.61,0.056177,386598,339690
1071.29,0.055558,387377,340860
1074.96,0.054920,388536,342382
1078.63,0.053860,389855,344384
1082.3,0.052879,391215,346367
1085.96,0.052864,393215,348150
1090.84,0.051693,396270,351802
1094.49,0.051028,398760,354555
1098.14,0.051269,400987,356337
1101.79,0.050661,403477,359052
1105.43,0.050740,406116,361335
1109.06,0.050133,407701,363253
1112.7,0.050293,409859,365041
1117.53,0.050295,412494,367386
1121.15,0.051148,414909,368812
1124.77,0.052458,416559,369163
1128.38,0.053215,418532,370266
1131.99,0.054704,419956,370254
1135.6,0.056796,421946,370221
1139.2,0.058964,423881,370067
1143.99,0.061409,426786,370511
1147.58,0.062748,428617,370955
1151.17,0.064307,431169,371827
1154.75,0.065570,433579,372819
1158.33,0.066917,436264,373966
1161.91,0.070089,439132,373685
1165.48,0.072390,442389,374468
1169.04,0.075841,446101,374621
1173.79,0.080086,451929,375824
1177.34,0.083266,456026,376464
1180.9,0.085494,461306,378874
1184.44,0.087348,467657,382454
1187.99,0.088086,473969,386958
1191.52,0.087669,479856,392141
1195.06,0.086872,487372,399014
1199.76,0.085801,497347,408186
1203.29,0.084166,504311,415463
1206.81,0.082941,511507,422582
1210.33,0.081956,519078,429810
1213.84,0.080735,527163,437734
1217.35,0.079681,534208,444661
1220.85,0.078631,540472,450964
1225.51,0.077491,549929,460061
1229.01,0.076778,556888,466648
1232.5,0.075810,562180,472134
1235.98,0.075019,567975,477871
1239.46,0.074391,574815,484325
1242.94,0.072337,582782,493366
1246.41,0.071736,591476,501419
1251.03,0.071516,604016,512310
1254.5,0.071296,612289,519590
1257.96,0.071559,619125,525073
1261.41,0.072725,624551,528254
1264.86,0.072868,629900,532603
1268.31,0.073448,634345,535646
1271.75,0.074299,638574,538161
1276.33,0.074418,642499,541320
1279.76,0.074508,645905,544077
1283.19,0.073724,648307,547088
1286.61,0.073532,650446,549135
1290.03,0.073256,652132,550908
1293.44,0.072723,653907,553087
1296.85,0.072345,655963,555309
1301.39,0.072087,657349,556812
1304.8,0.071967,657558,557143
1308.19,0.072627,658515,557107
1311.58,0.072472,658804,557550
1314.97,0.073356,659011,556592
1318.36,0.074043,658272,555089
1321.73,0.074266,658022,554593
1326.23,0.075205,657870,553268
1329.6,0.076387,656482,550600
1332.97,0.077218,654926,548244
1336.33,0.078922,653727,545098
1339.69,0.080774,652497,541757
1343.04,0.082146,649913,537909
1346.39,0.085192,647671,532307
1349.73,0.087200,645338,527943
1354.18,0.091023,641175,519941
1357.52,0.093712,638376,514475
1360.85,0.095889,635805,509841
1364.17,0.098482,633413,504900
1367.49,0.101064,631026,500015
1370.81,0.103703,628050,494642
1374.12,0.106279,625034,489356
1378.54,0.110604,620272,480815
1381.84,0.114046,616892,474420
1385.14,0.118807,613613,466753
1388.43,0.124228,611526,459396
1391.72,0.129189,610663,453537
1395.01,0.135412,610634,447063
1398.29,0.141706,611700,441400
1402.66,0.149463,614051,435253
1405.93,0.156239,616268,430062
1409.2,0.162911,617795,424554
1412.46,0.168330,618872,420021
1415.72,0.173611,619795,415563
1418.98,0.178300,620495,411565
1422.23,0.182508,621087,407985
1426.56,0.186975,621375,403998
1429.8,0.189926,621616,401417
1433.04,0.193183,622129,398747
1436.27,0.195357,621526,396371
1439.5,0.197945,621113,393755
1442.72,0.200643,620921,391195
1445.94,0.202627,620270,389004
1450.23,0.206619,618860,384568
1453.44,0.209954,617697,380909
1456.64,0.212860,616264,377491
1459.85,0.215461,614413,374110
1463.04,0.218630,612307,370117
1466.24,0.221448,610032,366357
1469.43,0.224669,607345,362048
1473.67,0.229798,603789,355703
1476.85,0.234975,601175,349966
1480.02,0.240532,597737,343541
1483.19,0.247301,594479,336384
1486.36,0.253345,591232,329923
1489.52,0.259004,587853,323791
1492.68,0.262544,583875,318989
1496.89,0.264670,578062,314271
1500.03,0.265691,574159,311416
1503.18,0.265980,570285,309109
1506.32,0.265662,565444,306710
1509.45,0.264358,560571,304981
1512.58,0.263798,555821,302787
1515.71,0.260837,550344,301854
1519.87,0.257586,543983,300607
1522.99,0.254438,538764,299889
1526.1,0.251992,533692,298744
1529.21,0.248716,527902,297740
1532.32,0.245476,521886,296551
1535.42,0.242845,515888,294924
1538.51,0.239729,509987,293650
1541.6,0.235629,503936,292918
1545.72,0.230766,494694,290784
1548.8,0.227454,488378,289269
1551.88,0.225336,481832,286787
1554.95,0.222076,474989,284844
1558.02,0.220762,467818,281394
1561.08,0.219333,460730,278044
1564.15,0.218831,454170,274402
1568.22,0.217000,444181,269501
1571.27,0.216157,436947,265627
1574.32,0.215680,429598,261446
1577.36,0.213795,422039,257963
1580.4,0.211579,414375,254574
1583.43,0.209518,406354,250834
1586.46,0.209106,398475,246204
1590.49,0.206285,388982,241905
1593.51,0.203807,380708,238114
1596.53,0.201528,372727,234349
1599.54,0.198720,365060,231017
1602.55,0.196397,357543,227474
1605.55,0.194224,349495,223469
1608.55,0.191603,341154,219456
1612.54,0.189172,330877,214040
1615.53,0.186185,322904,210324
1618.51,0.185101,315116,205764
1621.49,0.184327,307217,200964
1624.47,0.182463,299481,196746
1627.44,0.182370,292112,191946
1630.41,0.178658,284245,188380
1634.36,0.177354,274079,182189
1637.32,0.176484,266916,177783
1640.27,0.175975,259612,173121
1643.22,0.175330,251804,168164
1646.16,0.173984,244348,163691
1649.1,0.174929,236703,158225
1652.04,0.173336,228171,153082
1655.95,0.171397,215408,145166
1658.88,0.169153,204937,138825
1661.8,0.166843,193395,131705
1664.72,0.163016,179728,123481
1667.63,0.156876,163642,114030
1670.54,0.148978,146312,103825
1673.44,0.143225,128451,92366
1677.31,0.136906,105080,76668
1680.21,0.135263,88906,65113
1683.1,0.133975,75033,55116
1685.99,0.146295,63520,45354
1688.87,0.148013,53714,38201
1691.75,0.152937,45653,32102
1694.62,0.155932,39137,27331
1697.49,0.153933,33776,23696
1701.31,0.162488,28175,19381

File: Column 1_050544_20150331_115709.csv
Method:,Column 1,,
Host Date-Time:,31/3/15 @ 11:57:9,,
Header Version:,1,,
System Temp (C):,32.78,,
Detector Temp (C):,31.24,,
Humidity (%):,2.64,,
Lamp PD:,3823,,
Shift Vector Coefficients:,-10.5391,0.0761263,-0.000134223,,
Pixel to Wavelength Coefficients:,1775.68,-0.916766,-0.000235065,,
Serial Number:,5510004,,
Scan Config Name:,Column 1,,
Scan Config Type:,Slew,,
Section 1,,
Start wavelength (nm):,900,,
End wavelength (nm):,1700,,
Pattern Pixel Width (nm):,   7.03,,,,
Exposure (ms):,  0.635,,,,
Digital Resolution:,228,,
Num Repeats:,6,,
PGA Gain:,64,,
Total Measurement Time in sec:,  2.727,,
Wavelength (nm),Absorbance (AU),Reference Signal (unitless),Sample Signal (unitless)
901.51,0.044636,108485,97889
905.376,0.051566,121306,107725
909.237,0.052583,131909,116867
913.095,0.051841,143299,127175
916.948,0.052960,156982,138960
922.079,0.052608,179937,159409
925.923,0.053581,200504,177232
929.762,0.054021,222660,196617
933.597,0.055081,244426,215311
937.427,0.054400,263972,232894
941.254,0.054329,281845,248703
945.076,0.055208,297271,261785
950.165,0.054787,315605,278200
953.978,0.053689,328029,289883
957.786,0.055447,340470,299662
961.59,0.055341,352317,310165
965.389,0.055387,363056,319585
969.185,0.056082,373162,327956
972.976,0.056423,382632,336015
976.763,0.056486,391202,343491
981.806,0.057593,400190,350488
985.583,0.058268,406088,355101
989.355,0.058960,410162,358093
993.124,0.059790,412868,359767
996.888,0.059972,414263,360831
1000.65,0.060983,415476,361046
1004.4,0.062210,415479,360030
1009.41,0.063190,414358,358250
1013.15,0.063643,412923,356637
1016.89,0.064388,411526,354821
1020.63,0.064286,409066,352783
1024.36,0.064114,406777,350948
1028.09,0.063909,404427,349085
1031.82,0.063560,401911,347192
1036.78,0.062738,398410,344820
1040.49,0.061521,396204,343873
1044.2,0.062008,394236,341781
1047.91,0.061023,392042,340651
1051.61,0.059988,389823,339531
1055.31,0.059875,388234,338235
1059,0.058947,387599,338404
1063.92,0.057753,386688,338538
1067.61,0.056457,386598,339471
1071.29,0.056012,387377,340504
1074.96,0.056055,388536,341489
1078.63,0.055236,389855,343295
1082.3,0.053887,391215,345564
1085.96,0.053158,393215,347914
1090.84,0.052208,396270,351385
1094.49,0.051213,398760,354404
1098.14,0.051486,400987,356159
1101.79,0.051484,403477,358373
1105.43,0.051066,406116,361064
1109.06,0.050074,407701,363302
1112.7,0.050484,409859,364880
1117.53,0.050748,412494,367003
1121.15,0.051722,414909,368325
1124.77,0.052494,416559,369133
1128.38,0.053887,418532,369693
1131.99,0.055057,419956,369953
1135.6,0.057156,421946,369914
1139.2,0.059257,423881,369817
1143.99,0.061705,426786,370259
1147.58,0.063357,428617,370435
1151.17,0.064892,431169,371326
1154.75,0.065942,433579,372500
1158.33,0.068056,436264,372987
1161.91,0.070402,439132,373416
1165.48,0.072868,442389,374056
1169.04,0.076378,446101,374158
1173.79,0.080578,451929,375398
1177.34,0.082820,456026,376851
1180.9,0.085387,461306,378968
1184.44,0.087642,467657,382195
1187.99,0.088777,473969,386343
1191.52,0.087838,479856,391988
1195.06,0.087268,487372,398651
1199.76,0.086008,497347,407992
1203.29,0.084942,504311,414721
1206.81,0.083665,511507,421878
1210.33,0.082099,519078,429669
1213.84,0.080988,527163,437479
1217.35,0.079980,534208,444355
1220.85,0.078901,540472,450684
1225.51,0.078032,549929,459488
1229.01,0.077303,556888,466085
1232.5,0.075931,562180,472003
1235.98,0.075733,567975,477086
1239.46,0.074079,574815,484673
1242.94,0.072831,582782,492805
1246.41,0.072402,591476,500651
1251.03,0.072035,604016,511698
1254.5,0.071903,612289,518864
1257.96,0.072697,619125,523699
1261.41,0.072899,624551,528043
1264.86,0.073250,629900,532135
1268.31,0.073935,634345,535045
1271.75,0.074806,638574,537533
1276.33,0.075061,642499,540520
1279.76,0.075383,645905,542982
1283.19,0.074537,648307,546064
1286.61,0.074289,650446,548179
1290.03,0.073705,652132,550339
1293.44,0.073391,653907,552236
1296.85,0.072874,655963,554632
1301.39,0.072710,657349,556014
1304.8,0.072535,657558,556415
1308.19,0.073175,658515,556404
1311.58,0.073055,658804,556803
1314.97,0.073813,659011,556006
1318.36,0.074227,658272,554854
1321.73,0.075095,658022,553536
1326.23,0.076029,657870,552219
1329.6,0.076826,656482,550043
1332.97,0.078044,654926,547203
1336.33,0.079154,653727,544807
1339.69,0.080958,652497,541527
1343.04,0.083141,649913,536678
1346.39,0.085825,647671,531532
1349.73,0.087869,645338,527131
1354.18,0.091485,641175,519388
1357.52,0.093836,638376,514328
1360.85,0.095991,635805,509722
1364.17,0.098880,633413,504437
1367.49,0.101028,631026,500057
1370.81,0.103968,628050,494341
1374.12,0.106714,625034,488866
1378.54,0.110592,620272,480828
1381.84,0.114953,616892,473430
1385.14,0.118713,613613,466855
1388.43,0.124351,611526,459266
1391.72,0.130029,610663,452660
1395.01,0.135449,610634,447025
1398.29,0.141822,611700,441282
1402.66,0.150337,614051,434378
1405.93,0.156603,616268,429701
1409.2,0.162468,617795,424988
1412.46,0.168918,618872,419453
1415.72,0.173811,619795,415372
1418.98,0.179065,620495,410841
1422.23,0.182655,621087,407847
1426.56,0.187788,621375,403242
1429.8,0.190418,621616,400963
1433.04,0.193641,622129,398327
1436.27,0.195956,621526,395825
1439.5,0.197920,621113,393777
1442.72,0.200634,620921,391203
1445.94,0.203455,620270,388263
1450.23,0.207200,618860,384054
1453.44,0.210186,617697,380706
1456.64,0.212974,616264,377392
1459.85,0.215549,614413,374034
1463.04,0.218350,612307,370356
1466.24,0.221258,610032,366517
1469.43,0.225058,607345,361724
1473.67,0.230481,603789,355144
1476.85,0.235415,601175,349612
1480.02,0.240827,597737,343307
1483.19,0.247659,594479,336107
1486.36,0.253289,591232,329966
1489.52,0.258667,587853,324042
1492.68,0.262943,583875,318696
1496.89,0.265614,578062,313589
1500.03,0.265411,574159,311617
1503.18,0.266477,570285,308756
1506.32,0.265611,565444,306746
1509.45,0.264983,560571,304542
1512.58,0.263456,555821,303025
1515.71,0.261252,550344,301566
1519.87,0.257976,543983,300337
1522.99,0.255861,538764,298908
1526.1,0.252637,533692,298300
1529.21,0.249244,527902,297378
1532.32,0.246158,521886,296086
1535.42,0.242689,515888,295030
1538.51,0.239555,509987,293768
1541.6,0.235852,503936,292768
1545.72,0.230914,494694,290685
1548.8,0.228126,488378,288822
1551.88,0.225023,481832,286994
1554.95,0.222464,474989,284590
1558.02,0.219923,467818,281938
1561.08,0.219516,460730,277927
1564.15,0.218803,454170,274420
1568.22,0.217850,444181,268974
1571.27,0.216801,436947,265233
1574.32,0.215617,429598,261484
1577.36,0.213745,422039,257993
1580.4,0.212382,414375,254104
1583.43,0.210541,406354,250244
1586.46,0.209125,398475,246193
1590.49,0.206286,388982,241904
1593.51,0.203966,380708,238027
1596.53,0.201748,372727,234230
1599.54,0.199038,365060,230848
1602.55,0.196402,357543,227471
1605.55,0.194350,349495,223404
1608.55,0.192270,341154,219119
1612.54,0.190053,330877,213606
1615.53,0.187324,322904,209773
1618.51,0.185536,315116,205558
1621.49,0.184636,307217,200821
1624.47,0.182567,299481,196699
1627.44,0.181563,292112,192303
1630.41,0.181030,284245,187354
1634.36,0.176796,274079,182423
1637.32,0.177237,266916,177475
1640.27,0.175764,259612,173205
1643.22,0.175110,251804,168249
1646.16,0.174406,244348,163532
1649.1,0.174377,236703,158426
1652.04,0.172274,228171,153457
1655.95,0.169355,215408,145850
1658.88,0.167488,204937,139358
1661.8,0.164915,193395,132291
1664.72,0.161692,179728,123858
1667.63,0.155442,163642,114407
1670.54,0.149765,146312,103637
1673.44,0.142187,128451,92587
1677.31,0.135814,105080,76861
1680.21,0.131882,88906,65622
1683.1,0.132009,75033,55366
1685.99,0.138184,63520,46209
1688.87,0.141211,53714,38804
1691.75,0.149367,45653,32367
1694.62,0.149012,39137,27770
1697.49,0.152396,33776,23780
1701.31,0.162017,28175,19402

File: Column 1_050544_20150331_115715.csv
Method:,Column 1,,
Host Date-Time:,31/3/15 @ 11:57:15,,
Header Version:,1,,
System Temp (C):,32.79,,
Detector Temp (C):,31.32,,
Humidity (%):,2.54,,
Lamp PD:,3823,,
Shift Vector Coefficients:,-10.5391,0.0761263,-0.000134223,,
Pixel to Wavelength Coefficients:,1775.68,-0.916766,-0.000235065,,
Serial Number:,5510004,,
Scan Config Name:,Column 1,,
Scan Config Type:,Slew,,
Section 1,,
Start wavelength (nm):,900,,
End wavelength (nm):,1700,,
Pattern Pixel Width (nm):,   7.03,,,,
Exposure (ms):,  0.635,,,,
Digital Resolution:,228,,
Num Repeats:,6,,
PGA Gain:,64,,
Total Measurement Time in sec:,  2.680,,
Wavelength (nm),Absorbance (AU),Reference Signal (unitless),Sample Signal (unitless)
901.51,0.042754,108485,98314
905.376,0.049868,121306,108147
909.237,0.052564,131909,116872
913.095,0.052125,143299,127092
916.948,0.052813,156982,139007
922.079,0.052676,179937,159384
925.923,0.052895,200504,177512
929.762,0.054565,222660,196371
933.597,0.055305,244426,215200
937.427,0.054549,263972,232814
941.254,0.054506,281845,248602
945.076,0.054364,297271,262294
950.165,0.053807,315605,278828
953.978,0.054070,328029,289629
957.786,0.054756,340470,300139
961.59,0.054662,352317,310650
965.389,0.054376,363056,320330
969.185,0.055061,373162,328728
972.976,0.055426,382632,336787
976.763,0.056768,391202,343268
981.806,0.056589,400190,351299
985.583,0.058241,406088,355123
989.355,0.058776,410162,358244
993.124,0.058929,412868,360481
996.888,0.059668,414263,361084
1000.65,0.060662,415476,361313
1004.4,0.061374,415479,360724
1009.41,0.062911,414358,358480
1013.15,0.063125,412923,357062
1016.89,0.063841,411526,355268
1020.63,0.063875,409066,353117
1024.36,0.063673,406777,351304
1028.09,0.063115,404427,349724
1031.82,0.062936,401911,347691
1036.78,0.062225,398410,345227
1040.49,0.061336,396204,344019
1044.2,0.061933,394236,341840
1047.91,0.060462,392042,341091
1051.61,0.059726,389823,339736
1055.31,0.059168,388234,338786
1059,0.058783,387599,338532
1063.92,0.057973,386688,338367
1067.61,0.056062,386598,339780
1071.29,0.056474,387377,340142
1074.96,0.054717,388536,342542
1078.63,0.054376,389855,343975
1082.3,0.053701,391215,345712
1085.96,0.052900,393215,348121
1090.84,0.051825,396270,351695
1094.49,0.050973,398760,354600
1098.14,0.051340,400987,356279
1101.79,0.051452,403477,358399
1105.43,0.051091,406116,361043
1109.06,0.050877,407701,362631
1112.7,0.050712,409859,364689
1117.53,0.050404,412494,367294
1121.15,0.051566,414909,368457
1124.77,0.051625,416559,369872
1128.38,0.052932,418532,370507
1131.99,0.055072,419956,369940
1135.6,0.057436,421946,369676
1139.2,0.059238,423881,369833
1143.99,0.061930,426786,370067
1147.58,0.063137,428617,370623
1151.17,0.064463,431169,371693
1154.75,0.066155,433579,372317
1158.33,0.068120,436264,372932
1161.91,0.070528,439132,373308
1165.48,0.072923,442389,374008
1169.04,0.076225,446101,374290
1173.79,0.080423,451929,375532
1177.34,0.083189,456026,376531
1180.9,0.085735,461306,378664
1184.44,0.086965,467657,382792
1187.99,0.088297,473969,386770
1191.52,0.087516,479856,392279
1195.06,0.087657,487372,398294
1199.76,0.086115,497347,407891
1203.29,0.084335,504311,415301
1206.81,0.083597,511507,421944
1210.33,0.082127,519078,429641
1213.84,0.082363,527163,436096
1217.35,0.079972,534208,444363
1220.85,0.078867,540472,450719
1225.51,0.077369,549929,460191
1229.01,0.077004,556888,466406
1232.5,0.075860,562180,472080
1235.98,0.075409,567975,477442
1239.46,0.074589,574815,484104
1242.94,0.072679,582782,492977
1246.41,0.071989,591476,501127
1251.03,0.071488,604016,512343
1254.5,0.071679,612289,519132
1257.96,0.072107,619125,524411
1261.41,0.072556,624551,528460
1264.86,0.073410,629900,531939
1268.31,0.073742,634345,535283
1271.75,0.074842,638574,537488
1276.33,0.074999,642499,540597
1279.76,0.074960,645905,543512
1283.19,0.074145,648307,546557
1286.61,0.073735,650446,548879
1290.03,0.073641,652132,550420
1293.44,0.072937,653907,552814
1296.85,0.072722,655963,554827
1301.39,0.072656,657349,556083
1304.8,0.072307,657558,556707
1308.19,0.072658,658515,557067
1311.58,0.073006,658804,556865
1314.97,0.073303,659011,556659
1318.36,0.074004,658272,555138
1321.73,0.074336,658022,554504
1326.23,0.075284,657870,553167
1329.6,0.076855,656482,550007
1332.97,0.077669,654926,547676
1336.33,0.078978,653727,545027
1339.69,0.080853,652497,541659
1343.04,0.082503,649913,537467
1346.39,0.085152,647671,532356
1349.73,0.087638,645338,527411
1354.18,0.091066,641175,519889
1357.52,0.093287,638376,514979
1360.85,0.095928,635805,509796
1364.17,0.098222,633413,505202
1367.49,0.101072,631026,500006
1370.81,0.104190,628050,494088
1374.12,0.106442,625034,489172
1378.54,0.110713,620272,480694
1381.84,0.114429,616892,474002
1385.14,0.118567,613613,467011
1388.43,0.123927,611526,459714
1391.72,0.129471,610663,453243
1395.01,0.134678,610634,447819
1398.29,0.141368,611700,441744
1402.66,0.149781,614051,434934
1405.93,0.155933,616268,430365
1409.2,0.162697,617795,424764
1412.46,0.168492,618872,419864
1415.72,0.173270,619795,415890
1418.98,0.178416,620495,411455
1422.23,0.182235,621087,408242
1426.56,0.186761,621375,404197
1429.8,0.189593,621616,401725
1433.04,0.192909,622129,398999
1436.27,0.195168,621526,396544
1439.5,0.197425,621113,394226
1442.72,0.199944,620921,391825
1445.94,0.202620,620270,389010
1450.23,0.206182,618860,384955
1453.44,0.209140,617697,381624
1456.64,0.212064,616264,378184
1459.85,0.215070,614413,374447
1463.04,0.217311,612307,371243
1466.24,0.220620,610032,367056
1469.43,0.223651,607345,362898
1473.67,0.229557,603789,355900
1476.85,0.234380,601175,350446
1480.02,0.240697,597737,343410
1483.19,0.247033,594479,336592
1486.36,0.252755,591232,330372
1489.52,0.258341,587853,324286
1492.68,0.260894,583875,320203
1496.89,0.264254,578062,314572
1500.03,0.265963,574159,311221
1503.18,0.265628,570285,309360
1506.32,0.265714,565444,306673
1509.45,0.264197,560571,305094
1512.58,0.262237,555821,303877
1515.71,0.260633,550344,301996
1519.87,0.257095,543983,300947
1522.99,0.254286,538764,299994
1526.1,0.251775,533692,298893
1529.21,0.248664,527902,297776
1532.32,0.245611,521886,296459
1535.42,0.241767,515888,295657
1538.51,0.239234,509987,293985
1541.6,0.235717,503936,292859
1545.72,0.230568,494694,290917
1548.8,0.227411,488378,289298
1551.88,0.224359,481832,287433
1554.95,0.222249,474989,284731
1558.02,0.219916,467818,281943
1561.08,0.219083,460730,278204
1564.15,0.218682,454170,274496
1568.22,0.216045,444181,270094
1571.27,0.216081,436947,265673
1574.32,0.215076,429598,261810
1577.36,0.213104,422039,258374
1580.4,0.211520,414375,254609
1583.43,0.210239,406354,250418
1586.46,0.207936,398475,246868
1590.49,0.205671,388982,242247
1593.51,0.203606,380708,238224
1596.53,0.200626,372727,234836
1599.54,0.199287,365060,230716
1602.55,0.195944,357543,227711
1605.55,0.193860,349495,223656
1608.55,0.191696,341154,219409
1612.54,0.188963,330877,214143
1615.53,0.186616,322904,210115
1618.51,0.185171,315116,205731
1621.49,0.183246,307217,201465
1624.47,0.181650,299481,197115
1627.44,0.181069,292112,192522
1630.41,0.179022,284245,188222
1634.36,0.177656,274079,182062
1637.32,0.176423,266916,177808
1640.27,0.175647,259612,173252
1643.22,0.173556,251804,168852
1646.16,0.173584,244348,163842
1649.1,0.172809,236703,158999
1652.04,0.171448,228171,153749
1655.95,0.168957,215408,145984
1658.88,0.167947,204937,139211
1661.8,0.165299,193395,132174
1664.72,0.161664,179728,123866
1667.63,0.154687,163642,114606
1670.54,0.148038,146312,104050
1673.44,0.141901,128451,92648
1677.31,0.132560,105080,77439
1680.21,0.130230,88906,65872
1683.1,0.132284,75033,55331
1685.99,0.141590,63520,45848
1688.87,0.142466,53714,38692
1691.75,0.146372,45653,32591
1694.62,0.149215,39137,27757
1697.49,0.152670,33776,23765
1701.31,0.155067,28175,19715