Folder: textile_sorting_NIRSCAN_/samples/wool/wool-000811 (part 66)

File: Column 1_050566_20150331_120732.csv
Method:,Column 1,,
Host Date-Time:,31/3/15 @ 12:7:32,,
Header Version:,1,,
System Temp (C):,33.93,,
Detector Temp (C):,33.86,,
Humidity (%):,1.86,,
Lamp PD:,3819,,
Shift Vector Coefficients:,-10.5391,0.0761263,-0.000134223,,
Pixel to Wavelength Coefficients:,1775.68,-0.916766,-0.000235065,,
Serial Number:,5510004,,
Scan Config Name:,Column 1,,
Scan Config Type:,Slew,,
Section 1,,
Start wavelength (nm):,900,,
End wavelength (nm):,1700,,
Pattern Pixel Width (nm):,   7.03,,,,
Exposure (ms):,  0.635,,,,
Digital Resolution:,228,,
Num Repeats:,6,,
PGA Gain:,64,,
Total Measurement Time in sec:,  2.692,,
Wavelength (nm),Absorbance (AU),Reference Signal (unitless),Sample Signal (unitless)
901.51,0.033753,108485,100373
905.376,0.039413,121306,110782
909.237,0.042195,131909,119696
913.095,0.043340,143299,129689
916.948,0.045063,156982,141510
922.079,0.047117,179937,161437
925.923,0.047225,200504,179845
929.762,0.047071,222660,199789
933.597,0.048694,244426,218501
937.427,0.047022,263972,236884
941.254,0.047866,281845,252432
945.076,0.047491,297271,266478
950.165,0.046580,315605,283507
953.978,0.046053,328029,295025
957.786,0.046132,340470,306159
961.59,0.047003,352317,316177
965.389,0.046893,363056,325897
969.185,0.046630,373162,335172
972.976,0.047235,382632,343199
976.763,0.047794,391202,350435
981.806,0.049008,400190,357485
985.583,0.049397,406088,362429
989.355,0.049252,410162,366187
993.124,0.049959,412868,368004
996.888,0.050825,414263,368512
1000.65,0.051609,415476,368924
1004.4,0.052114,415479,368498
1009.41,0.054033,414358,365883
1013.15,0.054467,412923,364252
1016.89,0.054809,411526,362734
1020.63,0.055054,409066,360362
1024.36,0.054818,406777,358541
1028.09,0.054790,404427,356492
1031.82,0.054919,401911,354169
1036.78,0.053548,398410,352194
1040.49,0.053597,396204,350205
1044.2,0.052958,394236,348978
1047.91,0.052828,392042,347140
1051.61,0.052441,389823,345483
1055.31,0.051475,388234,344841
1059,0.050896,387599,344736
1063.92,0.050340,386688,344366
1067.61,0.049298,386598,345113
1071.29,0.048728,387377,346263
1074.96,0.048714,388536,347310
1078.63,0.047996,389855,349066
1082.3,0.046949,391215,351129
1085.96,0.046606,393215,353203
1090.84,0.046105,396270,356358
1094.49,0.045376,398760,359199
1098.14,0.045479,400987,361120
1101.79,0.045144,403477,363643
1105.43,0.044742,406116,366360
1109.06,0.043943,407701,368467
1112.7,0.044369,409859,370054
1117.53,0.044255,412494,372531
1121.15,0.044839,414909,374209
1124.77,0.045435,416559,375182
1128.38,0.046347,418532,376168
1131.99,0.048149,419956,375885
1135.6,0.049718,421946,376304
1139.2,0.051679,423881,376327
1143.99,0.054196,426786,376716
1147.58,0.055649,428617,377069
1151.17,0.056200,431169,378833
1154.75,0.057794,433579,379555
1158.33,0.059456,436264,380446
1161.91,0.060893,439132,381682
1165.48,0.064161,442389,381631
1169.04,0.066298,446101,382944
1173.79,0.070335,451929,384357
1177.34,0.072209,456026,386172
1180.9,0.074823,461306,388299
1184.44,0.076925,467657,391744
1187.99,0.077606,473969,396409
1191.52,0.077731,479856,401218
1195.06,0.077068,487372,408124
1199.76,0.076265,497347,417248
1203.29,0.075421,504311,423914
1206.81,0.074646,511507,430730
1210.33,0.073729,519078,438030
1213.84,0.072496,527163,446117
1217.35,0.072030,534208,452564
1220.85,0.071351,540472,458588
1225.51,0.070444,549929,467587
1229.01,0.069733,556888,474280
1232.5,0.069278,562180,479289
1235.98,0.068546,567975,485046
1239.46,0.067193,574815,492419
1242.94,0.066634,582782,499887
1246.41,0.065648,591476,508498
1251.03,0.065324,604016,519666
1254.5,0.066129,612289,525808
1257.96,0.066270,619125,531506
1261.41,0.066765,624551,535554
1264.86,0.068103,629900,538479
1268.31,0.068016,634345,542387
1271.75,0.068872,638574,544928
1276.33,0.068915,642499,548223
1279.76,0.069243,645905,550713
1283.19,0.068461,648307,553757
1286.61,0.068069,650446,556086
1290.03,0.067901,652132,557744
1293.44,0.067544,653907,559722
1296.85,0.067345,655963,561739
1301.39,0.067175,657349,563146
1304.8,0.066833,657558,563769
1308.19,0.067072,658515,564279
1311.58,0.067272,658804,564267
1314.97,0.067902,659011,563626
1318.36,0.068482,658272,562242
1321.73,0.068876,658022,561519
1326.23,0.069661,657870,560376
1329.6,0.070891,656482,557612
1332.97,0.071600,654926,555382
1336.33,0.072590,653727,553103
1339.69,0.074345,652497,549837
1343.04,0.076530,649913,544910
1346.39,0.078478,647671,540600
1349.73,0.080797,645338,535784
1354.18,0.083609,641175,528893
1357.52,0.086049,638376,523634
1360.85,0.088384,635805,518728
1364.17,0.090448,633413,514326
1367.49,0.092886,631026,509520
1370.81,0.095415,628050,504172
1374.12,0.097873,625034,498920
1378.54,0.100783,620272,491812
1381.84,0.104214,616892,485283
1385.14,0.108518,613613,477943
1388.43,0.113131,611526,471285
1391.72,0.117442,610663,465972
1395.01,0.122201,610634,460872
1398.29,0.127824,611700,455737
1402.66,0.134757,614051,450243
1405.93,0.140658,616268,445771
1409.2,0.146085,617795,441326
1412.46,0.150715,618872,437407
1415.72,0.155385,619795,433374
1418.98,0.159588,620495,429685
1422.23,0.163691,621087,426051
1426.56,0.167701,621375,422331
1429.8,0.170746,621616,419543
1433.04,0.173348,622129,417381
1436.27,0.175690,621526,414734
1439.5,0.177171,621113,413047
1442.72,0.180777,620921,409505
1445.94,0.182831,620270,407146
1450.23,0.186231,618860,403052
1453.44,0.189211,617697,399544
1456.64,0.192382,616264,395717
1459.85,0.195499,614413,391707
1463.04,0.198252,612307,387898
1466.24,0.201374,610032,383688
1469.43,0.205031,607345,378795
1473.67,0.210899,603789,371523
1476.85,0.217083,601175,364685
1480.02,0.223059,597737,357644
1483.19,0.230024,594479,350036
1486.36,0.235821,591232,343508
1489.52,0.241223,587853,337323
1492.68,0.245075,583875,332082
1496.89,0.247613,578062,326860
1500.03,0.247826,574159,324494
1503.18,0.248279,570285,321968
1506.32,0.247191,565444,320036
1509.45,0.245629,560571,318421
1512.58,0.244135,555821,316811
1515.71,0.241708,550344,315447
1519.87,0.238824,543983,313878
1522.99,0.235194,538764,313476
1526.1,0.232785,533692,312252
1529.21,0.229962,527902,310879
1532.32,0.227192,521886,309303
1535.42,0.224514,515888,307639
1538.51,0.221473,509987,306257
1541.6,0.217562,503936,305361
1545.72,0.213271,494694,302737
1548.8,0.209905,488378,301197
1551.88,0.207499,481832,298811
1554.95,0.204969,474989,296288
1558.02,0.203098,467818,293075
1561.08,0.202374,460730,289116
1564.15,0.201386,454170,285649
1568.22,0.200470,444181,279956
1571.27,0.199465,436947,276035
1574.32,0.198687,429598,271879
1577.36,0.197675,422039,267718
1580.4,0.196022,414375,263859
1583.43,0.194197,406354,259841
1586.46,0.192825,398475,255609
1590.49,0.190728,388982,250727
1593.51,0.187609,380708,247163
1596.53,0.186416,372727,242647
1599.54,0.183066,365060,239496
1602.55,0.180989,357543,235689
1605.55,0.179419,349495,231218
1608.55,0.176781,341154,227075
1612.54,0.174946,330877,221167
1615.53,0.172328,322904,217143
1618.51,0.170548,315116,212776
1621.49,0.170710,307217,207365
1624.47,0.168937,299481,202970
1627.44,0.168433,292112,198206
1630.41,0.166350,284245,193795
1634.36,0.165331,274079,187303
1637.32,0.166077,266916,182095
1640.27,0.162901,259612,178412
1643.22,0.161450,251804,173625
1646.16,0.162594,244348,168041
1649.1,0.160891,236703,163423
1652.04,0.160261,228171,157761
1655.95,0.157110,215408,150021
1658.88,0.154230,204937,143678
1661.8,0.149547,193395,137056
1664.72,0.142789,179728,129368
1667.63,0.132227,163642,120689
1670.54,0.121042,146312,110723
1673.44,0.104722,128451,100929
1677.31,0.090357,105080,85342
1680.21,0.084159,88906,73244
1683.1,0.079129,75033,62535
1685.99,0.085232,63520,52201
1688.87,0.083370,53714,44332
1691.75,0.086331,45653,37423
1694.62,0.103713,39137,30823
1697.49,0.094982,33776,27141
1701.31,0.108825,28175,21930

File: Column 1_050566_20150331_120735.csv
Method:,Column 1,,
Host Date-Time:,31/3/15 @ 12:7:35,,
Header Version:,1,,
System Temp (C):,33.93,,
Detector Temp (C):,33.76,,
Humidity (%):,1.86,,
Lamp PD:,3819,,
Shift Vector Coefficients:,-10.5391,0.0761263,-0.000134223,,
Pixel to Wavelength Coefficients:,1775.68,-0.916766,-0.000235065,,
Serial Number:,5510004,,
Scan Config Name:,Column 1,,
Scan Config Type:,Slew,,
Section 1,,
Start wavelength (nm):,900,,
End wavelength (nm):,1700,,
Pattern Pixel Width (nm):,   7.03,,,,
Exposure (ms):,  0.635,,,,
Digital Resolution:,228,,
Num Repeats:,6,,
PGA Gain:,64,,
Total Measurement Time in sec:,  2.718,,
Wavelength (nm),Absorbance (AU),Reference Signal (unitless),Sample Signal (unitless)
901.51,0.034550,108485,100189
905.376,0.041559,121306,110236
909.237,0.042685,131909,119561
913.095,0.043253,143299,129715
916.948,0.044642,156982,141647
922.079,0.047012,179937,161476
925.923,0.048625,200504,179266
929.762,0.049307,222660,198763
933.597,0.049193,244426,218250
937.427,0.048013,263972,236344
941.254,0.048574,281845,252021
945.076,0.047485,297271,266482
950.165,0.046870,315605,283318
953.978,0.046573,328029,294672
957.786,0.047039,340470,305520
961.59,0.047344,352317,315929
965.389,0.047356,363056,325550
969.185,0.047692,373162,334353
972.976,0.047376,382632,343088
976.763,0.048345,391202,349990
981.806,0.048866,400190,357602
985.583,0.049497,406088,362346
989.355,0.049920,410162,365625
993.124,0.050501,412868,367545
996.888,0.050880,414263,368465
1000.65,0.051613,415476,368921
1004.4,0.052909,415479,367824
1009.41,0.054215,414358,365730
1013.15,0.055048,412923,363765
1016.89,0.054959,411526,362609
1020.63,0.055145,409066,360287
1024.36,0.054864,406777,358503
1028.09,0.054539,404427,356698
1031.82,0.055192,401911,353947
1036.78,0.054659,398410,351294
1040.49,0.054166,396204,349746
1044.2,0.053894,394236,348227
1047.91,0.053814,392042,346353
1051.61,0.053013,389823,345028
1055.31,0.052210,388234,344258
1059,0.051552,387599,344216
1063.92,0.050576,386688,344179
1067.61,0.049788,386598,344724
1071.29,0.049913,387377,345319
1074.96,0.048581,388536,347416
1078.63,0.048302,389855,348820
1082.3,0.047259,391215,350878
1085.96,0.047428,393215,352535
1090.84,0.045922,396270,356508
1094.49,0.046449,398760,358313
1098.14,0.046594,400987,360194
1101.79,0.045048,403477,363723
1105.43,0.045285,406116,365902
1109.06,0.045086,407701,367499
1112.7,0.045127,409859,369409
1117.53,0.044452,412494,372362
1121.15,0.045038,414909,374037
1124.77,0.045608,416559,375032
1128.38,0.046938,418532,375656
1131.99,0.048767,419956,375350
1135.6,0.050876,421946,375302
1139.2,0.052127,423881,375939
1143.99,0.054713,426786,376268
1147.58,0.056022,428617,376745
1151.17,0.056028,431169,378983
1154.75,0.057879,433579,379480
1158.33,0.059007,436264,380840
1161.91,0.062107,439132,380617
1165.48,0.064331,442389,381481
1169.04,0.066857,446101,382451
1173.79,0.070524,451929,384190
1177.34,0.073147,456026,385339
1180.9,0.075091,461306,388059
1184.44,0.077160,467657,391532
1187.99,0.078037,473969,396016
1191.52,0.077523,479856,401410
1195.06,0.077196,487372,408004
1199.76,0.076819,497347,416716
1203.29,0.075812,504311,423532
1206.81,0.074505,511507,430870
1210.33,0.074139,519078,437616
1213.84,0.072915,527163,445687
1217.35,0.072460,534208,452117
1220.85,0.071644,540472,458278
1225.51,0.071057,549929,466928
1229.01,0.070524,556888,473417
1232.5,0.069657,562180,478871
1235.98,0.069300,567975,484205
1239.46,0.067974,574815,491535
1242.94,0.066743,582782,499762
1246.41,0.066022,591476,508060
1251.03,0.066306,604016,518492
1254.5,0.066472,612289,525393
1257.96,0.066659,619125,531030
1261.41,0.067394,624551,534778
1264.86,0.068165,629900,538402
1268.31,0.068471,634345,541819
1271.75,0.069438,638574,544218
1276.33,0.069837,642499,547061
1279.76,0.069541,645905,550336
1283.19,0.068944,648307,553142
1286.61,0.068278,650446,555819
1290.03,0.068131,652132,557448
1293.44,0.067359,653907,559960
1296.85,0.067679,655963,561307
1301.39,0.067407,657349,562845
1304.8,0.067325,657558,563130
1308.19,0.067520,658515,563697
1311.58,0.067680,658804,563736
1314.97,0.068114,659011,563351
1318.36,0.068732,658272,561918
1321.73,0.068873,658022,561523
1326.23,0.069621,657870,560427
1329.6,0.070712,656482,557842
1332.97,0.072002,654926,554869
1336.33,0.073034,653727,552538
1339.69,0.074971,652497,549045
1343.04,0.076758,649913,544624
1346.39,0.078625,647671,540417
1349.73,0.080853,645338,535716
1354.18,0.084129,641175,528260
1357.52,0.086192,638376,523461
1360.85,0.088192,635805,518958
1364.17,0.090639,633413,514100
1367.49,0.093338,631026,508990
1370.81,0.095400,628050,504190
1374.12,0.098092,625034,498668
1378.54,0.101341,620272,491181
1381.84,0.104820,616892,484606
1385.14,0.108435,613613,478035
1388.43,0.113416,611526,470976
1391.72,0.118124,610663,465241
1395.01,0.122675,610634,460369
1398.29,0.127570,611700,456004
1402.66,0.134763,614051,450237
1405.93,0.141014,616268,445406
1409.2,0.146416,617795,440990
1412.46,0.151365,618872,436753
1415.72,0.155905,619795,432856
1418.98,0.160000,620495,429278
1422.23,0.163799,621087,425945
1426.56,0.167879,621375,422158
1429.8,0.170876,621616,419417
1433.04,0.173404,622129,417327
1436.27,0.176009,621526,414429
1439.5,0.177936,621113,412320
1442.72,0.180851,620921,409435
1445.94,0.183541,620270,406481
1450.23,0.187138,618860,402211
1453.44,0.189992,617697,398826
1456.64,0.192792,616264,395344
1459.85,0.195499,614413,391707
1463.04,0.198703,612307,387495
1466.24,0.201474,610032,383600
1469.43,0.205689,607345,378222
1473.67,0.212236,603789,370381
1476.85,0.217442,601175,364384
1480.02,0.223351,597737,357404
1483.19,0.230126,594479,349954
1486.36,0.236236,591232,343180
1489.52,0.241107,587853,337413
1492.68,0.245578,583875,331697
1496.89,0.248005,578062,326565
1500.03,0.248140,574159,324259
1503.18,0.248680,570285,321671
1506.32,0.247504,565444,319805
1509.45,0.245843,560571,318264
1512.58,0.243758,555821,317086
1515.71,0.242431,550344,314922
1519.87,0.238820,543983,313881
1522.99,0.236561,538764,312491
1526.1,0.233657,533692,311626
1529.21,0.230283,527902,310649
1532.32,0.227375,521886,309172
1535.42,0.224616,515888,307567
1538.51,0.221293,509987,306384
1541.6,0.217964,503936,305078
1545.72,0.213026,494694,302908
1548.8,0.211085,488378,300380
1551.88,0.207774,481832,298622
1554.95,0.206056,474989,295548
1558.02,0.203657,467818,292698
1561.08,0.202507,460730,289028
1564.15,0.202413,454170,284974
1568.22,0.200613,444181,279864
1571.27,0.200395,436947,275444
1574.32,0.199492,429598,271375
1577.36,0.198581,422039,267160
1580.4,0.195953,414375,263901
1583.43,0.194988,406354,259368
1586.46,0.193881,398475,254988
1590.49,0.190749,388982,250715
1593.51,0.188536,380708,246636
1596.53,0.186491,372727,242605
1599.54,0.183995,365060,238984
1602.55,0.181223,357543,235562
1605.55,0.179994,349495,230912
1608.55,0.177036,341154,226942
1612.54,0.174885,330877,221198
1615.53,0.173654,322904,216481
1618.51,0.171701,315116,212212
1621.49,0.171095,307217,207181
1624.47,0.169471,299481,202721
1627.44,0.168054,292112,198379
1630.41,0.167328,284245,193359
1634.36,0.166504,274079,186798
1637.32,0.164736,266916,182658
1640.27,0.164843,259612,177616
1643.22,0.163202,251804,172926
1646.16,0.162508,244348,168074
1649.1,0.161148,236703,163326
1652.04,0.159373,228171,158084
1655.95,0.158159,215408,149659
1658.88,0.154028,204937,143745
1661.8,0.150296,193395,136820
1664.72,0.143353,179728,129200
1667.63,0.133651,163642,120294
1670.54,0.119992,146312,110991
1673.44,0.110143,128451,99677
1677.31,0.094329,105080,84565
1680.21,0.086096,88906,72918
1683.1,0.079143,75033,62533
1685.99,0.085781,63520,52135
1688.87,0.086615,53714,44002
1691.75,0.089791,45653,37126
1694.62,0.097224,39137,31287
1697.49,0.109313,33776,26260
1701.31,0.113304,28175,21705

File: Column 1_050567_20150331_120750.csv
Method:,Column 1,,
Host Date-Time:,31/3/15 @ 12:7:50,,
Header Version:,1,,
System Temp (C):,33.95,,
Detector Temp (C):,33.83,,
Humidity (%):,1.86,,
Lamp PD:,3818,,
Shift Vector Coefficients:,-10.5391,0.0761263,-0.000134223,,
Pixel to Wavelength Coefficients:,1775.68,-0.916766,-0.000235065,,
Serial Number:,5510004,,
Scan Config Name:,Column 1,,
Scan Config Type:,Slew,,
Section 1,,
Start wavelength (nm):,900,,
End wavelength (nm):,1700,,
Pattern Pixel Width (nm):,   7.03,,,,
Exposure (ms):,  0.635,,,,
Digital Resolution:,228,,
Num Repeats:,6,,
PGA Gain:,64,,
Total Measurement Time in sec:,  2.693,,
Wavelength (nm),Absorbance (AU),Reference Signal (unitless),Sample Signal (unitless)
901.51,0.034875,108485,100114
905.376,0.040119,121306,110602
909.237,0.041575,131909,119867
913.095,0.043591,143299,129614
916.948,0.045619,156982,141329
922.079,0.046359,179937,161719
925.923,0.048344,200504,179382
929.762,0.047717,222660,199492
933.597,0.049074,244426,218310
937.427,0.049040,263972,235786
941.254,0.048128,281845,252280
945.076,0.046755,297271,266930
950.165,0.047015,315605,283223
953.978,0.046369,328029,294811
957.786,0.046386,340470,305980
961.59,0.046559,352317,316501
965.389,0.046594,363056,326122
969.185,0.047190,373162,334740
972.976,0.047937,382632,342645
976.763,0.047719,391202,350495
981.806,0.048530,400190,357879
985.583,0.049801,406088,362092
989.355,0.050280,410162,365322
993.124,0.050557,412868,367497
996.888,0.051038,414263,368331
1000.65,0.052263,415476,368369
1004.4,0.052687,415479,368012
1009.41,0.054031,414358,365885
1013.15,0.055020,412923,363789
1016.89,0.055321,411526,362307
1020.63,0.055318,409066,360143
1024.36,0.054825,406777,358535
1028.09,0.055167,404427,356183
1031.82,0.054680,401911,354364
1036.78,0.053879,398410,351926
1040.49,0.053909,396204,349953
1044.2,0.053961,394236,348173
1047.91,0.053279,392042,346780
1051.61,0.052751,389823,345236
1055.31,0.052759,388234,343823
1059,0.052173,387599,343724
1063.92,0.050258,386688,344431
1067.61,0.050371,386598,344262
1071.29,0.049309,387377,345800
1074.96,0.048361,388536,347592
1078.63,0.048643,389855,348546
1082.3,0.047295,391215,350849
1085.96,0.046407,393215,353365
1090.84,0.045848,396270,356569
1094.49,0.045500,398760,359097
1098.14,0.045386,400987,361197
1101.79,0.044387,403477,364277
1105.43,0.044845,406116,366273
1109.06,0.044198,407701,368251
1112.7,0.044867,409859,369630
1117.53,0.044185,412494,372591
1121.15,0.045395,414909,373730
1124.77,0.045578,416559,375058
1128.38,0.046871,418532,375714
1131.99,0.048296,419956,375758
1135.6,0.050255,421946,375839
1139.2,0.051473,423881,376505
1143.99,0.054326,426786,376603
1147.58,0.055152,428617,377500
1151.17,0.056724,431169,378376
1154.75,0.058114,433579,379275
1158.33,0.059461,436264,380442
1161.91,0.061325,439132,381303
1165.48,0.064270,442389,381535
1169.04,0.066905,446101,382409
1173.79,0.070207,451929,384471
1177.34,0.072609,456026,385816
1180.9,0.075077,461306,388072
1184.44,0.076382,467657,392234
1187.99,0.077786,473969,396245
1191.52,0.077987,479856,400981
1195.06,0.077315,487372,407892
1199.76,0.076395,497347,417123
1203.29,0.075390,504311,423944
1206.81,0.074944,511507,430435
1210.33,0.073474,519078,438287
1213.84,0.073097,527163,445500
1217.35,0.072364,534208,452216
1220.85,0.071477,540472,458454
1225.51,0.070378,549929,467658
1229.01,0.070334,556888,473624
1232.5,0.069534,562180,479006
1235.98,0.069000,567975,484539
1239.46,0.067878,574815,491643
1242.94,0.066882,582782,499602
1246.41,0.066064,591476,508011
1251.03,0.066111,604016,518725
1254.5,0.066407,612289,525472
1257.96,0.066712,619125,530965
1261.41,0.067278,624551,534921
1264.86,0.067641,629900,539052
1268.31,0.068293,634345,542041
1271.75,0.069213,638574,544500
1276.33,0.069822,642499,547080
1279.76,0.069336,645905,550595
1283.19,0.068751,648307,553388
1286.61,0.068423,650446,555633
1290.03,0.068338,652132,557182
1293.44,0.067670,653907,559559
1296.85,0.067595,655963,561416
1301.39,0.067201,657349,563112
1304.8,0.066943,657558,563626
1308.19,0.067263,658515,564030
1311.58,0.067619,658804,563816
1314.97,0.068296,659011,563114
1318.36,0.068710,658272,561947
1321.73,0.068876,658022,561519
1326.23,0.069755,657870,560254
1329.6,0.070717,656482,557835
1332.97,0.071906,654926,554991
1336.33,0.072971,653727,552618
1339.69,0.074774,652497,549293
1343.04,0.076268,649913,545240
1346.39,0.078547,647671,540515
1349.73,0.080650,645338,535966
1354.18,0.083823,641175,528632
1357.52,0.086136,638376,523529
1360.85,0.088617,635805,518450
1364.17,0.090653,633413,514084
1367.49,0.092790,631026,509633
1370.81,0.095403,628050,504186
1374.12,0.097935,625034,498849
1378.54,0.101104,620272,491449
1381.84,0.104321,616892,485164
1385.14,0.108085,613613,478420
1388.43,0.113075,611526,471346
1391.72,0.117519,610663,465889
1395.01,0.122284,610634,460784
1398.29,0.127799,611700,455763
1402.66,0.134798,614051,450201
1405.93,0.140652,616268,445777
1409.2,0.146439,617795,440966
1412.46,0.151027,618872,437093
1415.72,0.155659,619795,433101
1418.98,0.159256,620495,430014
1422.23,0.163221,621087,426512
1426.56,0.168192,621375,421854
1429.8,0.170570,621616,419713
1433.04,0.173378,622129,417352
1436.27,0.175501,621526,414914
1439.5,0.177165,621113,413053
1442.72,0.180916,620921,409374
1445.94,0.182155,620270,407780
1450.23,0.186477,618860,402824
1453.44,0.189787,617697,399014
1456.64,0.191833,616264,396218
1459.85,0.195588,614413,391627
1463.04,0.198121,612307,388015
1466.24,0.201222,610032,383823
1469.43,0.205648,607345,378257
1473.67,0.211342,603789,371145
1476.85,0.217250,601175,364545
1480.02,0.223529,597737,357257
1483.19,0.230278,594479,349831
1486.36,0.235838,591232,343495
1489.52,0.241379,587853,337202
1492.68,0.245323,583875,331892
1496.89,0.247456,578062,326978
1500.03,0.247733,574159,324563
1503.18,0.248344,570285,321920
1506.32,0.247465,565444,319834
1509.45,0.245514,560571,318505
1512.58,0.244515,555821,316534
1515.71,0.241576,550344,315543
1519.87,0.239615,543983,313307
1522.99,0.235765,538764,313064
1526.1,0.233831,533692,311501
1529.21,0.230180,527902,310723
1532.32,0.227166,521886,309321
1535.42,0.224108,515888,307927
1538.51,0.220708,509987,306797
1541.6,0.217445,503936,305443
1545.72,0.213126,494694,302838
1548.8,0.210014,488378,301122
1551.88,0.208008,481832,298461
1554.95,0.205310,474989,296056
1558.02,0.203657,467818,292698
1561.08,0.202272,460730,289184
1564.15,0.201456,454170,285603
1568.22,0.200722,444181,279794
1571.27,0.199644,436947,275921
1574.32,0.198284,429598,272131
1577.36,0.198168,422039,267414
1580.4,0.195556,414375,264142
1583.43,0.193956,406354,259985
1586.46,0.191725,398475,256257
1590.49,0.190328,388982,250958
1593.51,0.188096,380708,246886
1596.53,0.185996,372727,242882
1599.54,0.183937,365060,239016
1602.55,0.181797,357543,235251
1605.55,0.179406,349495,231225
1608.55,0.177039,341154,226940
1612.54,0.174389,330877,221451
1615.53,0.173016,322904,216799
1618.51,0.172110,315116,212012
1621.49,0.170417,307217,207505
1624.47,0.169573,299481,202673
1627.44,0.167758,292112,198514
1630.41,0.166279,284245,193827
1634.36,0.165830,274079,187088
1637.32,0.164406,266916,182797
1640.27,0.163057,259612,178348
1643.22,0.162600,251804,173166
1646.16,0.162356,244348,168133
1649.1,0.161904,236703,163042
1652.04,0.161098,228171,157457
1655.95,0.157029,215408,150049
1658.88,0.153861,204937,143800
1661.8,0.149091,193395,137200
1664.72,0.142369,179728,129493
1667.63,0.132832,163642,120521
1670.54,0.120870,146312,110767
1673.44,0.106986,128451,100404
1677.31,0.092986,105080,84827
1680.21,0.083566,88906,73344
1683.1,0.079310,75033,62509
1685.99,0.084542,63520,52284
1688.87,0.090362,53714,43624
1691.75,0.092255,45653,36916
1694.62,0.095202,39137,31433
1697.49,0.100328,33776,26809
1701.31,0.108746,28175,21934