Folder: textile_sorting_NIRSCAN_/samples/wool/wool-000811 (part 17)

File: Column 1_050539_20150331_115449.csv
Method:,Column 1,,
Host Date-Time:,31/3/15 @ 11:54:49,,
Header Version:,1,,
System Temp (C):,32.13,,
Detector Temp (C):,30.48,,
Humidity (%):,3.22,,
Lamp PD:,3825,,
Shift Vector Coefficients:,-10.5391,0.0761263,-0.000134223,,
Pixel to Wavelength Coefficients:,1775.68,-0.916766,-0.000235065,,
Serial Number:,5510004,,
Scan Config Name:,Column 1,,
Scan Config Type:,Slew,,
Section 1,,
Start wavelength (nm):,900,,
End wavelength (nm):,1700,,
Pattern Pixel Width (nm):,   7.03,,,,
Exposure (ms):,  0.635,,,,
Digital Resolution:,228,,
Num Repeats:,6,,
PGA Gain:,64,,
Total Measurement Time in sec:,  2.720,,
Wavelength (nm),Absorbance (AU),Reference Signal (unitless),Sample Signal (unitless)
901.51,0.044113,108485,98007
905.376,0.048360,121306,108523
909.237,0.050495,131909,117430
913.095,0.050822,143299,127474
916.948,0.051684,156982,139369
922.079,0.051386,179937,159858
925.923,0.052326,200504,177745
929.762,0.052069,222660,197503
933.597,0.052982,244426,216354
937.427,0.051736,263972,234327
941.254,0.053945,281845,248923
945.076,0.053613,297271,262748
950.165,0.053325,315605,279138
953.978,0.054096,328029,289612
957.786,0.053818,340470,300788
961.59,0.054461,352317,310794
965.389,0.054892,363056,319950
969.185,0.055012,373162,328765
972.976,0.055336,382632,336857
976.763,0.056488,391202,343489
981.806,0.057035,400190,350939
985.583,0.057423,406088,355793
989.355,0.058420,410162,358538
993.124,0.059020,412868,360405
996.888,0.059586,414263,361152
1000.65,0.060007,415476,361859
1004.4,0.061409,415479,360695
1009.41,0.062406,414358,358897
1013.15,0.063093,412923,357089
1016.89,0.063466,411526,355575
1020.63,0.063677,409066,353278
1024.36,0.063414,406777,351514
1028.09,0.063400,404427,349494
1031.82,0.062964,401911,347669
1036.78,0.062788,398410,344780
1040.49,0.061845,396204,343616
1044.2,0.061702,394236,342022
1047.91,0.060344,392042,341184
1051.61,0.059703,389823,339754
1055.31,0.058721,388234,339135
1059,0.058186,387599,338998
1063.92,0.057179,386688,338986
1067.61,0.055922,386598,339889
1071.29,0.055202,387377,341139
1074.96,0.054214,388536,342939
1078.63,0.054582,389855,343812
1082.3,0.053651,391215,345752
1085.96,0.052780,393215,348217
1090.84,0.051631,396270,351852
1094.49,0.050882,398760,354674
1098.14,0.051529,400987,356124
1101.79,0.050781,403477,358953
1105.43,0.050723,406116,361349
1109.06,0.050129,407701,363256
1112.7,0.050221,409859,365101
1117.53,0.050642,412494,367093
1121.15,0.051193,414909,368774
1124.77,0.051404,416559,370060
1128.38,0.053415,418532,370095
1131.99,0.054225,419956,370663
1135.6,0.057460,421946,369655
1139.2,0.059133,423881,369923
1143.99,0.062033,426786,369979
1147.58,0.062619,428617,371065
1151.17,0.064435,431169,371717
1154.75,0.065575,433579,372815
1158.33,0.067755,436264,373245
1161.91,0.070302,439132,373502
1165.48,0.073332,442389,373656
1169.04,0.075983,446101,374499
1173.79,0.080162,451929,375758
1177.34,0.083401,456026,376347
1180.9,0.085429,461306,378931
1184.44,0.087437,467657,382376
1187.99,0.088106,473969,386940
1191.52,0.087771,479856,392049
1195.06,0.087258,487372,398660
1199.76,0.085963,497347,408034
1203.29,0.084954,504311,414710
1206.81,0.083294,511507,422238
1210.33,0.081923,519078,429843
1213.84,0.081162,527163,437303
1217.35,0.079965,534208,444371
1220.85,0.078804,540472,450785
1225.51,0.077620,549929,459925
1229.01,0.077010,556888,466399
1232.5,0.075936,562180,471997
1235.98,0.075038,567975,477850
1239.46,0.073931,574815,484838
1242.94,0.072877,582782,492753
1246.41,0.072326,591476,500739
1251.03,0.071592,604016,512220
1254.5,0.071676,612289,519135
1257.96,0.072106,619125,524412
1261.41,0.072751,624551,528222
1264.86,0.073012,629900,532427
1268.31,0.074120,634345,534818
1271.75,0.074653,638574,537722
1276.33,0.075179,642499,540373
1279.76,0.075051,645905,543398
1283.19,0.074563,648307,546031
1286.61,0.073950,650446,548607
1290.03,0.073622,652132,550444
1293.44,0.073085,653907,552625
1296.85,0.072833,655963,554685
1301.39,0.072419,657349,556387
1304.8,0.072745,657558,556146
1308.19,0.072864,658515,556803
1311.58,0.073377,658804,556390
1314.97,0.073367,659011,556577
1318.36,0.074343,658272,554706
1321.73,0.074775,658022,553943
1326.23,0.076066,657870,552172
1329.6,0.077122,656482,549669
1332.97,0.078488,654926,546643
1336.33,0.079679,653727,544149
1339.69,0.081669,652497,540642
1343.04,0.083405,649913,536353
1346.39,0.086020,647671,531294
1349.73,0.088500,645338,526365
1354.18,0.091849,641175,518952
1357.52,0.094320,638376,513756
1360.85,0.096865,635805,508697
1364.17,0.099163,633413,504108
1367.49,0.101765,631026,499209
1370.81,0.104553,628050,493675
1374.12,0.107220,625034,488297
1378.54,0.111320,620272,480023
1381.84,0.115495,616892,472840
1385.14,0.119465,613613,466047
1388.43,0.125081,611526,458494
1391.72,0.130913,610663,451740
1395.01,0.137125,610634,445303
1398.29,0.143433,611700,439648
1402.66,0.151169,614051,433546
1405.93,0.159178,616268,427161
1409.2,0.164906,617795,422609
1412.46,0.171277,618872,417180
1415.72,0.176496,619795,412812
1418.98,0.181961,620495,408110
1422.23,0.185940,621087,404774
1426.56,0.190333,621375,400886
1429.8,0.193645,621616,397995
1433.04,0.196983,622129,395273
1436.27,0.199419,621526,392681
1439.5,0.201630,621113,390428
1442.72,0.204360,620921,387861
1445.94,0.206657,620270,385411
1450.23,0.210647,618860,381018
1453.44,0.213370,617697,377925
1456.64,0.216646,616264,374215
1459.85,0.218559,614413,371451
1463.04,0.221405,612307,367760
1466.24,0.224806,610032,363535
1469.43,0.227507,607345,359690
1473.67,0.232971,603789,353113
1476.85,0.237256,601175,348133
1480.02,0.242640,597737,341877
1483.19,0.249441,594479,334731
1486.36,0.255138,591232,328564
1489.52,0.260677,587853,322546
1492.68,0.263577,583875,318231
1496.89,0.266246,578062,313133
1500.03,0.267444,574159,310162
1503.18,0.267705,570285,307884
1506.32,0.267711,565444,305266
1509.45,0.266342,560571,303591
1512.58,0.264886,555821,302029
1515.71,0.262319,550344,300826
1519.87,0.259379,543983,299369
1522.99,0.256919,538764,298181
1526.1,0.253646,533692,297608
1529.21,0.250526,527902,296502
1532.32,0.248308,521886,294624
1535.42,0.244254,515888,293969
1538.51,0.240944,509987,292830
1541.6,0.237697,503936,291527
1545.72,0.232535,494694,289602
1548.8,0.229355,488378,288006
1551.88,0.226554,481832,285984
1554.95,0.224184,474989,283465
1558.02,0.222544,467818,280242
1561.08,0.221398,460730,276725
1564.15,0.219933,454170,273707
1568.22,0.219393,444181,268020
1571.27,0.218596,436947,264139
1574.32,0.216913,429598,260705
1577.36,0.215543,422039,256927
1580.4,0.214304,414375,252982
1583.43,0.212566,406354,249080
1586.46,0.210205,398475,245582
1590.49,0.207142,388982,241428
1593.51,0.205355,380708,237267
1596.53,0.202903,372727,233608
1599.54,0.200223,365060,230219
1602.55,0.197484,357543,226905
1605.55,0.196455,349495,222324
1608.55,0.193410,341154,218545
1612.54,0.190816,330877,213231
1615.53,0.188634,322904,209141
1618.51,0.186189,315116,205249
1621.49,0.185426,307217,200456
1624.47,0.183832,299481,196127
1627.44,0.183403,292112,191490
1630.41,0.180074,284245,187767
1634.36,0.179682,274079,181215
1637.32,0.178698,266916,176879
1640.27,0.178355,259612,172175
1643.22,0.176750,251804,167615
1646.16,0.176365,244348,162796
1649.1,0.175544,236703,158001
1652.04,0.173385,228171,153065
1655.95,0.171660,215408,145078
1658.88,0.170550,204937,138379
1661.8,0.169824,193395,130804
1664.72,0.166543,179728,122482
1667.63,0.163852,163642,112213
1670.54,0.157059,146312,101911
1673.44,0.153497,128451,90207
1677.31,0.148362,105080,74672
1680.21,0.148482,88906,63161
1683.1,0.150813,75033,53020
1685.99,0.151836,63520,44779
1688.87,0.159404,53714,37212
1691.75,0.167618,45653,31035
1694.62,0.169489,39137,26491
1697.49,0.174269,33776,22612
1701.31,0.182199,28175,18521

File: Column 1_050540_20150331_115501.csv
Method:,Column 1,,
Host Date-Time:,31/3/15 @ 11:55:1,,
Header Version:,1,,
System Temp (C):,32.23,,
Detector Temp (C):,30.48,,
Humidity (%):,3.13,,
Lamp PD:,3825,,
Shift Vector Coefficients:,-10.5391,0.0761263,-0.000134223,,
Pixel to Wavelength Coefficients:,1775.68,-0.916766,-0.000235065,,
Serial Number:,5510004,,
Scan Config Name:,Column 1,,
Scan Config Type:,Slew,,
Section 1,,
Start wavelength (nm):,900,,
End wavelength (nm):,1700,,
Pattern Pixel Width (nm):,   7.03,,,,
Exposure (ms):,  0.635,,,,
Digital Resolution:,228,,
Num Repeats:,6,,
PGA Gain:,64,,
Total Measurement Time in sec:,  2.730,,
Wavelength (nm),Absorbance (AU),Reference Signal (unitless),Sample Signal (unitless)
901.51,0.044418,108485,97938
905.376,0.050664,121306,107949
909.237,0.051866,131909,117060
913.095,0.051695,143299,127218
916.948,0.052738,156982,139031
922.079,0.052259,179937,159537
925.923,0.052790,200504,177555
929.762,0.053101,222660,197034
933.597,0.053129,244426,216281
937.427,0.053677,263972,233282
941.254,0.053429,281845,249219
945.076,0.053864,297271,262596
950.165,0.054032,315605,278684
953.978,0.054442,328029,289381
957.786,0.054745,340470,300147
961.59,0.055649,352317,309945
965.389,0.055482,363056,319515
969.185,0.055731,373162,328221
972.976,0.056040,382632,336311
976.763,0.056818,391202,343228
981.806,0.057134,400190,350859
985.583,0.058508,406088,354905
989.355,0.059177,410162,357914
993.124,0.058869,412868,360531
996.888,0.060078,414263,360743
1000.65,0.060440,415476,361498
1004.4,0.062213,415479,360028
1009.41,0.063732,414358,357803
1013.15,0.063799,412923,356509
1016.89,0.064244,411526,354939
1020.63,0.064013,409066,353005
1024.36,0.063582,406777,351378
1028.09,0.063690,404427,349261
1031.82,0.063226,401911,347459
1036.78,0.062771,398410,344794
1040.49,0.062136,396204,343386
1044.2,0.061220,394236,342402
1047.91,0.061273,392042,340455
1051.61,0.060568,389823,339078
1055.31,0.059454,388234,338563
1059,0.058506,387599,338748
1063.92,0.057639,386688,338627
1067.61,0.056577,386598,339377
1071.29,0.056114,387377,340424
1074.96,0.055453,388536,341962
1078.63,0.054802,389855,343638
1082.3,0.054024,391215,345455
1085.96,0.053568,393215,347586
1090.84,0.052096,396270,351476
1094.49,0.052315,398760,353506
1098.14,0.052195,400987,355578
1101.79,0.051692,403477,358201
1105.43,0.051376,406116,360806
1109.06,0.050985,407701,362541
1112.7,0.050863,409859,364562
1117.53,0.050605,412494,367124
1121.15,0.051608,414909,368421
1124.77,0.052089,416559,369477
1128.38,0.053812,418532,369757
1131.99,0.055678,419956,369425
1135.6,0.057543,421946,369585
1139.2,0.059452,423881,369651
1143.99,0.062602,426786,369495
1147.58,0.063592,428617,370235
1151.17,0.064608,431169,371569
1154.75,0.066398,433579,372109
1158.33,0.068320,436264,372760
1161.91,0.070786,439132,373086
1165.48,0.073675,442389,373361
1169.04,0.076392,446101,374146
1173.79,0.080968,451929,375061
1177.34,0.083655,456026,376127
1180.9,0.086349,461306,378129
1184.44,0.088136,467657,381761
1187.99,0.088865,473969,386265
1191.52,0.088606,479856,391296
1195.06,0.087579,487372,398365
1199.76,0.086148,497347,407860
1203.29,0.084580,504311,415067
1206.81,0.084127,511507,421429
1210.33,0.082640,519078,429134
1213.84,0.081878,527163,436583
1217.35,0.080532,534208,443791
1220.85,0.079073,540472,450506
1225.51,0.078229,549929,459280
1229.01,0.077251,556888,466140
1232.5,0.076574,562180,471304
1235.98,0.075520,567975,477319
1239.46,0.074406,574815,484308
1242.94,0.073698,582782,491822
1246.41,0.072732,591476,500271
1251.03,0.072067,604016,511660
1254.5,0.071937,612289,518823
1257.96,0.072348,619125,524120
1261.41,0.073105,624551,527792
1264.86,0.073831,629900,531423
1268.31,0.074471,634345,534385
1271.75,0.075587,638574,536567
1276.33,0.075638,642499,539802
1279.76,0.075563,645905,542757
1283.19,0.075054,648307,545414
1286.61,0.074176,650446,548321
1290.03,0.073727,652132,550312
1293.44,0.073685,653907,551863
1296.85,0.073621,655963,553680
1301.39,0.072856,657349,555828
1304.8,0.073403,657558,555304
1308.19,0.073560,658515,555911
1311.58,0.073478,658804,556260
1314.97,0.074251,659011,555446
1318.36,0.074997,658272,553871
1321.73,0.075182,658022,553425
1326.23,0.076388,657870,551763
1329.6,0.077265,656482,549487
1332.97,0.078746,654926,546319
1336.33,0.079920,653727,543846
1339.69,0.081962,652497,540277
1343.04,0.084020,649913,535593
1346.39,0.086361,647671,530877
1349.73,0.088800,645338,526002
1354.18,0.092359,641175,518344
1357.52,0.094551,638376,513482
1360.85,0.096944,635805,508604
1364.17,0.099374,633413,503864
1367.49,0.102047,631026,498885
1370.81,0.105298,628050,492829
1374.12,0.108132,625034,487272
1378.54,0.111959,620272,479317
1381.84,0.115466,616892,472871
1385.14,0.120407,613613,465037
1388.43,0.125540,611526,458010
1391.72,0.131407,610663,451227
1395.01,0.137322,610634,445101
1398.29,0.143322,611700,439761
1402.66,0.152126,614051,432592
1405.93,0.159438,616268,426905
1409.2,0.165501,617795,422030
1412.46,0.171886,618872,416596
1415.72,0.177467,619795,411890
1418.98,0.181917,620495,408151
1422.23,0.185889,621087,404821
1426.56,0.190749,621375,400502
1429.8,0.193803,621616,397850
1433.04,0.196672,622129,395556
1436.27,0.199105,621526,392965
1439.5,0.201164,621113,390847
1442.72,0.204371,620921,387851
1445.94,0.207057,620270,385056
1450.23,0.210083,618860,381513
1453.44,0.213814,617697,377539
1456.64,0.216704,616264,374165
1459.85,0.219221,614413,370885
1463.04,0.221535,612307,367650
1466.24,0.224906,610032,363452
1469.43,0.227789,607345,359457
1473.67,0.233112,603789,352999
1476.85,0.237869,601175,347642
1480.02,0.243184,597737,341449
1483.19,0.249670,594479,334554
1486.36,0.255545,591232,328256
1489.52,0.260225,587853,322882
1492.68,0.264361,583875,317657
1496.89,0.267052,578062,312552
1500.03,0.268289,574159,309559
1503.18,0.267746,570285,307855
1506.32,0.267177,565444,305642
1509.45,0.266410,560571,303543
1512.58,0.264846,555821,302057
1515.71,0.262800,550344,300493
1519.87,0.259728,543983,299128
1522.99,0.257219,538764,297975
1526.1,0.254246,533692,297197
1529.21,0.250920,527902,296233
1532.32,0.248020,521886,294819
1535.42,0.244836,515888,293575
1538.51,0.242263,509987,291942
1541.6,0.238402,503936,291054
1545.72,0.233717,494694,288815
1548.8,0.229899,488378,287645
1551.88,0.227271,481832,285512
1554.95,0.224584,474989,283204
1558.02,0.222950,467818,279980
1561.08,0.221817,460730,276458
1564.15,0.220601,454170,273286
1568.22,0.219148,444181,268171
1571.27,0.218527,436947,264181
1574.32,0.217530,429598,260335
1577.36,0.215967,422039,256676
1580.4,0.213901,414375,253217
1583.43,0.211496,406354,249694
1586.46,0.210136,398475,245621
1590.49,0.207669,388982,241135
1593.51,0.205878,380708,236981
1596.53,0.203742,372727,233157
1599.54,0.201434,365060,229578
1602.55,0.197480,357543,226907
1605.55,0.196175,349495,222467
1608.55,0.194679,341154,217907
1612.54,0.191479,330877,212906
1615.53,0.189661,322904,208647
1618.51,0.187450,315116,204654
1621.49,0.185773,307217,200296
1624.47,0.184273,299481,195928
1627.44,0.184480,292112,191016
1630.41,0.181786,284245,187028
1634.36,0.179859,274079,181141
1637.32,0.178551,266916,176939
1640.27,0.177450,259612,172534
1643.22,0.176574,251804,167683
1646.16,0.176325,244348,162811
1649.1,0.175602,236703,157980
1652.04,0.175144,228171,152446
1655.95,0.173983,215408,144304
1658.88,0.170798,204937,138300
1661.8,0.170063,193395,130732
1664.72,0.167413,179728,122237
1667.63,0.161824,163642,112738
1670.54,0.156539,146312,102033
1673.44,0.153936,128451,90116
1677.31,0.149615,105080,74457
1680.21,0.147349,88906,63326
1683.1,0.148672,75033,53282
1685.99,0.156487,63520,44302
1688.87,0.161452,53714,37037
1691.75,0.169483,45653,30902
1694.62,0.172582,39137,26303
1697.49,0.171818,33776,22740
1701.31,0.177535,28175,18721

File: Column 1_050540_20150331_115503.csv
Method:,Column 1,,
Host Date-Time:,31/3/15 @ 11:55:3,,
Header Version:,1,,
System Temp (C):,32.22,,
Detector Temp (C):,30.48,,
Humidity (%):,3.13,,
Lamp PD:,3825,,
Shift Vector Coefficients:,-10.5391,0.0761263,-0.000134223,,
Pixel to Wavelength Coefficients:,1775.68,-0.916766,-0.000235065,,
Serial Number:,5510004,,
Scan Config Name:,Column 1,,
Scan Config Type:,Slew,,
Section 1,,
Start wavelength (nm):,900,,
End wavelength (nm):,1700,,
Pattern Pixel Width (nm):,   7.03,,,,
Exposure (ms):,  0.635,,,,
Digital Resolution:,228,,
Num Repeats:,6,,
PGA Gain:,64,,
Total Measurement Time in sec:,  2.670,,
Wavelength (nm),Absorbance (AU),Reference Signal (unitless),Sample Signal (unitless)
901.51,0.045248,108485,97751
905.376,0.051183,121306,107820
909.237,0.051677,131909,117111
913.095,0.052847,143299,126881
916.948,0.051665,156982,139375
922.079,0.052069,179937,159607
925.923,0.053001,200504,177469
929.762,0.053288,222660,196949
933.597,0.054028,244426,215834
937.427,0.053898,263972,233163
941.254,0.054750,281845,248462
945.076,0.054343,297271,262307
950.165,0.054386,315605,278457
953.978,0.054181,328029,289555
957.786,0.054655,340470,300209
961.59,0.055282,352317,310207
965.389,0.055143,363056,319765
969.185,0.056132,373162,327918
972.976,0.056494,382632,335960
976.763,0.056600,391202,343401
981.806,0.057574,400190,350503
985.583,0.057688,406088,355576
989.355,0.059214,410162,357883
993.124,0.059413,412868,360079
996.888,0.060232,414263,360615
1000.65,0.061778,415476,360386
1004.4,0.061878,415479,360306
1009.41,0.063521,414358,357977
1013.15,0.063760,412923,356541
1016.89,0.064088,411526,355066
1020.63,0.064700,409066,352447
1024.36,0.064333,406777,350771
1028.09,0.063668,404427,349279
1031.82,0.063175,401911,347500
1036.78,0.063157,398410,344487
1040.49,0.062522,396204,343081
1044.2,0.061961,394236,341818
1047.91,0.061541,392042,340245
1051.61,0.061046,389823,338705
1055.31,0.060016,388234,338125
1059,0.058998,387599,338364
1063.92,0.058210,386688,338182
1067.61,0.057112,386598,338959
1071.29,0.056296,387377,340281
1074.96,0.055248,388536,342124
1078.63,0.055243,389855,343289
1082.3,0.054048,391215,345436
1085.96,0.053063,393215,347990
1090.84,0.052471,396270,351172
1094.49,0.052120,398760,353665
1098.14,0.051349,400987,356272
1101.79,0.051559,403477,358311
1105.43,0.051412,406116,360776
1109.06,0.050658,407701,362814
1112.7,0.051124,409859,364343
1117.53,0.051276,412494,366557
1121.15,0.052025,414909,368068
1124.77,0.052220,416559,369366
1128.38,0.053522,418532,370004
1131.99,0.055155,419956,369870
1135.6,0.057419,421946,369690
1139.2,0.059882,423881,369285
1143.99,0.062351,426786,369708
1147.58,0.063931,428617,369946
1151.17,0.064420,431169,371730
1154.75,0.066269,433579,372220
1158.33,0.068517,436264,372591
1161.91,0.070681,439132,373176
1165.48,0.073215,442389,373757
1169.04,0.076945,446101,373670
1173.79,0.081013,451929,375022
1177.34,0.083844,456026,375963
1180.9,0.086295,461306,378176
1184.44,0.088185,467657,381718
1187.99,0.088545,473969,386549
1191.52,0.088800,479856,391121
1195.06,0.087733,487372,398224
1199.76,0.086545,497347,407488
1203.29,0.084896,504311,414765
1206.81,0.084138,511507,421418
1210.33,0.082212,519078,429557
1213.84,0.081608,527163,436855
1217.35,0.080327,534208,444000
1220.85,0.079227,540472,450346
1225.51,0.078607,549929,458881
1229.01,0.077459,556888,465917
1232.5,0.076482,562180,471404
1235.98,0.075694,567975,477128
1239.46,0.074651,574815,484035
1242.94,0.073418,582782,492139
1246.41,0.072337,591476,500726
1251.03,0.072136,604016,511579
1254.5,0.072224,612289,518480
1257.96,0.072462,619125,523982
1261.41,0.073410,624551,527422
1264.86,0.073766,629900,531503
1268.31,0.074102,634345,534840
1271.75,0.075345,638574,536866
1276.33,0.075720,642499,539700
1279.76,0.075448,645905,542901
1283.19,0.074962,648307,545530
1286.61,0.074021,650446,548517
1290.03,0.073742,652132,550293
1293.44,0.073436,653907,552179
1296.85,0.073033,655963,554430
1301.39,0.072720,657349,556002
1304.8,0.073010,657558,555807
1308.19,0.073289,658515,556258
1311.58,0.073283,658804,556510
1314.97,0.074463,659011,555175
1318.36,0.074725,658272,554218
1321.73,0.074908,658022,553774
1326.23,0.076100,657870,552129
1329.6,0.077175,656482,549602
1332.97,0.078516,654926,546608
1336.33,0.079694,653727,544130
1339.69,0.081966,652497,540272
1343.04,0.083807,649913,535856
1346.39,0.086031,647671,531280
1349.73,0.088539,645338,526318
1354.18,0.092086,641175,518669
1357.52,0.094686,638376,513323
1360.85,0.097007,635805,508531
1364.17,0.099537,633413,503674
1367.49,0.102096,631026,498829
1370.81,0.104995,628050,493173
1374.12,0.107803,625034,487642
1378.54,0.111641,620272,479668
1381.84,0.115923,616892,472374
1385.14,0.119897,613613,465583
1388.43,0.125566,611526,457983
1391.72,0.131568,610663,451059
1395.01,0.137790,610634,444622
1398.29,0.143565,611700,439515
1402.66,0.151823,614051,432894
1405.93,0.159038,616268,427299
1409.2,0.165719,617795,421818
1412.46,0.171457,618872,417007
1415.72,0.176983,619795,412349
1418.98,0.182022,620495,408053
1422.23,0.185958,621087,404757
1426.56,0.190459,621375,400770
1429.8,0.193530,621616,398100
1433.04,0.197139,622129,395131
1436.27,0.198850,621526,393196
1439.5,0.201302,621113,390723
1442.72,0.204134,620921,388063
1445.94,0.206426,620270,385616
1450.23,0.210458,618860,381184
1453.44,0.213624,617697,377704
1456.64,0.216754,616264,374122
1459.85,0.218895,614413,371164
1463.04,0.221765,612307,367455
1466.24,0.224593,610032,363714
1469.43,0.227784,607345,359461
1473.67,0.232947,603789,353133
1476.85,0.237515,601175,347925
1480.02,0.242856,597737,341707
1483.19,0.249524,594479,334667
1486.36,0.254940,591232,328714
1489.52,0.260103,587853,322973
1492.68,0.264654,583875,317443
1496.89,0.267063,578062,312544
1500.03,0.268083,574159,309706
1503.18,0.268501,570285,307320
1506.32,0.267260,565444,305583
1509.45,0.266668,560571,303363
1512.58,0.264699,555821,302159
1515.71,0.262372,550344,300789
1519.87,0.259505,543983,299282
1522.99,0.256983,538764,298137
1526.1,0.254414,533692,297082
1529.21,0.251191,527902,296048
1532.32,0.247882,521886,294913
1535.42,0.244904,515888,293529
1538.51,0.241092,509987,292730
1541.6,0.236784,503936,292140
1545.72,0.233005,494694,289289
1548.8,0.229804,488378,287708
1551.88,0.226334,481832,286129
1554.95,0.225238,474989,282778
1558.02,0.222615,467818,280196
1561.08,0.221240,460730,276826
1564.15,0.220711,454170,273217
1568.22,0.219526,444181,267938
1571.27,0.218636,436947,264115
1574.32,0.217611,429598,260286
1577.36,0.216228,422039,256522
1580.4,0.213623,414375,253379
1583.43,0.212181,406354,249301
1586.46,0.210224,398475,245571
1590.49,0.208230,388982,240824
1593.51,0.205346,380708,237272
1596.53,0.202829,372727,233648
1599.54,0.200551,365060,230045
1602.55,0.197869,357543,226704
1605.55,0.196086,349495,222513
1608.55,0.194297,341154,218099
1612.54,0.190894,330877,213193
1615.53,0.188439,322904,209235
1618.51,0.187491,315116,204635
1621.49,0.185578,307217,200386
1624.47,0.184291,299481,195920
1627.44,0.182637,292112,191828
1630.41,0.181464,284245,187167
1634.36,0.180238,274079,180983
1637.32,0.178416,266916,176994
1640.27,0.178809,259612,171995
1643.22,0.177159,251804,167457
1646.16,0.175757,244348,163024
1649.1,0.175967,236703,157847
1652.04,0.174865,228171,152544
1655.95,0.173367,215408,144509
1658.88,0.171219,204937,138166
1661.8,0.169210,193395,130989
1664.72,0.165156,179728,122874
1667.63,0.161070,163642,112934
1670.54,0.157524,146312,101802
1673.44,0.152680,128451,90377
1677.31,0.149801,105080,74425
1680.21,0.147253,88906,63340
1683.1,0.149161,75033,53222
1685.99,0.157400,63520,44209
1688.87,0.163509,53714,36862
1691.75,0.163911,45653,31301
1694.62,0.172467,39137,26310
1697.49,0.176117,33776,22516
1701.31,0.170402,28175,19031