Folder: textile_sorting_NIRSCAN_/samples/wool/wool-000811 (part 32)

File: Column 1_050548_20150331_115903.csv
Method:,Column 1,,
Host Date-Time:,31/3/15 @ 11:59:3,,
Header Version:,1,,
System Temp (C):,33.18,,
Detector Temp (C):,31.86,,
Humidity (%):,2.34,,
Lamp PD:,3822,,
Shift Vector Coefficients:,-10.5391,0.0761263,-0.000134223,,
Pixel to Wavelength Coefficients:,1775.68,-0.916766,-0.000235065,,
Serial Number:,5510004,,
Scan Config Name:,Column 1,,
Scan Config Type:,Slew,,
Section 1,,
Start wavelength (nm):,900,,
End wavelength (nm):,1700,,
Pattern Pixel Width (nm):,   7.03,,,,
Exposure (ms):,  0.635,,,,
Digital Resolution:,228,,
Num Repeats:,6,,
PGA Gain:,64,,
Total Measurement Time in sec:,  2.681,,
Wavelength (nm),Absorbance (AU),Reference Signal (unitless),Sample Signal (unitless)
901.51,0.046561,108485,97456
905.376,0.052809,121306,107417
909.237,0.055053,131909,116204
913.095,0.056483,143299,125823
916.948,0.055442,156982,138168
922.079,0.056653,179937,157931
925.923,0.056502,200504,176044
929.762,0.057445,222660,195073
933.597,0.057492,244426,214119
937.427,0.056649,263972,231691
941.254,0.057199,281845,247065
945.076,0.056604,297271,260945
950.165,0.056752,315605,276944
953.978,0.056286,328029,288155
957.786,0.056335,340470,299050
961.59,0.056323,352317,309464
965.389,0.057540,363056,318005
969.185,0.057985,373162,326522
972.976,0.058137,382632,334691
976.763,0.058779,391202,341682
981.806,0.059349,400190,349074
985.583,0.060196,406088,353528
989.355,0.060660,410162,356694
993.124,0.061218,412868,358586
996.888,0.061681,414263,359414
1000.65,0.062227,415476,360014
1004.4,0.063233,415479,359183
1009.41,0.064914,414358,356830
1013.15,0.065065,412923,355471
1016.89,0.065447,411526,353957
1020.63,0.065390,409066,351887
1024.36,0.065290,406777,349999
1028.09,0.065101,404427,348128
1031.82,0.064601,401911,346361
1036.78,0.064286,398410,343593
1040.49,0.063503,396204,342307
1044.2,0.062976,394236,341020
1047.91,0.062824,392042,339241
1051.61,0.062087,389823,337894
1055.31,0.060771,388234,337538
1059,0.060054,387599,337543
1063.92,0.059460,386688,337210
1067.61,0.057904,386598,338342
1071.29,0.057014,387377,339719
1074.96,0.056398,388536,341219
1078.63,0.056201,389855,342533
1082.3,0.055230,391215,344497
1085.96,0.054477,393215,346859
1090.84,0.053469,396270,350366
1094.49,0.053056,398760,352903
1098.14,0.052876,400987,355021
1101.79,0.052376,403477,357637
1105.43,0.052111,406116,360196
1109.06,0.052062,407701,361643
1112.7,0.051234,409859,364251
1117.53,0.051616,412494,366270
1121.15,0.052273,414909,367858
1124.77,0.052751,416559,368914
1128.38,0.054661,418532,369035
1131.99,0.055526,419956,369554
1135.6,0.058358,421946,368892
1139.2,0.059927,423881,369247
1143.99,0.063024,426786,369136
1147.58,0.063719,428617,370127
1151.17,0.065366,431169,370921
1154.75,0.066524,433579,372001
1158.33,0.069180,436264,372023
1161.91,0.071379,439132,372577
1165.48,0.074126,442389,372974
1169.04,0.077000,446101,373623
1173.79,0.081077,451929,374967
1177.34,0.084348,456026,375527
1180.9,0.086218,461306,378243
1184.44,0.088790,467657,381186
1187.99,0.089456,473969,385739
1191.52,0.088972,479856,390966
1195.06,0.088322,487372,397684
1199.76,0.086619,497347,407418
1203.29,0.085071,504311,414598
1206.81,0.084433,511507,421132
1210.33,0.083013,519078,428765
1213.84,0.081950,527163,436511
1217.35,0.080915,534208,443400
1220.85,0.079794,540472,449758
1225.51,0.078602,549929,458886
1229.01,0.077620,556888,465745
1232.5,0.076645,562180,471227
1235.98,0.076282,567975,476483
1239.46,0.075056,574815,483584
1242.94,0.073373,582782,492190
1246.41,0.072940,591476,500031
1251.03,0.072498,604016,511152
1254.5,0.072579,612289,518057
1257.96,0.073079,619125,523238
1261.41,0.073655,624551,527124
1264.86,0.074496,629900,530610
1268.31,0.074691,634345,534115
1271.75,0.075541,638574,536624
1276.33,0.075771,642499,539637
1279.76,0.075462,645905,542883
1283.19,0.074993,648307,545491
1286.61,0.074690,650446,547673
1290.03,0.074307,652132,549577
1293.44,0.073915,653907,551570
1296.85,0.073661,655963,553629
1301.39,0.073192,657349,555397
1304.8,0.073252,657558,555498
1308.19,0.073703,658515,555729
1311.58,0.073658,658804,556030
1314.97,0.073769,659011,556062
1318.36,0.074650,658272,554314
1321.73,0.075141,658022,553477
1326.23,0.076253,657870,551934
1329.6,0.076922,656482,549922
1332.97,0.078114,654926,547114
1336.33,0.079587,653727,544264
1339.69,0.081376,652497,541006
1343.04,0.083328,649913,536448
1346.39,0.085829,647671,531527
1349.73,0.087783,645338,527235
1354.18,0.091928,641175,518858
1357.52,0.094297,638376,513783
1360.85,0.096402,635805,509239
1364.17,0.099268,633413,503986
1367.49,0.101834,631026,499130
1370.81,0.104663,628050,493550
1374.12,0.106941,625034,488610
1378.54,0.110856,620272,480536
1381.84,0.114888,616892,473501
1385.14,0.118856,613613,466701
1388.43,0.124004,611526,459633
1391.72,0.129797,610663,452902
1395.01,0.135398,610634,447078
1398.29,0.140996,611700,442122
1402.66,0.149343,614051,435373
1405.93,0.155899,616268,430398
1409.2,0.161415,617795,426019
1412.46,0.167706,618872,420625
1415.72,0.172411,619795,416713
1418.98,0.176664,620495,413118
1422.23,0.180808,621087,409585
1426.56,0.185611,621375,405268
1429.8,0.188831,621616,402431
1433.04,0.191574,622129,400227
1436.27,0.193716,621526,397872
1439.5,0.195886,621113,395626
1442.72,0.198633,620921,393010
1445.94,0.200668,620270,390762
1450.23,0.204734,618860,386241
1453.44,0.208031,617697,382600
1456.64,0.210451,616264,379591
1459.85,0.213804,614413,375540
1463.04,0.216841,612307,371645
1466.24,0.219554,610032,367958
1469.43,0.223245,607345,363237
1473.67,0.228488,603789,356777
1476.85,0.234144,601175,350636
1480.02,0.239745,597737,344164
1483.19,0.246598,594479,336929
1486.36,0.252464,591232,330593
1489.52,0.257844,587853,324657
1492.68,0.261731,583875,319587
1496.89,0.263883,578062,314841
1500.03,0.265277,574159,311713
1503.18,0.265910,570285,309159
1506.32,0.265108,565444,307101
1509.45,0.264113,560571,305153
1512.58,0.262898,555821,303415
1515.71,0.260175,550344,302315
1519.87,0.256789,543983,301159
1522.99,0.254454,538764,299878
1526.1,0.251543,533692,299053
1529.21,0.248100,527902,298163
1532.32,0.245668,521886,296420
1535.42,0.241698,515888,295704
1538.51,0.239005,509987,294140
1541.6,0.235574,503936,292955
1545.72,0.230512,494694,290954
1548.8,0.227484,488378,289249
1551.88,0.224539,481832,287314
1554.95,0.221563,474989,285181
1558.02,0.220148,467818,281792
1561.08,0.219057,460730,278221
1564.15,0.218121,454170,274851
1568.22,0.220680,444181,267227
1571.27,0.215975,436947,265738
1574.32,0.215420,429598,261603
1577.36,0.213274,422039,258273
1580.4,0.211890,414375,254392
1583.43,0.210513,406354,250260
1586.46,0.208091,398475,246780
1590.49,0.205098,388982,242567
1593.51,0.203413,380708,238330
1596.53,0.200168,372727,235084
1599.54,0.198594,365060,231084
1602.55,0.195813,357543,227780
1605.55,0.193154,349495,224020
1608.55,0.191639,341154,219438
1612.54,0.188363,330877,214439
1615.53,0.187011,322904,209924
1618.51,0.185357,315116,205643
1621.49,0.182787,307217,201678
1624.47,0.181099,299481,197365
1627.44,0.180246,292112,192887
1630.41,0.178870,284245,188288
1634.36,0.177351,274079,182190
1637.32,0.176624,266916,177726
1640.27,0.175211,259612,173426
1643.22,0.174476,251804,168495
1646.16,0.173054,244348,164042
1649.1,0.171375,236703,159525
1652.04,0.170221,228171,154184
1655.95,0.167478,215408,146482
1658.88,0.166623,204937,139636
1661.8,0.164049,193395,132555
1664.72,0.158815,179728,124681
1667.63,0.151388,163642,115480
1670.54,0.143892,146312,105048
1673.44,0.136896,128451,93722
1677.31,0.125314,105080,78742
1680.21,0.122966,88906,66983
1683.1,0.120812,75033,56812
1685.99,0.126436,63520,47476
1688.87,0.134889,53714,39373
1691.75,0.135164,45653,33443
1694.62,0.140096,39137,28346
1697.49,0.148976,33776,23968
1701.31,0.148747,28175,20004

File: Column 1_050548_20150331_115905.csv
Method:,Column 1,,
Host Date-Time:,31/3/15 @ 11:59:5,,
Header Version:,1,,
System Temp (C):,33.21,,
Detector Temp (C):,31.91,,
Humidity (%):,2.34,,
Lamp PD:,3822,,
Shift Vector Coefficients:,-10.5391,0.0761263,-0.000134223,,
Pixel to Wavelength Coefficients:,1775.68,-0.916766,-0.000235065,,
Serial Number:,5510004,,
Scan Config Name:,Column 1,,
Scan Config Type:,Slew,,
Section 1,,
Start wavelength (nm):,900,,
End wavelength (nm):,1700,,
Pattern Pixel Width (nm):,   7.03,,,,
Exposure (ms):,  0.635,,,,
Digital Resolution:,228,,
Num Repeats:,6,,
PGA Gain:,64,,
Total Measurement Time in sec:,  2.663,,
Wavelength (nm),Absorbance (AU),Reference Signal (unitless),Sample Signal (unitless)
901.51,0.044392,108485,97944
905.376,0.052668,121306,107452
909.237,0.053624,131909,116587
913.095,0.055532,143299,126099
916.948,0.055839,156982,138042
922.079,0.056266,179937,158072
925.923,0.056874,200504,175893
929.762,0.057269,222660,195152
933.597,0.057387,244426,214171
937.427,0.058333,263972,230794
941.254,0.057898,281845,246668
945.076,0.057805,297271,260224
950.165,0.056572,315605,277059
953.978,0.056304,328029,288143
957.786,0.056129,340470,299192
961.59,0.056644,352317,309236
965.389,0.056827,363056,318527
969.185,0.057424,373162,326944
972.976,0.057796,382632,334954
976.763,0.058818,391202,341651
981.806,0.059258,400190,349147
985.583,0.060311,406088,353435
989.355,0.060937,410162,356466
993.124,0.061434,412868,358408
996.888,0.061682,414263,359413
1000.65,0.062180,415476,360053
1004.4,0.062906,415479,359454
1009.41,0.065018,414358,356745
1013.15,0.065144,412923,355406
1016.89,0.065876,411526,353607
1020.63,0.065651,409066,351676
1024.36,0.065340,406777,349958
1028.09,0.065021,404427,348192
1031.82,0.064938,401911,346092
1036.78,0.063562,398410,344166
1040.49,0.063776,396204,342092
1044.2,0.063303,394236,340764
1047.91,0.062476,392042,339513
1051.61,0.061845,389823,338082
1055.31,0.061495,388234,336976
1059,0.060737,387599,337012
1063.92,0.059615,386688,337090
1067.61,0.058653,386598,337759
1071.29,0.058289,387377,338723
1074.96,0.056639,388536,341030
1078.63,0.056282,389855,342469
1082.3,0.055452,391215,344321
1085.96,0.054794,393215,346606
1090.84,0.053800,396270,350099
1094.49,0.053543,398760,352508
1098.14,0.052974,400987,354941
1101.79,0.052876,403477,357226
1105.43,0.052622,406116,359773
1109.06,0.052933,407701,360918
1112.7,0.051969,409859,363635
1117.53,0.051963,412494,365978
1121.15,0.053167,414909,367101
1124.77,0.053846,416559,367985
1128.38,0.054908,418532,368825
1131.99,0.056599,419956,368642
1135.6,0.058995,421946,368351
1139.2,0.060328,423881,368906
1143.99,0.063443,426786,368780
1147.58,0.064938,428617,369089
1151.17,0.066006,431169,370375
1154.75,0.067405,433579,371247
1158.33,0.069320,436264,371903
1161.91,0.071807,439132,372210
1165.48,0.074171,442389,372935
1169.04,0.077202,446101,373449
1173.79,0.081847,451929,374303
1177.34,0.084675,456026,375245
1180.9,0.087187,461306,377400
1184.44,0.089864,467657,380245
1187.99,0.089987,473969,385268
1191.52,0.089392,479856,390588
1195.06,0.089037,487372,397030
1199.76,0.087181,497347,406891
1203.29,0.085706,504311,413992
1206.81,0.085181,511507,420408
1210.33,0.084019,519078,427773
1213.84,0.082576,527163,435882
1217.35,0.082045,534208,442247
1220.85,0.080150,540472,449390
1225.51,0.078902,549929,458569
1229.01,0.078377,556888,464934
1232.5,0.077373,562180,470438
1235.98,0.076261,567975,476506
1239.46,0.075630,574815,482945
1242.94,0.074786,582782,490592
1246.41,0.073452,591476,499442
1251.03,0.073116,604016,510426
1254.5,0.073023,612289,517527
1257.96,0.073641,619125,522562
1261.41,0.074024,624551,526677
1264.86,0.074646,629900,530427
1268.31,0.075621,634345,532972
1271.75,0.076363,638574,535609
1276.33,0.076226,642499,539071
1279.76,0.076561,645905,541512
1283.19,0.075970,648307,544265
1286.61,0.075416,650446,546758
1290.03,0.075203,652132,548444
1293.44,0.074450,653907,550891
1296.85,0.074683,655963,552327
1301.39,0.074065,657349,554282
1304.8,0.073830,657558,554759
1308.19,0.073977,658515,555378
1311.58,0.074543,658804,554898
1314.97,0.074931,659011,554577
1318.36,0.075592,658272,553112
1321.73,0.076067,658022,552298
1326.23,0.077026,657870,550952
1329.6,0.077957,656482,548613
1332.97,0.078883,654926,546146
1336.33,0.080292,653727,543381
1339.69,0.082104,652497,540101
1343.04,0.084022,649913,535591
1346.39,0.086152,647671,531132
1349.73,0.088972,645338,525794
1354.18,0.092542,641175,518125
1357.52,0.094872,638376,513103
1360.85,0.097032,635805,508501
1364.17,0.099859,633413,503301
1367.49,0.102093,631026,498832
1370.81,0.105130,628050,493020
1374.12,0.108058,625034,487355
1378.54,0.111330,620272,480012
1381.84,0.115182,616892,473181
1385.14,0.119909,613613,465571
1388.43,0.124908,611526,458677
1391.72,0.130823,610663,451834
1395.01,0.135410,610634,447065
1398.29,0.141681,611700,441426
1402.66,0.149761,614051,434954
1405.93,0.156354,616268,429948
1409.2,0.162134,617795,425315
1412.46,0.167972,618872,420367
1415.72,0.172793,619795,416347
1418.98,0.177564,620495,412263
1422.23,0.181417,621087,409011
1426.56,0.185989,621375,404916
1429.8,0.189124,621616,402159
1433.04,0.191923,622129,399906
1436.27,0.194469,621526,397183
1439.5,0.196437,621113,395124
1442.72,0.199023,620921,392657
1445.94,0.201804,620270,389742
1450.23,0.205610,618860,385463
1453.44,0.208842,617697,381886
1456.64,0.211725,616264,378479
1459.85,0.214233,614413,375169
1463.04,0.217155,612307,371376
1466.24,0.220290,610032,367335
1469.43,0.223321,607345,363174
1473.67,0.229378,603789,356047
1476.85,0.234300,601175,350510
1480.02,0.240423,597737,343627
1483.19,0.247248,594479,336425
1486.36,0.252945,591232,330227
1489.52,0.258493,587853,324172
1492.68,0.262121,583875,319300
1496.89,0.265569,578062,313621
1500.03,0.266445,574159,310876
1503.18,0.266968,570285,308407
1506.32,0.265813,565444,306603
1509.45,0.265367,560571,304273
1512.58,0.263257,555821,303164
1515.71,0.261272,550344,301552
1519.87,0.258535,543983,299951
1522.99,0.255263,538764,299320
1526.1,0.252426,533692,298445
1529.21,0.249101,527902,297476
1532.32,0.246598,521886,295786
1535.42,0.243289,515888,294623
1538.51,0.239423,509987,293857
1541.6,0.236688,503936,292205
1545.72,0.230953,494694,290659
1548.8,0.227319,488378,289359
1551.88,0.225351,481832,286777
1554.95,0.222601,474989,284500
1558.02,0.221190,467818,281117
1561.08,0.220029,460730,277599
1564.15,0.218932,454170,274338
1568.22,0.217968,444181,268901
1571.27,0.217742,436947,264659
1574.32,0.216457,429598,260979
1577.36,0.215060,422039,257213
1580.4,0.212110,414375,254263
1583.43,0.210900,406354,250037
1586.46,0.209046,398475,246238
1590.49,0.206249,388982,241925
1593.51,0.204313,380708,237837
1596.53,0.201956,372727,234118
1599.54,0.199861,365060,230411
1602.55,0.196439,357543,227452
1605.55,0.194611,349495,223270
1608.55,0.192723,341154,218891
1612.54,0.190037,330877,213614
1615.53,0.187241,322904,209813
1618.51,0.185599,315116,205528
1621.49,0.184627,307217,200825
1624.47,0.183108,299481,196454
1627.44,0.181760,292112,192216
1630.41,0.179967,284245,187813
1634.36,0.179325,274079,181364
1637.32,0.177323,266916,177440
1640.27,0.176985,259612,172719
1643.22,0.174561,251804,168462
1646.16,0.173573,244348,163846
1649.1,0.173720,236703,158666
1652.04,0.172540,228171,153363
1655.95,0.170181,215408,145573
1658.88,0.167386,204937,139391
1661.8,0.164977,193395,132272
1664.72,0.159471,179728,124493
1667.63,0.152733,163642,115123
1670.54,0.146301,146312,104467
1673.44,0.136961,128451,93708
1677.31,0.126661,105080,78498
1680.21,0.122604,88906,67039
1683.1,0.126437,75033,56081
1685.99,0.131275,63520,46950
1688.87,0.136082,53714,39265
1691.75,0.139969,45653,33075
1694.62,0.141707,39137,28241
1697.49,0.147565,33776,24046
1701.31,0.148096,28175,20034

File: Column 1_050549_20150331_115911.csv
Method:,Column 1,,
Host Date-Time:,31/3/15 @ 11:59:11,,
Header Version:,1,,
System Temp (C):,33.2,,
Detector Temp (C):,31.96,,
Humidity (%):,2.25,,
Lamp PD:,3822,,
Shift Vector Coefficients:,-10.5391,0.0761263,-0.000134223,,
Pixel to Wavelength Coefficients:,1775.68,-0.916766,-0.000235065,,
Serial Number:,5510004,,
Scan Config Name:,Column 1,,
Scan Config Type:,Slew,,
Section 1,,
Start wavelength (nm):,900,,
End wavelength (nm):,1700,,
Pattern Pixel Width (nm):,   7.03,,,,
Exposure (ms):,  0.635,,,,
Digital Resolution:,228,,
Num Repeats:,6,,
PGA Gain:,64,,
Total Measurement Time in sec:,  2.680,,
Wavelength (nm),Absorbance (AU),Reference Signal (unitless),Sample Signal (unitless)
901.51,0.047963,108485,97142
905.376,0.053420,121306,107266
909.237,0.054400,131909,116379
913.095,0.055229,143299,126187
916.948,0.054751,156982,138388
922.079,0.055876,179937,158214
925.923,0.056615,200504,175998
929.762,0.057922,222660,194859
933.597,0.058359,244426,213692
937.427,0.058141,263972,230896
941.254,0.058111,281845,246547
945.076,0.057463,297271,260429
950.165,0.056807,315605,276909
953.978,0.056803,328029,287812
957.786,0.057382,340470,298330
961.59,0.057296,352317,308772
965.389,0.057493,363056,318039
969.185,0.058022,373162,326494
972.976,0.058780,382632,334196
976.763,0.059344,391202,341238
981.806,0.059137,400190,349244
985.583,0.060120,406088,353590
989.355,0.060725,410162,356640
993.124,0.061509,412868,358346
996.888,0.062164,414263,359015
1000.65,0.062696,415476,359625
1004.4,0.064302,415479,358300
1009.41,0.065034,414358,356732
1013.15,0.065651,412923,354992
1016.89,0.066126,411526,353404
1020.63,0.066068,409066,351338
1024.36,0.065692,406777,349675
1028.09,0.065850,404427,347528
1031.82,0.065335,401911,345776
1036.78,0.064397,398410,343505
1040.49,0.064329,396204,341657
1044.2,0.063624,394236,340512
1047.91,0.063440,392042,338760
1051.61,0.062710,389823,337410
1055.31,0.061520,388234,336956
1059,0.060234,387599,337403
1063.92,0.060214,386688,336625
1067.61,0.058451,386598,337916
1071.29,0.058508,387377,338552
1074.96,0.056783,388536,340917
1078.63,0.056614,389855,342207
1082.3,0.055523,391215,344265
1085.96,0.054969,393215,346466
1090.84,0.054237,396270,349747
1094.49,0.053678,398760,352398
1098.14,0.053797,400987,354269
1101.79,0.052964,403477,357153
1105.43,0.053290,406116,359220
1109.06,0.052817,407701,361015
1112.7,0.052272,409859,363381
1117.53,0.052867,412494,365217
1121.15,0.052979,414909,367260
1124.77,0.054214,416559,367674
1128.38,0.055163,418532,368609
1131.99,0.056608,419956,368634
1135.6,0.058976,421946,368367
1139.2,0.061145,423881,368213
1143.99,0.063909,426786,368384
1147.58,0.064924,428617,369101
1151.17,0.066019,431169,370364
1154.75,0.067194,433579,371428
1158.33,0.069083,436264,372106
1161.91,0.071464,439132,372504
1165.48,0.074926,442389,372287
1169.04,0.077596,446101,373110
1173.79,0.081282,451929,374790
1177.34,0.084697,456026,375226
1180.9,0.086996,461306,377566
1184.44,0.089326,467657,380716
1187.99,0.089549,473969,385657
1191.52,0.089265,479856,390702
1195.06,0.088925,487372,397133
1199.76,0.087669,497347,406434
1203.29,0.086009,504311,413704
1206.81,0.084915,511507,420665
1210.33,0.083300,519078,428482
1213.84,0.082864,527163,435593
1217.35,0.081668,534208,442632
1220.85,0.080720,540472,448800
1225.51,0.078529,549929,458963
1229.01,0.078464,556888,464840
1232.5,0.077355,562180,470458
1235.98,0.076975,567975,475723
1239.46,0.075507,574815,483082
1242.94,0.074126,582782,491338
1246.41,0.073274,591476,499647
1251.03,0.072583,604016,511052
1254.5,0.073154,612289,517372
1257.96,0.073336,619125,522928
1261.41,0.073803,624551,526944
1264.86,0.074499,629900,530606
1268.31,0.075290,634345,533378
1271.75,0.075798,638574,536307
1276.33,0.076102,642499,539225
1279.76,0.075986,645905,542229
1283.19,0.074941,648307,545556
1286.61,0.074740,650446,547610
1290.03,0.074479,652132,549359
1293.44,0.074338,653907,551033
1296.85,0.073720,655963,553553
1301.39,0.073782,657349,554643
1304.8,0.073539,657558,555130
1308.19,0.073556,658515,555916
1311.58,0.073870,658804,555759
1314.97,0.074158,659011,555565
1318.36,0.074860,658272,554045
1321.73,0.075215,658022,553382
1326.23,0.076465,657870,551664
1329.6,0.077114,656482,549679
1332.97,0.078164,654926,547051
1336.33,0.079691,653727,544134
1339.69,0.081501,652497,540851
1343.04,0.083472,649913,536270
1346.39,0.085861,647671,531488
1349.73,0.088496,645338,526370
1354.18,0.091993,641175,518780
1357.52,0.094300,638376,513779
1360.85,0.096778,635805,508799
1364.17,0.099296,633413,503954
1367.49,0.102074,631026,498854
1370.81,0.104599,628050,493623
1374.12,0.107088,625034,488445
1378.54,0.110860,620272,480532
1381.84,0.114592,616892,473824
1385.14,0.119349,613613,466171
1388.43,0.124316,611526,459303
1391.72,0.129588,610663,453120
1395.01,0.135047,610634,447439
1398.29,0.140633,611700,442492
1402.66,0.148935,614051,435782
1405.93,0.155442,616268,430852
1409.2,0.161274,617795,426158
1412.46,0.167336,618872,420983
1415.72,0.172318,619795,416802
1418.98,0.176864,620495,412928
1422.23,0.181333,621087,409091
1426.56,0.185420,621375,405447
1429.8,0.188220,621616,402997
1433.04,0.191080,622129,400683
1436.27,0.193857,621526,397743
1439.5,0.195394,621113,396074
1442.72,0.198339,620921,393276
1445.94,0.203024,620270,388648
1450.23,0.205282,618860,385754
1453.44,0.208230,617697,382424
1456.64,0.211106,616264,379019
1459.85,0.213278,614413,375995
1463.04,0.216549,612307,371895
1466.24,0.219949,610032,367624
1469.43,0.222850,607345,363568
1473.67,0.228294,603789,356937
1476.85,0.234135,601175,350644
1480.02,0.239487,597737,344368
1483.19,0.246266,594479,337187
1486.36,0.252793,591232,330343
1489.52,0.258062,587853,324494
1492.68,0.261814,583875,319526
1496.89,0.264602,578062,314320
1500.03,0.266215,574159,311041
1503.18,0.266104,570285,309021
1506.32,0.265100,565444,307107
1509.45,0.264393,560571,304956
1512.58,0.262576,555821,303640
1515.71,0.260514,550344,302079
1519.87,0.256993,543983,301018
1522.99,0.254363,538764,299941
1526.1,0.251903,533692,298805
1529.21,0.248592,527902,297825
1532.32,0.245595,521886,296470
1535.42,0.242314,515888,295285
1538.51,0.238564,509987,294439
1541.6,0.235521,503936,292991
1545.72,0.231128,494694,290542
1548.8,0.227804,488378,289036
1551.88,0.224252,481832,287504
1554.95,0.221901,474989,284959
1558.02,0.220572,467818,281517
1561.08,0.218585,460730,278523
1564.15,0.218477,454170,274626
1568.22,0.216980,444181,269513
1571.27,0.216587,436947,265364
1574.32,0.215503,429598,261553
1577.36,0.214216,422039,257713
1580.4,0.212006,414375,254324
1583.43,0.210659,406354,250176
1586.46,0.208012,398475,246825
1590.49,0.206035,388982,242044
1593.51,0.203457,380708,238306
1596.53,0.201196,372727,234528
1599.54,0.199095,365060,230818
1602.55,0.196612,357543,227361
1605.55,0.194053,349495,223557
1608.55,0.191304,341154,219607
1612.54,0.189602,330877,213828
1615.53,0.187100,322904,209881
1618.51,0.185587,315116,205534
1621.49,0.184050,307217,201092
1624.47,0.181683,299481,197100
1627.44,0.180853,292112,192618
1630.41,0.179907,284245,187839
1634.36,0.177256,274079,182230
1637.32,0.176753,266916,177673
1640.27,0.176264,259612,173006
1643.22,0.175015,251804,168286
1646.16,0.174977,244348,163317
1649.1,0.175505,236703,158015
1652.04,0.171584,228171,153701
1655.95,0.168071,215408,146282
1658.88,0.167373,204937,139395
1661.8,0.164380,193395,132454
1664.72,0.159101,179728,124599
1667.63,0.152669,163642,115140
1670.54,0.143644,146312,105108
1673.44,0.134014,128451,94346
1677.31,0.125297,105080,78745
1680.21,0.120961,88906,67293
1683.1,0.124127,75033,56380
1685.99,0.129042,63520,47192
1688.87,0.131833,53714,39651
1691.75,0.141403,45653,32966
1694.62,0.144067,39137,28088
1697.49,0.141325,33776,24394
1701.31,0.154407,28175,19745