Folder: textile_sorting_NIRSCAN_/samples/wool/wool-000811 (part 49)

File: Column 1_050558_20150331_120331.csv
Method:,Column 1,,
Host Date-Time:,31/3/15 @ 12:3:31,,
Header Version:,1,,
System Temp (C):,33.61,,
Detector Temp (C):,32.88,,
Humidity (%):,2.25,,
Lamp PD:,3820,,
Shift Vector Coefficients:,-10.5391,0.0761263,-0.000134223,,
Pixel to Wavelength Coefficients:,1775.68,-0.916766,-0.000235065,,
Serial Number:,5510004,,
Scan Config Name:,Column 1,,
Scan Config Type:,Slew,,
Section 1,,
Start wavelength (nm):,900,,
End wavelength (nm):,1700,,
Pattern Pixel Width (nm):,   7.03,,,,
Exposure (ms):,  0.635,,,,
Digital Resolution:,228,,
Num Repeats:,6,,
PGA Gain:,64,,
Total Measurement Time in sec:,  2.728,,
Wavelength (nm),Absorbance (AU),Reference Signal (unitless),Sample Signal (unitless)
901.51,0.033178,108485,100506
905.376,0.039903,121306,110657
909.237,0.042932,131909,119493
913.095,0.042918,143299,129815
916.948,0.042666,156982,142293
922.079,0.045750,179937,161946
925.923,0.046339,200504,180212
929.762,0.046187,222660,200196
933.597,0.047257,244426,219225
937.427,0.046813,263972,236998
941.254,0.047541,281845,252621
945.076,0.046714,297271,266955
950.165,0.045728,315605,284064
953.978,0.045159,328029,295633
957.786,0.045746,340470,306431
961.59,0.045898,352317,316983
965.389,0.046479,363056,326208
969.185,0.046349,373162,335389
972.976,0.047499,382632,342991
976.763,0.047604,391202,350588
981.806,0.048645,400190,357784
985.583,0.049419,406088,362411
989.355,0.049735,410162,365780
993.124,0.049981,412868,367985
996.888,0.051058,414263,368314
1000.65,0.051301,415476,369186
1004.4,0.052892,415479,367838
1009.41,0.053549,414358,366291
1013.15,0.054951,412923,363846
1016.89,0.055009,411526,362567
1020.63,0.054800,409066,360573
1024.36,0.054466,406777,358831
1028.09,0.054529,404427,356707
1031.82,0.053822,401911,355065
1036.78,0.053710,398410,352063
1040.49,0.053861,396204,349992
1044.2,0.053425,394236,348603
1047.91,0.052987,392042,347013
1051.61,0.052440,389823,345484
1055.31,0.051485,388234,344833
1059,0.051750,387599,344059
1063.92,0.050079,386688,344573
1067.61,0.049480,386598,344969
1071.29,0.049550,387377,345608
1074.96,0.048513,388536,347471
1078.63,0.047713,389855,349293
1082.3,0.046897,391215,351171
1085.96,0.046991,393215,352890
1090.84,0.045859,396270,356560
1094.49,0.045172,398760,359368
1098.14,0.044689,400987,361777
1101.79,0.044936,403477,363817
1105.43,0.045598,406116,365639
1109.06,0.044423,407701,368060
1112.7,0.044662,409859,369805
1117.53,0.043826,412494,372899
1121.15,0.045298,414909,373813
1124.77,0.045950,416559,374737
1128.38,0.047415,418532,375244
1131.99,0.048363,419956,375700
1135.6,0.050257,421946,375837
1139.2,0.051961,423881,376082
1143.99,0.054593,426786,376372
1147.58,0.055366,428617,377314
1151.17,0.056499,431169,378572
1154.75,0.057805,433579,379545
1158.33,0.059814,436264,380133
1161.91,0.062102,439132,380621
1165.48,0.064428,442389,381396
1169.04,0.067016,446101,382311
1173.79,0.070670,451929,384061
1177.34,0.073240,456026,385256
1180.9,0.075457,461306,387732
1184.44,0.076699,467657,391948
1187.99,0.078022,473969,396030
1191.52,0.077851,479856,401107
1195.06,0.077905,487372,407339
1199.76,0.076621,497347,416906
1203.29,0.075426,504311,423909
1206.81,0.074944,511507,430435
1210.33,0.074255,519078,437500
1213.84,0.073592,527163,444993
1217.35,0.072620,534208,451950
1220.85,0.072036,540472,457865
1225.51,0.070989,549929,467001
1229.01,0.070465,556888,473481
1232.5,0.069606,562180,478927
1235.98,0.069089,567975,484440
1239.46,0.067802,574815,491729
1242.94,0.067121,582782,499327
1246.41,0.066161,591476,507897
1251.03,0.066504,604016,518256
1254.5,0.066635,612289,525196
1257.96,0.066309,619125,531459
1261.41,0.067338,624551,534848
1264.86,0.068089,629900,538496
1268.31,0.068431,634345,541869
1271.75,0.069188,638574,544532
1276.33,0.069725,642499,547202
1279.76,0.069484,645905,550408
1283.19,0.068647,648307,553520
1286.61,0.068394,650446,555670
1290.03,0.068517,652132,556953
1293.44,0.067617,653907,559627
1296.85,0.067606,655963,561401
1301.39,0.067276,657349,563015
1304.8,0.067474,657558,562938
1308.19,0.067907,658515,563195
1311.58,0.067703,658804,563707
1314.97,0.068506,659011,562842
1318.36,0.069138,658272,561393
1321.73,0.069441,658022,560789
1326.23,0.070038,657870,559889
1329.6,0.071425,656482,556926
1332.97,0.072520,654926,554207
1336.33,0.073877,653727,551467
1339.69,0.075436,652497,548457
1343.04,0.077418,649913,543798
1346.39,0.079418,647671,539432
1349.73,0.081588,645338,534810
1354.18,0.084972,641175,527235
1357.52,0.087382,638376,522029
1360.85,0.089441,635805,517467
1364.17,0.091459,633413,513131
1367.49,0.094140,631026,508051
1370.81,0.096503,628050,502911
1374.12,0.098839,625034,497811
1378.54,0.102430,620272,489951
1381.84,0.106097,616892,483184
1385.14,0.109877,613613,476450
1388.43,0.114727,611526,469557
1391.72,0.120173,610663,463051
1395.01,0.125229,610634,457670
1398.29,0.130287,611700,453160
1402.66,0.138186,614051,446703
1405.93,0.144386,616268,441961
1409.2,0.149907,617795,437459
1412.46,0.155234,618872,432879
1415.72,0.160470,619795,428330
1418.98,0.164047,620495,425296
1422.23,0.167993,621087,421851
1426.56,0.172944,621375,417263
1429.8,0.175327,621616,415141
1433.04,0.178589,622129,412374
1436.27,0.180719,621526,409959
1439.5,0.182959,621113,407579
1442.72,0.185576,620921,405005
1445.94,0.188212,620270,402132
1450.23,0.191695,618860,398013
1453.44,0.194485,617697,394721
1456.64,0.197771,616264,390837
1459.85,0.200200,614413,387490
1463.04,0.203473,612307,383262
1466.24,0.206755,610032,378964
1469.43,0.209891,607345,374580
1473.67,0.215098,603789,367949
1476.85,0.221180,601175,361261
1480.02,0.226819,597737,354561
1483.19,0.232992,594479,347652
1486.36,0.238659,591232,341271
1489.52,0.243474,587853,335579
1492.68,0.247402,583875,330307
1496.89,0.250111,578062,324985
1500.03,0.249753,574159,323057
1503.18,0.250235,570285,320521
1506.32,0.249558,565444,318296
1509.45,0.249015,560571,315948
1512.58,0.246645,555821,314985
1515.71,0.244330,550344,313548
1519.87,0.240945,543983,312349
1522.99,0.238570,538764,311049
1526.1,0.235436,533692,310352
1529.21,0.232737,527902,308899
1532.32,0.230064,521886,307264
1535.42,0.226108,515888,306512
1538.51,0.223940,509987,304522
1541.6,0.220433,503936,303349
1545.72,0.215808,494694,300974
1548.8,0.212269,488378,299562
1551.88,0.210326,481832,296872
1554.95,0.207722,474989,294416
1558.02,0.205844,467818,291228
1561.08,0.204258,460730,287865
1564.15,0.204221,454170,283790
1568.22,0.202724,444181,278507
1571.27,0.202086,436947,274374
1574.32,0.201184,429598,270320
1577.36,0.199634,422039,266513
1580.4,0.198076,414375,262614
1583.43,0.196464,406354,258488
1586.46,0.195267,398475,254176
1590.49,0.191983,388982,250004
1593.51,0.190537,380708,245502
1596.53,0.187470,372727,242059
1599.54,0.185899,365060,237939
1602.55,0.182967,357543,234618
1605.55,0.181560,349495,230081
1608.55,0.179442,341154,225688
1612.54,0.176630,330877,220311
1615.53,0.175237,322904,215693
1618.51,0.173368,315116,211399
1621.49,0.172119,307217,206693
1624.47,0.171130,299481,201948
1627.44,0.169886,292112,197544
1630.41,0.168318,284245,192919
1634.36,0.168031,274079,186142
1637.32,0.166886,266916,181756
1640.27,0.166322,259612,177012
1643.22,0.164455,251804,172428
1646.16,0.164806,244348,167187
1649.1,0.164030,236703,162246
1652.04,0.162934,228171,156793
1655.95,0.159508,215408,149195
1658.88,0.157087,204937,142736
1661.8,0.153424,193395,135838
1664.72,0.148088,179728,127799
1667.63,0.137415,163642,119256
1670.54,0.128208,146312,108911
1673.44,0.118079,128451,97872
1677.31,0.105978,105080,82327
1680.21,0.098499,88906,70865
1683.1,0.097709,75033,59916
1685.99,0.101653,63520,50264
1688.87,0.102896,53714,42383
1691.75,0.110576,45653,35391
1694.62,0.117178,39137,29882
1697.49,0.118472,33776,25712
1701.31,0.130154,28175,20879

File: Column 1_050558_20150331_120333.csv
Method:,Column 1,,
Host Date-Time:,31/3/15 @ 12:3:33,,
Header Version:,1,,
System Temp (C):,33.6,,
Detector Temp (C):,32.88,,
Humidity (%):,2.25,,
Lamp PD:,3819,,
Shift Vector Coefficients:,-10.5391,0.0761263,-0.000134223,,
Pixel to Wavelength Coefficients:,1775.68,-0.916766,-0.000235065,,
Serial Number:,5510004,,
Scan Config Name:,Column 1,,
Scan Config Type:,Slew,,
Section 1,,
Start wavelength (nm):,900,,
End wavelength (nm):,1700,,
Pattern Pixel Width (nm):,   7.03,,,,
Exposure (ms):,  0.635,,,,
Digital Resolution:,228,,
Num Repeats:,6,,
PGA Gain:,64,,
Total Measurement Time in sec:,  2.717,,
Wavelength (nm),Absorbance (AU),Reference Signal (unitless),Sample Signal (unitless)
901.51,0.035869,108485,99885
905.376,0.042052,121306,110111
909.237,0.043998,131909,119200
913.095,0.044520,143299,129337
916.948,0.045195,156982,141467
922.079,0.044976,179937,162235
925.923,0.046175,200504,180280
929.762,0.046725,222660,199948
933.597,0.047255,244426,219226
937.427,0.046958,263972,236919
941.254,0.046936,281845,252973
945.076,0.046240,297271,267247
950.165,0.046003,315605,283884
953.978,0.045774,328029,295215
957.786,0.046143,340470,306151
961.59,0.046495,352317,316547
965.389,0.046270,363056,326365
969.185,0.046930,373162,334940
972.976,0.046929,382632,343441
976.763,0.048111,391202,350179
981.806,0.048259,400190,358102
985.583,0.049347,406088,362471
989.355,0.049979,410162,365575
993.124,0.050449,412868,367589
996.888,0.050830,414263,368507
1000.65,0.051207,415476,369266
1004.4,0.052988,415479,367757
1009.41,0.053789,414358,366089
1013.15,0.054017,412923,364630
1016.89,0.054795,411526,362746
1020.63,0.054471,409066,360846
1024.36,0.055435,406777,358032
1028.09,0.054606,404427,356643
1031.82,0.054102,401911,354836
1036.78,0.054292,398410,351591
1040.49,0.053832,396204,350015
1044.2,0.053149,394236,348825
1047.91,0.053222,392042,346825
1051.61,0.052355,389823,345551
1055.31,0.051941,388234,344471
1059,0.051151,387599,344534
1063.92,0.050427,386688,344297
1067.61,0.049560,386598,344905
1071.29,0.049006,387377,346041
1074.96,0.048441,388536,347528
1078.63,0.048211,389855,348893
1082.3,0.047006,391215,351083
1085.96,0.046870,393215,352988
1090.84,0.045807,396270,356602
1094.49,0.045367,398760,359207
1098.14,0.045246,400987,361314
1101.79,0.044739,403477,363982
1105.43,0.044709,406116,366388
1109.06,0.044562,407701,367942
1112.7,0.044452,409859,369984
1117.53,0.044780,412494,372081
1121.15,0.045744,414909,373430
1124.77,0.045864,416559,374811
1128.38,0.047052,418532,375558
1131.99,0.048550,419956,375538
1135.6,0.050060,421946,376008
1139.2,0.051684,423881,376322
1143.99,0.054279,426786,376644
1147.58,0.055326,428617,377349
1151.17,0.056754,431169,378350
1154.75,0.057646,433579,379684
1158.33,0.059785,436264,380158
1161.91,0.061890,439132,380807
1165.48,0.064421,442389,381402
1169.04,0.066473,446101,382790
1173.79,0.070996,451929,383773
1177.34,0.073194,456026,385297
1180.9,0.075301,461306,387872
1184.44,0.077277,467657,391427
1187.99,0.078229,473969,395841
1191.52,0.077605,479856,401334
1195.06,0.077950,487372,407296
1199.76,0.077070,497347,416476
1203.29,0.075952,504311,423396
1206.81,0.074908,511507,430471
1210.33,0.074394,519078,437360
1213.84,0.073744,527163,444837
1217.35,0.072413,534208,452165
1220.85,0.071747,540472,458170
1225.51,0.071342,549929,466621
1229.01,0.070484,556888,473461
1232.5,0.069438,562180,479112
1235.98,0.069356,567975,484142
1239.46,0.067937,574815,491577
1242.94,0.067009,582782,499456
1246.41,0.066577,591476,507411
1251.03,0.066339,604016,518453
1254.5,0.066422,612289,525454
1257.96,0.066816,619125,530839
1261.41,0.067261,624551,534942
1264.86,0.067825,629900,538823
1268.31,0.068511,634345,541769
1271.75,0.069114,638574,544625
1276.33,0.069567,642499,547401
1279.76,0.069239,645905,550718
1283.19,0.068896,648307,553203
1286.61,0.068579,650446,555434
1290.03,0.068179,652132,557387
1293.44,0.067899,653907,559264
1296.85,0.067701,655963,561278
1301.39,0.067437,657349,562806
1304.8,0.067258,657558,563218
1308.19,0.067670,658515,563502
1311.58,0.067872,658804,563488
1314.97,0.068494,659011,562858
1318.36,0.069010,658272,561559
1321.73,0.069412,658022,560827
1326.23,0.070312,657870,559536
1329.6,0.071614,656482,556684
1332.97,0.072331,654926,554448
1336.33,0.073497,653727,551950
1339.69,0.075245,652497,548698
1343.04,0.077425,649913,543789
1346.39,0.079491,647671,539341
1349.73,0.081526,645338,534886
1354.18,0.084791,641175,527455
1357.52,0.086950,638376,522548
1360.85,0.089038,635805,517948
1364.17,0.091692,633413,512856
1367.49,0.094114,631026,508081
1370.81,0.096254,628050,503200
1374.12,0.099282,625034,497304
1378.54,0.102681,620272,489667
1381.84,0.106337,616892,482917
1385.14,0.110039,613613,476273
1388.43,0.114746,611526,469536
1391.72,0.119780,610663,463470
1395.01,0.125000,610634,457911
1398.29,0.130018,611700,453441
1402.66,0.138005,614051,446889
1405.93,0.144413,616268,441933
1409.2,0.149987,617795,437378
1412.46,0.155482,618872,432632
1415.72,0.160419,619795,428380
1418.98,0.164279,620495,425069
1422.23,0.168541,621087,421319
1426.56,0.172602,621375,417592
1429.8,0.175858,621616,414633
1433.04,0.178181,622129,412762
1436.27,0.181113,621526,409587
1439.5,0.183269,621113,407288
1442.72,0.185682,620921,404906
1445.94,0.188245,620270,402102
1450.23,0.191646,618860,398058
1453.44,0.194639,617697,394581
1456.64,0.197563,616264,391024
1459.85,0.199839,614413,387812
1463.04,0.203794,612307,382979
1466.24,0.206682,610032,379027
1469.43,0.210098,607345,374401
1473.67,0.215472,603789,367632
1476.85,0.220920,601175,361477
1480.02,0.226517,597737,354808
1483.19,0.233240,594479,347453
1486.36,0.238702,591232,341237
1489.52,0.243592,587853,335488
1492.68,0.246639,583875,330888
1496.89,0.249574,578062,325387
1500.03,0.250340,574159,322621
1503.18,0.250550,570285,320289
1506.32,0.249449,565444,318376
1509.45,0.247523,560571,317035
1512.58,0.246809,555821,314866
1515.71,0.244603,550344,313351
1519.87,0.240874,543983,312400
1522.99,0.238633,538764,311004
1526.1,0.235762,533692,310119
1529.21,0.232800,527902,308854
1532.32,0.229417,521886,307722
1535.42,0.226613,515888,306156
1538.51,0.223728,509987,304671
1541.6,0.221363,503936,302700
1545.72,0.215992,494694,300846
1548.8,0.212857,488378,299157
1551.88,0.209924,481832,297147
1554.95,0.207544,474989,294537
1558.02,0.206024,467818,291107
1561.08,0.204431,460730,287750
1564.15,0.203701,454170,284130
1568.22,0.203273,444181,278155
1571.27,0.202004,436947,274426
1574.32,0.201398,429598,270187
1577.36,0.199543,422039,266569
1580.4,0.198466,414375,262378
1583.43,0.196558,406354,258432
1586.46,0.194724,398475,254494
1590.49,0.192217,388982,249869
1593.51,0.189975,380708,245820
1596.53,0.188342,372727,241573
1599.54,0.185430,365060,238196
1602.55,0.183678,357543,234234
1605.55,0.180938,349495,230411
1608.55,0.179232,341154,225797
1612.54,0.176692,330877,220280
1615.53,0.175294,322904,215665
1618.51,0.173109,315116,211525
1621.49,0.173620,307217,205980
1624.47,0.170176,299481,202392
1627.44,0.170127,292112,197434
1630.41,0.168199,284245,192972
1634.36,0.166855,274079,186647
1637.32,0.166802,266916,181791
1640.27,0.165175,259612,177480
1643.22,0.164090,251804,172573
1646.16,0.163945,244348,167519
1649.1,0.163252,236703,162537
1652.04,0.162452,228171,156967
1655.95,0.160332,215408,148912
1658.88,0.155932,204937,143116
1661.8,0.153066,193395,135950
1664.72,0.147599,179728,127943
1667.63,0.139214,163642,118763
1670.54,0.127929,146312,108981
1673.44,0.117232,128451,98063
1677.31,0.105029,105080,82507
1680.21,0.098640,88906,70842
1683.1,0.097275,75033,59976
1685.99,0.102622,63520,50152
1688.87,0.104240,53714,42252
1691.75,0.107934,45653,35607
1694.62,0.116902,39137,29901
1697.49,0.115913,33776,25864
1701.31,0.129136,28175,20928

File: Column 1_050558_20150331_120336.csv
Method:,Column 1,,
Host Date-Time:,31/3/15 @ 12:3:36,,
Header Version:,1,,
System Temp (C):,33.61,,
Detector Temp (C):,32.93,,
Humidity (%):,2.25,,
Lamp PD:,3820,,
Shift Vector Coefficients:,-10.5391,0.0761263,-0.000134223,,
Pixel to Wavelength Coefficients:,1775.68,-0.916766,-0.000235065,,
Serial Number:,5510004,,
Scan Config Name:,Column 1,,
Scan Config Type:,Slew,,
Section 1,,
Start wavelength (nm):,900,,
End wavelength (nm):,1700,,
Pattern Pixel Width (nm):,   7.03,,,,
Exposure (ms):,  0.635,,,,
Digital Resolution:,228,,
Num Repeats:,6,,
PGA Gain:,64,,
Total Measurement Time in sec:,  2.673,,
Wavelength (nm),Absorbance (AU),Reference Signal (unitless),Sample Signal (unitless)
901.51,0.034805,108485,100130
905.376,0.040665,121306,110463
909.237,0.043190,131909,119422
913.095,0.042654,143299,129894
916.948,0.042966,156982,142195
922.079,0.045276,179937,162123
925.923,0.046091,200504,180315
929.762,0.047264,222660,199700
933.597,0.048318,244426,218690
937.427,0.047283,263972,236742
941.254,0.046329,281845,253327
945.076,0.046562,297271,267049
950.165,0.046124,315605,283805
953.978,0.045815,328029,295187
957.786,0.045821,340470,306378
961.59,0.046451,352317,316579
965.389,0.046325,363056,326324
969.185,0.046951,373162,334924
972.976,0.047481,382632,343005
976.763,0.048308,391202,350020
981.806,0.048374,400190,358008
985.583,0.049362,406088,362458
989.355,0.049766,410162,365754
993.124,0.049883,412868,368068
996.888,0.050810,414263,368524
1000.65,0.051799,415476,368763
1004.4,0.052791,415479,367924
1009.41,0.054221,414358,365725
1013.15,0.054563,412923,364172
1016.89,0.055010,411526,362566
1020.63,0.055211,409066,360232
1024.36,0.054958,406777,358425
1028.09,0.054956,404427,356356
1031.82,0.054264,401911,354704
1036.78,0.054169,398410,351691
1040.49,0.053372,396204,350386
1044.2,0.053291,394236,348711
1047.91,0.052902,392042,347081
1051.61,0.052650,389823,345317
1055.31,0.052102,388234,344343
1059,0.051371,387599,344359
1063.92,0.050372,386688,344341
1067.61,0.049507,386598,344947
1071.29,0.049448,387377,345689
1074.96,0.048718,388536,347307
1078.63,0.048413,389855,348731
1082.3,0.046823,391215,351231
1085.96,0.046764,393215,353074
1090.84,0.046144,396270,356326
1094.49,0.045591,398760,359022
1098.14,0.045223,400987,361333
1101.79,0.044937,403477,363816
1105.43,0.044787,406116,366322
1109.06,0.043987,407701,368430
1112.7,0.044506,409859,369938
1117.53,0.044066,412494,372693
1121.15,0.045360,414909,373760
1124.77,0.045690,416559,374961
1128.38,0.046782,418532,375791
1131.99,0.048156,419956,375879
1135.6,0.049757,421946,376270
1139.2,0.052150,423881,375919
1143.99,0.054999,426786,376020
1147.58,0.055592,428617,377118
1151.17,0.056591,431169,378492
1154.75,0.057836,433579,379518
1158.33,0.059606,436264,380315
1161.91,0.062250,439132,380492
1165.48,0.063948,442389,381818
1169.04,0.067037,446101,382293
1173.79,0.071103,451929,383678
1177.34,0.072828,456026,385622
1180.9,0.075310,461306,387864
1184.44,0.077512,467657,391215
1187.99,0.077963,473969,396084
1191.52,0.077741,479856,401208
1195.06,0.077512,487372,407707
1199.76,0.076318,497347,417197
1203.29,0.075715,504311,423627
1206.81,0.075044,511507,430336
1210.33,0.074164,519078,437591
1213.84,0.072882,527163,445721
1217.35,0.072513,534208,452061
1220.85,0.071952,540472,457953
1225.51,0.070655,549929,467360
1229.01,0.070376,556888,473578
1232.5,0.069609,562180,478924
1235.98,0.069190,567975,484328
1239.46,0.068104,574815,491387
1242.94,0.066935,582782,499541
1246.41,0.066215,591476,507834
1251.03,0.065946,604016,518922
1254.5,0.066781,612289,525020
1257.96,0.066856,619125,530790
1261.41,0.067293,624551,534903
1264.86,0.067913,629900,538714
1268.31,0.068590,634345,541671
1271.75,0.069181,638574,544541
1276.33,0.069355,642499,547668
1279.76,0.069503,645905,550384
1283.19,0.068913,648307,553181
1286.61,0.069142,650446,554714
1290.03,0.068284,652132,557252
1293.44,0.067589,653907,559664
1296.85,0.067820,655963,561124
1301.39,0.067343,657349,562928
1304.8,0.067359,657558,563087
1308.19,0.067696,658515,563468
1311.58,0.067562,658804,563890
1314.97,0.068642,659011,562666
1318.36,0.069124,658272,561411
1321.73,0.068894,658022,561496
1326.23,0.070077,657870,559839
1329.6,0.071144,656482,557287
1332.97,0.072132,654926,554703
1336.33,0.073678,653727,551720
1339.69,0.075183,652497,548777
1343.04,0.077119,649913,544172
1346.39,0.079194,647671,539710
1349.73,0.081713,645338,534656
1354.18,0.085096,641175,527085
1357.52,0.087134,638376,522327
1360.85,0.089526,635805,517366
1364.17,0.091389,633413,513213
1367.49,0.094159,631026,508029
1370.81,0.096492,628050,502924
1374.12,0.098934,625034,497702
1378.54,0.102274,620272,490126
1381.84,0.106164,616892,483109
1385.14,0.109969,613613,476349
1388.43,0.114831,611526,469444
1391.72,0.119599,610663,463663
1395.01,0.124849,610634,458070
1398.29,0.130767,611700,452659
1402.66,0.138108,614051,446783
1405.93,0.144106,616268,442246
1409.2,0.149849,617795,437517
1412.46,0.154937,618872,433175
1415.72,0.159935,619795,428858
1418.98,0.164427,620495,424924
1422.23,0.168713,621087,421153
1426.56,0.172869,621375,417335
1429.8,0.175379,621616,415091
1433.04,0.178269,622129,412678
1436.27,0.180942,621526,409748
1439.5,0.182953,621113,407584
1442.72,0.185507,620921,405069
1445.94,0.187750,620270,402560
1450.23,0.191185,618860,398481
1453.44,0.194688,617697,394537
1456.64,0.197582,616264,391007
1459.85,0.200072,614413,387604
1463.04,0.203002,612307,383678
1466.24,0.206287,610032,379372
1469.43,0.209412,607345,374993
1473.67,0.215484,603789,367622
1476.85,0.220768,601175,361604
1480.02,0.226241,597737,355033
1483.19,0.233252,594479,347444
1486.36,0.239011,591232,340994
1489.52,0.243237,587853,335762
1492.68,0.247784,583875,330017
1496.89,0.249134,578062,325717
1500.03,0.250099,574159,322800
1503.18,0.250534,570285,320301
1506.32,0.249087,565444,318642
1509.45,0.248533,560571,316299
1512.58,0.246951,555821,314763
1515.71,0.244212,550344,313633
1519.87,0.241471,543983,311971
1522.99,0.237692,538764,311678
1526.1,0.235785,533692,310103
1529.21,0.232693,527902,308930
1532.32,0.230041,521886,307280
1535.42,0.226793,515888,306029
1538.51,0.223843,509987,304590
1541.6,0.220959,503936,302982
1545.72,0.215594,494694,301122
1548.8,0.213378,488378,298798
1551.88,0.210204,481832,296956
1554.95,0.207370,474989,294655
1558.02,0.205863,467818,291215
1561.08,0.204994,460730,287377
1564.15,0.203515,454170,284252
1568.22,0.202532,444181,278630
1571.27,0.202073,436947,274382
1574.32,0.200733,429598,270601
1577.36,0.200056,422039,266254
1580.4,0.198696,414375,262239
1583.43,0.197130,406354,258092
1586.46,0.194773,398475,254465
1590.49,0.192228,388982,249863
1593.51,0.190441,380708,245556
1596.53,0.187865,372727,241839
1599.54,0.186123,365060,237816
1602.55,0.184122,357543,233995
1605.55,0.181707,349495,230003
1608.55,0.179600,341154,225606
1612.54,0.176516,330877,220369
1615.53,0.174519,322904,216050
1618.51,0.173762,315116,211207
1621.49,0.172927,307217,206309
1624.47,0.170313,299481,202328
1627.44,0.170167,292112,197416
1630.41,0.169003,284245,192615
1634.36,0.167262,274079,186472
1637.32,0.166334,266916,181987
1640.27,0.166408,259612,176977
1643.22,0.164813,251804,172286
1646.16,0.164243,244348,167404
1649.1,0.164429,236703,162097
1652.04,0.161305,228171,157382
1655.95,0.159813,215408,149090
1658.88,0.156980,204937,142771
1661.8,0.153334,193395,135866
1664.72,0.147240,179728,128049
1667.63,0.137823,163642,119144
1670.54,0.127838,146312,109004
1673.44,0.115875,128451,98370
1677.31,0.103464,105080,82805
1680.21,0.098646,88906,70841
1683.1,0.097709,75033,59916
1685.99,0.099129,63520,50557
1688.87,0.105053,53714,42173
1691.75,0.109253,45653,35499
1694.62,0.117774,39137,29841
1697.49,0.119572,33776,25647
1701.31,0.124821,28175,21137