Folder: textile_sorting_NIRSCAN_/samples/wool/wool-000811 (part 73)

File: Column 1_050570_20150331_120909.csv
Method:,Column 1,,
Host Date-Time:,31/3/15 @ 12:9:9,,
Header Version:,1,,
System Temp (C):,34.04,,
Detector Temp (C):,34.09,,
Humidity (%):,1.76,,
Lamp PD:,3818,,
Shift Vector Coefficients:,-10.5391,0.0761263,-0.000134223,,
Pixel to Wavelength Coefficients:,1775.68,-0.916766,-0.000235065,,
Serial Number:,5510004,,
Scan Config Name:,Column 1,,
Scan Config Type:,Slew,,
Section 1,,
Start wavelength (nm):,900,,
End wavelength (nm):,1700,,
Pattern Pixel Width (nm):,   7.03,,,,
Exposure (ms):,  0.635,,,,
Digital Resolution:,228,,
Num Repeats:,6,,
PGA Gain:,64,,
Total Measurement Time in sec:,  2.669,,
Wavelength (nm),Absorbance (AU),Reference Signal (unitless),Sample Signal (unitless)
901.51,0.035535,108485,99962
905.376,0.041031,121306,110370
909.237,0.043197,131909,119420
913.095,0.044195,143299,129434
916.948,0.045846,156982,141255
922.079,0.047085,179937,161449
925.923,0.048148,200504,179463
929.762,0.049713,222660,198577
933.597,0.049661,244426,218015
937.427,0.050043,263972,235242
941.254,0.048071,281845,252313
945.076,0.047450,297271,266503
950.165,0.046575,315605,283510
953.978,0.047085,328029,294325
957.786,0.046234,340470,306087
961.59,0.047422,352317,315872
965.389,0.047052,363056,325778
969.185,0.047017,373162,334873
972.976,0.047113,382632,343296
976.763,0.047694,391202,350515
981.806,0.048276,400190,358088
985.583,0.049091,406088,362685
989.355,0.049990,410162,365566
993.124,0.050374,412868,367652
996.888,0.050903,414263,368445
1000.65,0.051836,415476,368731
1004.4,0.052896,415479,367835
1009.41,0.054305,414358,365654
1013.15,0.054559,412923,364175
1016.89,0.055077,411526,362510
1020.63,0.055089,409066,360333
1024.36,0.055055,406777,358345
1028.09,0.054583,404427,356662
1031.82,0.054078,401911,354856
1036.78,0.053489,398410,352242
1040.49,0.053496,396204,350286
1044.2,0.052712,394236,349176
1047.91,0.052768,392042,347188
1051.61,0.052021,389823,345817
1055.31,0.051552,388234,344780
1059,0.051176,387599,344514
1063.92,0.050642,386688,344127
1067.61,0.049826,386598,344694
1071.29,0.049114,387377,345955
1074.96,0.048900,388536,347161
1078.63,0.048533,389855,348634
1082.3,0.047173,391215,350948
1085.96,0.046686,393215,353138
1090.84,0.045796,396270,356611
1094.49,0.045586,398760,359026
1098.14,0.045506,400987,361097
1101.79,0.045016,403477,363750
1105.43,0.044989,406116,366152
1109.06,0.044408,407701,368073
1112.7,0.044028,409859,370345
1117.53,0.044484,412494,372335
1121.15,0.045249,414909,373856
1124.77,0.045758,416559,374903
1128.38,0.046580,418532,375966
1131.99,0.048179,419956,375859
1135.6,0.049981,421946,376076
1139.2,0.052004,423881,376045
1143.99,0.054196,426786,376716
1147.58,0.054888,428617,377730
1151.17,0.056038,431169,378974
1154.75,0.057271,433579,380012
1158.33,0.059015,436264,380833
1161.91,0.061695,439132,380978
1165.48,0.064006,442389,381767
1169.04,0.066084,446101,383133
1173.79,0.070051,451929,384609
1177.34,0.072609,456026,385816
1180.9,0.075195,461306,387966
1184.44,0.076627,467657,392013
1187.99,0.077438,473969,396563
1191.52,0.077367,479856,401554
1195.06,0.077379,487372,407832
1199.76,0.075941,497347,417560
1203.29,0.075304,504311,424028
1206.81,0.074683,511507,430694
1210.33,0.073738,519078,438021
1213.84,0.073078,527163,445520
1217.35,0.072145,534208,452445
1220.85,0.071345,540472,458594
1225.51,0.070143,549929,467911
1229.01,0.069582,556888,474445
1232.5,0.069037,562180,479555
1235.98,0.068309,567975,485311
1239.46,0.067489,574815,492084
1242.94,0.066453,582782,500096
1246.41,0.066053,591476,508024
1251.03,0.065792,604016,519107
1254.5,0.066005,612289,525958
1257.96,0.066173,619125,531625
1261.41,0.066812,624551,535495
1264.86,0.067671,629900,539015
1268.31,0.068185,634345,542176
1271.75,0.068778,638574,545046
1276.33,0.069100,642499,547990
1279.76,0.069174,645905,550801
1283.19,0.068556,648307,553636
1286.61,0.068286,650446,555809
1290.03,0.067922,652132,557717
1293.44,0.067260,653907,560088
1296.85,0.067117,655963,562034
1301.39,0.066975,657349,563405
1304.8,0.067046,657558,563492
1308.19,0.067417,658515,563830
1311.58,0.067400,658804,564100
1314.97,0.067721,659011,563860
1318.36,0.068035,658272,562821
1321.73,0.068464,658022,562052
1326.23,0.069452,657870,560645
1329.6,0.070330,656482,558332
1332.97,0.071420,654926,555613
1336.33,0.072604,653727,553086
1339.69,0.074245,652497,549963
1343.04,0.075600,649913,546079
1346.39,0.078384,647671,540718
1349.73,0.080412,645338,536260
1354.18,0.083395,641175,529153
1357.52,0.085456,638376,524349
1360.85,0.088164,635805,518991
1364.17,0.090572,633413,514180
1367.49,0.092826,631026,509591
1370.81,0.094649,628050,505063
1374.12,0.097177,625034,499720
1378.54,0.100961,620272,491610
1381.84,0.104218,616892,485279
1385.14,0.107960,613613,478558
1388.43,0.111944,611526,472575
1391.72,0.116684,610663,466786
1395.01,0.121614,610634,461495
1398.29,0.126696,611700,456922
1402.66,0.133960,614051,451070
1405.93,0.139525,616268,446935
1409.2,0.144836,617795,442597
1412.46,0.149687,618872,438444
1415.72,0.154511,619795,434247
1418.98,0.158181,620495,431079
1422.23,0.162043,621087,427671
1426.56,0.165898,621375,424088
1429.8,0.168859,621616,421370
1433.04,0.171509,622129,419152
1436.27,0.174090,621526,416264
1439.5,0.176192,621113,413979
1442.72,0.179167,620921,411026
1445.94,0.181632,620270,408271
1450.23,0.184842,618860,404343
1453.44,0.188203,617697,400472
1456.64,0.191008,616264,396971
1459.85,0.193541,614413,393477
1463.04,0.197115,612307,388915
1466.24,0.200183,610032,384742
1469.43,0.203819,607345,379854
1473.67,0.210196,603789,372125
1476.85,0.215913,601175,365669
1480.02,0.223168,597737,357554
1483.19,0.229247,594479,350663
1486.36,0.235266,591232,343947
1489.52,0.241133,587853,337393
1492.68,0.244105,583875,332824
1496.89,0.246823,578062,327455
1500.03,0.247225,574159,324943
1503.18,0.246962,570285,322946
1506.32,0.246648,565444,320436
1509.45,0.245104,560571,318806
1512.58,0.243273,555821,317440
1515.71,0.241068,550344,315912
1519.87,0.238332,543983,314234
1522.99,0.235129,538764,313523
1526.1,0.232195,533692,312677
1529.21,0.229551,527902,311173
1532.32,0.226756,521886,309613
1535.42,0.223706,515888,308212
1538.51,0.220658,509987,306832
1541.6,0.216529,503936,306088
1545.72,0.212721,494694,303121
1548.8,0.209367,488378,301571
1551.88,0.207066,481832,299109
1554.95,0.204540,474989,296581
1558.02,0.202509,467818,293473
1561.08,0.201245,460730,289869
1564.15,0.201272,454170,285724
1568.22,0.200326,444181,280049
1571.27,0.199628,436947,275931
1574.32,0.198102,429598,272245
1577.36,0.197433,422039,267867
1580.4,0.195124,414375,264405
1583.43,0.193973,406354,259975
1586.46,0.191697,398475,256274
1590.49,0.190076,388982,251104
1593.51,0.187210,380708,247390
1596.53,0.185138,372727,243362
1599.54,0.182805,365060,239640
1602.55,0.180866,357543,235756
1605.55,0.178573,349495,231669
1608.55,0.177043,341154,226938
1612.54,0.173611,330877,221848
1615.53,0.171345,322904,217635
1618.51,0.171279,315116,212418
1621.49,0.169695,307217,207850
1624.47,0.168302,299481,203267
1627.44,0.168082,292112,198366
1630.41,0.166913,284245,193544
1634.36,0.165944,274079,187039
1637.32,0.164197,266916,182885
1640.27,0.162494,259612,178579
1643.22,0.161288,251804,173690
1646.16,0.160613,244348,168809
1649.1,0.160022,236703,163750
1652.04,0.157714,228171,158689
1655.95,0.156739,215408,150149
1658.88,0.152652,204937,144201
1661.8,0.150096,193395,136883
1664.72,0.141605,179728,129721
1667.63,0.131239,163642,120964
1670.54,0.119078,146312,111225
1673.44,0.104920,128451,100883
1677.31,0.089640,105080,85483
1680.21,0.079453,88906,74042
1683.1,0.076636,75033,62895
1685.99,0.079726,63520,52867
1688.87,0.084449,53714,44222
1691.75,0.088005,45653,37279
1694.62,0.100260,39137,31069
1697.49,0.095831,33776,27088
1701.31,0.103100,28175,22221

File: Column 1_050570_20150331_120918.csv
Method:,Column 1,,
Host Date-Time:,31/3/15 @ 12:9:18,,
Header Version:,1,,
System Temp (C):,34.08,,
Detector Temp (C):,34.09,,
Humidity (%):,1.76,,
Lamp PD:,3819,,
Shift Vector Coefficients:,-10.5391,0.0761263,-0.000134223,,
Pixel to Wavelength Coefficients:,1775.68,-0.916766,-0.000235065,,
Serial Number:,5510004,,
Scan Config Name:,Column 1,,
Scan Config Type:,Slew,,
Section 1,,
Start wavelength (nm):,900,,
End wavelength (nm):,1700,,
Pattern Pixel Width (nm):,   7.03,,,,
Exposure (ms):,  0.635,,,,
Digital Resolution:,228,,
Num Repeats:,6,,
PGA Gain:,64,,
Total Measurement Time in sec:,  2.668,,
Wavelength (nm),Absorbance (AU),Reference Signal (unitless),Sample Signal (unitless)
901.51,0.035005,108485,100084
905.376,0.039593,121306,110736
909.237,0.042899,131909,119502
913.095,0.043397,143299,129672
916.948,0.045029,156982,141521
922.079,0.046910,179937,161514
925.923,0.048334,200504,179386
929.762,0.048368,222660,199193
933.597,0.048164,244426,218768
937.427,0.048210,263972,236237
941.254,0.047936,281845,252391
945.076,0.047029,297271,266762
950.165,0.046926,315605,283281
953.978,0.046417,328029,294778
957.786,0.046511,340470,305892
961.59,0.047198,352317,316035
965.389,0.046760,363056,325997
969.185,0.046906,373162,334959
972.976,0.047199,382632,343228
976.763,0.047981,391202,350284
981.806,0.049018,400190,357477
985.583,0.049029,406088,362736
989.355,0.049823,410162,365706
993.124,0.050119,412868,367868
996.888,0.050505,414263,368783
1000.65,0.051283,415476,369201
1004.4,0.052516,415479,368157
1009.41,0.054347,414358,365619
1013.15,0.054274,412923,364414
1016.89,0.055418,411526,362226
1020.63,0.054571,409066,360763
1024.36,0.054072,406777,359157
1028.09,0.054660,404427,356599
1031.82,0.054546,401911,354474
1036.78,0.054167,398410,351693
1040.49,0.053771,396204,350064
1044.2,0.053044,394236,348909
1047.91,0.052943,392042,347048
1051.61,0.052408,389823,345509
1055.31,0.052384,388234,344120
1059,0.051356,387599,344371
1063.92,0.050620,386688,344144
1067.61,0.049438,386598,345002
1071.29,0.049039,387377,346015
1074.96,0.048616,388536,347388
1078.63,0.048095,389855,348986
1082.3,0.047269,391215,350870
1085.96,0.046291,393215,353459
1090.84,0.045585,396270,356785
1094.49,0.045339,398760,359230
1098.14,0.044661,400987,361801
1101.79,0.044370,403477,364291
1105.43,0.044684,406116,366409
1109.06,0.043299,407701,369014
1112.7,0.044155,409859,370237
1117.53,0.044303,412494,372490
1121.15,0.044925,414909,374135
1124.77,0.045256,416559,375336
1128.38,0.046839,418532,375742
1131.99,0.048016,419956,376000
1135.6,0.050024,421946,376039
1139.2,0.051888,423881,376146
1143.99,0.054144,426786,376761
1147.58,0.055135,428617,377515
1151.17,0.056202,431169,378831
1154.75,0.057338,433579,379953
1158.33,0.059281,436264,380600
1161.91,0.061021,439132,381570
1165.48,0.063459,442389,382248
1169.04,0.066071,446101,383144
1173.79,0.069982,451929,384670
1177.34,0.071908,456026,386440
1180.9,0.074873,461306,388254
1184.44,0.076165,467657,392430
1187.99,0.077054,473969,396914
1191.52,0.077271,479856,401643
1195.06,0.077109,487372,408086
1199.76,0.076000,497347,417503
1203.29,0.074950,504311,424374
1206.81,0.074270,511507,431104
1210.33,0.073356,519078,438406
1213.84,0.072875,527163,445728
1217.35,0.072334,534208,452248
1220.85,0.070962,540472,458998
1225.51,0.070305,549929,467737
1229.01,0.069913,556888,474083
1232.5,0.068929,562180,479674
1235.98,0.068433,567975,485173
1239.46,0.067945,574815,491567
1242.94,0.066428,582782,500124
1246.41,0.065633,591476,508516
1251.03,0.065802,604016,519095
1254.5,0.065891,612289,526096
1257.96,0.065961,619125,531884
1261.41,0.066638,624551,535710
1264.86,0.067419,629900,539327
1268.31,0.068134,634345,542240
1271.75,0.068813,638574,545002
1276.33,0.068783,642499,548390
1279.76,0.069078,645905,550923
1283.19,0.068411,648307,553822
1286.61,0.068112,650446,556031
1290.03,0.067650,652132,558066
1293.44,0.066906,653907,560545
1296.85,0.067395,655963,561674
1301.39,0.066698,657349,563765
1304.8,0.066958,657558,563607
1308.19,0.066902,658515,564500
1311.58,0.067443,658804,564044
1314.97,0.067547,659011,564087
1318.36,0.068046,658272,562807
1321.73,0.068441,658022,562082
1326.23,0.069156,657870,561027
1329.6,0.069867,656482,558928
1332.97,0.071534,654926,555467
1336.33,0.072585,653727,553110
1339.69,0.073964,652497,550319
1343.04,0.075686,649913,545970
1346.39,0.077798,647671,541448
1349.73,0.079917,645338,536871
1354.18,0.083314,641175,529252
1357.52,0.085556,638376,524228
1360.85,0.088014,635805,519170
1364.17,0.090209,633413,514610
1367.49,0.092634,631026,509816
1370.81,0.095242,628050,504373
1374.12,0.097548,625034,499293
1378.54,0.100781,620272,491814
1381.84,0.104006,616892,485515
1385.14,0.107756,613613,478783
1388.43,0.112343,611526,472141
1391.72,0.116587,610663,466890
1395.01,0.121386,610634,461737
1398.29,0.126298,611700,457341
1402.66,0.133548,614051,451499
1405.93,0.139366,616268,447099
1409.2,0.144451,617795,442989
1412.46,0.149919,618872,438210
1415.72,0.154484,619795,434274
1418.98,0.158487,620495,430776
1422.23,0.161956,621087,427756
1426.56,0.165946,621375,424041
1429.8,0.169197,621616,421042
1433.04,0.171568,622129,419095
1436.27,0.173772,621526,416569
1439.5,0.176164,621113,414006
1442.72,0.178711,620921,411458
1445.94,0.180966,620270,408898
1450.23,0.184421,618860,404736
1453.44,0.187729,617697,400910
1456.64,0.190717,616264,397237
1459.85,0.193792,614413,393250
1463.04,0.196659,612307,389323
1466.24,0.199435,610032,385405
1469.43,0.204255,607345,379473
1473.67,0.209514,603789,372710
1476.85,0.215694,601175,365853
1480.02,0.222152,597737,358392
1483.19,0.228399,594479,351348
1486.36,0.235160,591232,344031
1489.52,0.240421,587853,337946
1492.68,0.243465,583875,333315
1496.89,0.246620,578062,327608
1500.03,0.247801,574159,324512
1503.18,0.247358,570285,322652
1506.32,0.246005,565444,320911
1509.45,0.245426,560571,318570
1512.58,0.243373,555821,317367
1515.71,0.240896,550344,316037
1519.87,0.237920,543983,314532
1522.99,0.234933,538764,313665
1526.1,0.232680,533692,312328
1529.21,0.229779,527902,311010
1532.32,0.226758,521886,309612
1535.42,0.223055,515888,308674
1538.51,0.220060,509987,307255
1541.6,0.216741,503936,305939
1545.72,0.211903,494694,303692
1548.8,0.209210,488378,301680
1551.88,0.206769,481832,299314
1554.95,0.204220,474989,296800
1558.02,0.202860,467818,293236
1561.08,0.200608,460730,290294
1564.15,0.200309,454170,286358
1568.22,0.199086,444181,280850
1571.27,0.199213,436947,276195
1574.32,0.198522,429598,271982
1577.36,0.196719,422039,268308
1580.4,0.195446,414375,264209
1583.43,0.193484,406354,260268
1586.46,0.192066,398475,256056
1590.49,0.189659,388982,251345
1593.51,0.187389,380708,247288
1596.53,0.185309,372727,243266
1599.54,0.182537,365060,239788
1602.55,0.180547,357543,235929
1605.55,0.178009,349495,231970
1608.55,0.176256,341154,227350
1612.54,0.173267,330877,222024
1615.53,0.171257,322904,217679
1618.51,0.170352,315116,212872
1621.49,0.169601,307217,207895
1624.47,0.168172,299481,203328
1627.44,0.167247,292112,198748
1630.41,0.166270,284245,193831
1634.36,0.164363,274079,187721
1637.32,0.163196,266916,183307
1640.27,0.162521,259612,178568
1643.22,0.161215,251804,173719
1646.16,0.161172,244348,168592
1649.1,0.159378,236703,163993
1652.04,0.158988,228171,158224
1655.95,0.155408,215408,150610
1658.88,0.152038,204937,144405
1661.8,0.148361,193395,137431
1664.72,0.141261,179728,129824
1667.63,0.131163,163642,120985
1670.54,0.117515,146312,111626
1673.44,0.106472,128451,100523
1677.31,0.088722,105080,85664
1680.21,0.080340,88906,73891
1683.1,0.072349,75033,63519
1685.99,0.076493,63520,53262
1688.87,0.084223,53714,44245
1691.75,0.088716,45653,37218
1694.62,0.095050,39137,31444
1697.49,0.097904,33776,26959
1701.31,0.106140,28175,22066

File: Column 1_050570_20150331_120921.csv
Method:,Column 1,,
Host Date-Time:,31/3/15 @ 12:9:21,,
Header Version:,1,,
System Temp (C):,34.06,,
Detector Temp (C):,34.1,,
Humidity (%):,1.76,,
Lamp PD:,3818,,
Shift Vector Coefficients:,-10.5391,0.0761263,-0.000134223,,
Pixel to Wavelength Coefficients:,1775.68,-0.916766,-0.000235065,,
Serial Number:,5510004,,
Scan Config Name:,Column 1,,
Scan Config Type:,Slew,,
Section 1,,
Start wavelength (nm):,900,,
End wavelength (nm):,1700,,
Pattern Pixel Width (nm):,   7.03,,,,
Exposure (ms):,  0.635,,,,
Digital Resolution:,228,,
Num Repeats:,6,,
PGA Gain:,64,,
Total Measurement Time in sec:,  2.669,,
Wavelength (nm),Absorbance (AU),Reference Signal (unitless),Sample Signal (unitless)
901.51,0.033766,108485,100370
905.376,0.041126,121306,110346
909.237,0.042914,131909,119498
913.095,0.043957,143299,129505
916.948,0.045112,156982,141494
922.079,0.046534,179937,161654
925.923,0.048502,200504,179317
929.762,0.048730,222660,199027
933.597,0.049978,244426,217856
937.427,0.048800,263972,235916
941.254,0.047623,281845,252573
945.076,0.047003,297271,266778
950.165,0.046841,315605,283337
953.978,0.046087,328029,295002
957.786,0.046347,340470,306007
961.59,0.046963,352317,316206
965.389,0.046939,363056,325863
969.185,0.046389,373162,335358
972.976,0.047748,382632,342794
976.763,0.047884,391202,350362
981.806,0.048298,400190,358070
985.583,0.049541,406088,362309
989.355,0.049787,410162,365737
993.124,0.050334,412868,367686
996.888,0.050729,414263,368593
1000.65,0.051706,415476,368842
1004.4,0.052373,415479,368278
1009.41,0.054142,414358,365792
1013.15,0.055059,412923,363756
1016.89,0.054935,411526,362629
1020.63,0.054757,409066,360609
1024.36,0.054457,406777,358839
1028.09,0.054429,404427,356789
1031.82,0.054234,401911,354728
1036.78,0.053960,398410,351860
1040.49,0.053194,396204,350530
1044.2,0.053353,394236,348661
1047.91,0.053178,392042,346860
1051.61,0.052254,389823,345632
1055.31,0.052083,388234,344358
1059,0.051245,387599,344459
1063.92,0.050137,386688,344527
1067.61,0.049364,386598,345061
1071.29,0.048665,387377,346313
1074.96,0.048716,388536,347308
1078.63,0.048342,389855,348788
1082.3,0.046773,391215,351271
1085.96,0.046595,393215,353212
1090.84,0.045704,396270,356687
1094.49,0.044725,398760,359738
1098.14,0.044945,400987,361564
1101.79,0.044432,403477,364239
1105.43,0.044626,406116,366458
1109.06,0.043992,407701,368426
1112.7,0.043897,409859,370457
1117.53,0.044061,412494,372698
1121.15,0.045253,414909,373852
1124.77,0.045351,416559,375254
1128.38,0.047268,418532,375371
1131.99,0.048104,419956,375924
1135.6,0.049993,421946,376066
1139.2,0.051356,423881,376607
1143.99,0.054105,426786,376795
1147.58,0.055194,428617,377464
1151.17,0.056044,431169,378969
1154.75,0.057894,433579,379467
1158.33,0.059023,436264,380826
1161.91,0.060821,439132,381746
1165.48,0.063516,442389,382198
1169.04,0.066012,446101,383196
1173.79,0.070135,451929,384534
1177.34,0.072552,456026,385867
1180.9,0.074714,461306,388396
1184.44,0.076792,467657,391864
1187.99,0.077356,473969,396638
1191.52,0.077135,479856,401769
1195.06,0.076617,487372,408548
1199.76,0.076081,497347,417425
1203.29,0.074743,504311,424576
1206.81,0.074236,511507,431137
1210.33,0.073183,519078,438581
1213.84,0.072798,527163,445807
1217.35,0.072137,534208,452453
1220.85,0.071062,540472,458893
1225.51,0.070516,549929,467510
1229.01,0.069844,556888,474159
1232.5,0.069226,562180,479346
1235.98,0.068852,567975,484705
1239.46,0.067657,574815,491894
1242.94,0.066596,582782,499931
1246.41,0.065902,591476,508201
1251.03,0.065715,604016,519199
1254.5,0.066003,612289,525961
1257.96,0.066139,619125,531667
1261.41,0.067010,624551,535252
1264.86,0.067546,629900,539170
1268.31,0.068204,634345,542152
1271.75,0.068651,638574,545206
1276.33,0.068834,642499,548325
1279.76,0.068677,645905,551431
1283.19,0.068298,648307,553966
1286.61,0.068165,650446,555964
1290.03,0.067729,652132,557965
1293.44,0.067249,653907,560102
1296.85,0.067212,655963,561911
1301.39,0.066612,657349,563876
1304.8,0.066686,657558,563960
1308.19,0.067064,658515,564289
1311.58,0.067047,658804,564559
1314.97,0.067590,659011,564031
1318.36,0.068176,658272,562639
1321.73,0.068431,658022,562095
1326.23,0.069193,657870,560979
1329.6,0.069917,656482,558863
1332.97,0.070957,654926,556205
1336.33,0.072327,653727,553439
1339.69,0.074100,652497,550147
1343.04,0.075501,649913,546203
1346.39,0.078144,647671,541017
1349.73,0.080030,645338,536732
1354.18,0.083070,641175,529550
1357.52,0.085589,638376,524188
1360.85,0.087821,635805,519401
1364.17,0.090212,633413,514606
1367.49,0.092389,631026,510103
1370.81,0.094735,628050,504963
1374.12,0.097279,625034,499602
1378.54,0.100589,620272,492032
1381.84,0.103779,616892,485769
1385.14,0.107365,613613,479214
1388.43,0.111922,611526,472599
1391.72,0.116830,610663,466629
1395.01,0.121199,610634,461936
1398.29,0.126523,611700,457105
1402.66,0.133602,614051,451443
1405.93,0.139072,616268,447402
1409.2,0.144566,617795,442872
1412.46,0.149391,618872,438743
1415.72,0.153753,619795,435006
1418.98,0.158178,620495,431082
1422.23,0.161314,621087,428389
1426.56,0.165594,621375,424385
1429.8,0.168357,621616,421857
1433.04,0.171520,622129,419141
1436.27,0.174047,621526,416306
1439.5,0.176318,621113,413859
1442.72,0.178402,620921,411751
1445.94,0.180982,620270,408883
1450.23,0.184674,618860,404500
1453.44,0.187460,617697,401158
1456.64,0.190912,616264,397059
1459.85,0.193714,614413,393320
1463.04,0.196591,612307,389384
1466.24,0.200083,610032,384831
1469.43,0.203353,607345,380262
1473.67,0.209720,603789,372533
1476.85,0.216055,601175,365549
1480.02,0.221154,597737,359216
1483.19,0.228883,594479,350957
1486.36,0.235099,591232,344080
1489.52,0.240007,587853,338269
1492.68,0.243987,583875,332915
1496.89,0.246843,578062,327440
1500.03,0.247155,574159,324995
1503.18,0.247480,570285,322561
1506.32,0.246530,565444,320523
1509.45,0.244062,560571,319572
1512.58,0.243451,555821,317310
1515.71,0.241053,550344,315923
1519.87,0.238241,543983,314300
1522.99,0.235088,538764,313553
1526.1,0.232014,533692,312807
1529.21,0.229684,527902,311078
1532.32,0.225778,521886,310311
1535.42,0.223245,515888,308539
1538.51,0.220009,509987,307291
1541.6,0.216550,503936,306073
1545.72,0.212284,494694,303426
1548.8,0.209070,488378,301777
1551.88,0.206936,481832,299199
1554.95,0.203703,474989,297153
1558.02,0.202571,467818,293431
1561.08,0.201141,460730,289938
1564.15,0.200884,454170,285979
1568.22,0.199378,444181,280661
1571.27,0.198889,436947,276401
1574.32,0.197881,429598,272384
1577.36,0.196947,422039,268167
1580.4,0.195441,414375,264212
1583.43,0.193626,406354,260183
1586.46,0.191795,398475,256216
1590.49,0.189127,388982,251653
1593.51,0.187610,380708,247162
1596.53,0.185022,372727,243427
1599.54,0.183280,365060,239378
1602.55,0.180289,357543,236069
1605.55,0.179205,349495,231332
1608.55,0.176833,341154,227048
1612.54,0.173848,330877,221727
1615.53,0.171638,322904,217488
1618.51,0.171242,315116,212436
1621.49,0.169033,307217,208167
1624.47,0.167700,299481,203549
1627.44,0.167752,292112,198517
1630.41,0.166037,284245,193935
1634.36,0.164930,274079,187476
1637.32,0.163452,266916,183199
1640.27,0.162305,259612,178657
1643.22,0.162723,251804,173117
1646.16,0.161265,244348,168556
1649.1,0.160232,236703,163671
1652.04,0.159669,228171,157976
1655.95,0.155226,215408,150673
1658.88,0.151326,204937,144642
1661.8,0.147149,193395,137815
1664.72,0.142490,179728,129457
1667.63,0.130769,163642,121095
1670.54,0.116842,146312,111799
1673.44,0.103094,128451,101308
1677.31,0.088200,105080,85767
1680.21,0.077586,88906,74361
1683.1,0.076063,75033,62978
1685.99,0.077963,63520,53082
1688.87,0.080003,53714,44677
1691.75,0.085334,45653,37509
1694.62,0.086841,39137,32044
1697.49,0.098340,33776,26932
1701.31,0.099480,28175,22407