Folder: textile_sorting_NIRSCAN_/samples/wool/wool-000811 (part 71)

File: Column 1_050569_20150331_120852.csv
Method:,Column 1,,
Host Date-Time:,31/3/15 @ 12:8:52,,
Header Version:,1,,
System Temp (C):,34.06,,
Detector Temp (C):,34.02,,
Humidity (%):,1.76,,
Lamp PD:,3818,,
Shift Vector Coefficients:,-10.5391,0.0761263,-0.000134223,,
Pixel to Wavelength Coefficients:,1775.68,-0.916766,-0.000235065,,
Serial Number:,5510004,,
Scan Config Name:,Column 1,,
Scan Config Type:,Slew,,
Section 1,,
Start wavelength (nm):,900,,
End wavelength (nm):,1700,,
Pattern Pixel Width (nm):,   7.03,,,,
Exposure (ms):,  0.635,,,,
Digital Resolution:,228,,
Num Repeats:,6,,
PGA Gain:,64,,
Total Measurement Time in sec:,  2.679,,
Wavelength (nm),Absorbance (AU),Reference Signal (unitless),Sample Signal (unitless)
901.51,0.033217,108485,100497
905.376,0.041807,121306,110173
909.237,0.042649,131909,119571
913.095,0.043417,143299,129666
916.948,0.044992,156982,141533
922.079,0.046019,179937,161846
925.923,0.049236,200504,179014
929.762,0.049543,222660,198655
933.597,0.049553,244426,218069
937.427,0.047773,263972,236475
941.254,0.048207,281845,252234
945.076,0.047240,297271,266632
950.165,0.047183,315605,283114
953.978,0.045975,328029,295078
957.786,0.046565,340470,305854
961.59,0.047552,352317,315778
965.389,0.046953,363056,325852
969.185,0.047664,373162,334375
972.976,0.047215,382632,343215
976.763,0.047879,391202,350366
981.806,0.047970,400190,358341
985.583,0.049401,406088,362426
989.355,0.049844,410162,365689
993.124,0.050368,412868,367657
996.888,0.051051,414263,368320
1000.65,0.051568,415476,368959
1004.4,0.053065,415479,367692
1009.41,0.054744,414358,365285
1013.15,0.055092,412923,363728
1016.89,0.055111,411526,362482
1020.63,0.055063,409066,360355
1024.36,0.054905,406777,358469
1028.09,0.054538,404427,356699
1031.82,0.055284,401911,353872
1036.78,0.054058,398410,351781
1040.49,0.053986,396204,349891
1044.2,0.053588,394236,348472
1047.91,0.053304,392042,346760
1051.61,0.052344,389823,345560
1055.31,0.052080,388234,344361
1059,0.051708,387599,344092
1063.92,0.051009,386688,343836
1067.61,0.049794,386598,344719
1071.29,0.049310,387377,345799
1074.96,0.049079,388536,347018
1078.63,0.048451,389855,348700
1082.3,0.047266,391215,350873
1085.96,0.046918,393215,352949
1090.84,0.046300,396270,356198
1094.49,0.045674,398760,358953
1098.14,0.045169,400987,361378
1101.79,0.044921,403477,363829
1105.43,0.045085,406116,366071
1109.06,0.044159,407701,368284
1112.7,0.044252,409859,370154
1117.53,0.044599,412494,372236
1121.15,0.045696,414909,373471
1124.77,0.045617,416559,375024
1128.38,0.047164,418532,375461
1131.99,0.048183,419956,375855
1135.6,0.050044,421946,376022
1139.2,0.052018,423881,376033
1143.99,0.054596,426786,376369
1147.58,0.055472,428617,377222
1151.17,0.056537,431169,378539
1154.75,0.057641,433579,379688
1158.33,0.058991,436264,380854
1161.91,0.061627,439132,381038
1165.48,0.064417,442389,381406
1169.04,0.066448,446101,382812
1173.79,0.070146,451929,384525
1177.34,0.072426,456026,385979
1180.9,0.075043,461306,388102
1184.44,0.077319,467657,391389
1187.99,0.077671,473969,396350
1191.52,0.077763,479856,401188
1195.06,0.077482,487372,407736
1199.76,0.075996,497347,417507
1203.29,0.074848,504311,424473
1206.81,0.074873,511507,430505
1210.33,0.074003,519078,437753
1213.84,0.073344,527163,445247
1217.35,0.072252,534208,452333
1220.85,0.071226,540472,458719
1225.51,0.070402,549929,467632
1229.01,0.070261,556888,473704
1232.5,0.069555,562180,478983
1235.98,0.068749,567975,484820
1239.46,0.067635,574815,491918
1242.94,0.066894,582782,499588
1246.41,0.066181,591476,507874
1251.03,0.065679,604016,519241
1254.5,0.066103,612289,525840
1257.96,0.066526,619125,531193
1261.41,0.067629,624551,534489
1264.86,0.067722,629900,538951
1268.31,0.068096,634345,542288
1271.75,0.069257,638574,544445
1276.33,0.069091,642499,548001
1279.76,0.069411,645905,550500
1283.19,0.068579,648307,553607
1286.61,0.068569,650446,555446
1290.03,0.067750,652132,557938
1293.44,0.067556,653907,559706
1296.85,0.067305,655963,561790
1301.39,0.067242,657349,563059
1304.8,0.067116,657558,563401
1308.19,0.067141,658515,564189
1311.58,0.067459,658804,564023
1314.97,0.068055,659011,563427
1318.36,0.068302,658272,562475
1321.73,0.068681,658022,561771
1326.23,0.069620,657870,560428
1329.6,0.070720,656482,557831
1332.97,0.071498,654926,555513
1336.33,0.072674,653727,552997
1339.69,0.074381,652497,549791
1343.04,0.076383,649913,545095
1346.39,0.078503,647671,540570
1349.73,0.080740,645338,535855
1354.18,0.083565,641175,528946
1357.52,0.085641,638376,524126
1360.85,0.088296,635805,518834
1364.17,0.090273,633413,514534
1367.49,0.092776,631026,509649
1370.81,0.095315,628050,504289
1374.12,0.097640,625034,499187
1378.54,0.100931,620272,491645
1381.84,0.104952,616892,484459
1385.14,0.107924,613613,478598
1388.43,0.112501,611526,471969
1391.72,0.116731,610663,466735
1395.01,0.121743,610634,461358
1398.29,0.127121,611700,456475
1402.66,0.134175,614051,450847
1405.93,0.139643,616268,446814
1409.2,0.145068,617795,442361
1412.46,0.150304,618872,437821
1415.72,0.154503,619795,434255
1418.98,0.159219,620495,430050
1422.23,0.162606,621087,427117
1426.56,0.166549,621375,423453
1429.8,0.169353,621616,420891
1433.04,0.172041,622129,418639
1436.27,0.174470,621526,415900
1439.5,0.176637,621113,413555
1442.72,0.179167,620921,411026
1445.94,0.181760,620270,408151
1450.23,0.185077,618860,404125
1453.44,0.188192,617697,400482
1456.64,0.191343,616264,396665
1459.85,0.194377,614413,392720
1463.04,0.197177,612307,388859
1466.24,0.200642,610032,384336
1469.43,0.204395,607345,379350
1473.67,0.210738,603789,371661
1476.85,0.215984,601175,365609
1480.02,0.222667,597737,357967
1483.19,0.229508,594479,350452
1486.36,0.235169,591232,344024
1489.52,0.240316,587853,338028
1492.68,0.244736,583875,332341
1496.89,0.246452,578062,327735
1500.03,0.247401,574159,324811
1503.18,0.247420,570285,322606
1506.32,0.246785,565444,320335
1509.45,0.245322,560571,318646
1512.58,0.243751,555821,317091
1515.71,0.242043,550344,315204
1519.87,0.238549,543983,314077
1522.99,0.236075,538764,312841
1526.1,0.233339,533692,311854
1529.21,0.229961,527902,310880
1532.32,0.226648,521886,309690
1535.42,0.223743,515888,308186
1538.51,0.220777,509987,306748
1541.6,0.217501,503936,305404
1545.72,0.212559,494694,303234
1548.8,0.209197,488378,301689
1551.88,0.206602,481832,299429
1554.95,0.205077,474989,296215
1558.02,0.203202,467818,293005
1561.08,0.202262,460730,289191
1564.15,0.201450,454170,285607
1568.22,0.199692,444181,280458
1571.27,0.199860,436947,275784
1574.32,0.198220,429598,272171
1577.36,0.196518,422039,268432
1580.4,0.196328,414375,263673
1583.43,0.194397,406354,259721
1586.46,0.192686,398475,255691
1590.49,0.189967,388982,251167
1593.51,0.187343,380708,247314
1596.53,0.185781,372727,243002
1599.54,0.183440,365060,239290
1602.55,0.181594,357543,235361
1605.55,0.179125,349495,231375
1608.55,0.176521,341154,227211
1612.54,0.175945,330877,220659
1615.53,0.172908,322904,216853
1618.51,0.170607,315116,212747
1621.49,0.170015,307217,207697
1624.47,0.168366,299481,203237
1627.44,0.167914,292112,198443
1630.41,0.166344,284245,193798
1634.36,0.165097,274079,187404
1637.32,0.164273,266916,182853
1640.27,0.163476,259612,178176
1643.22,0.163449,251804,172828
1646.16,0.161383,244348,168510
1649.1,0.161135,236703,163331
1652.04,0.157982,228171,158591
1655.95,0.156066,215408,150382
1658.88,0.153382,204937,143959
1661.8,0.148730,193395,137314
1664.72,0.142145,179728,129560
1667.63,0.132479,163642,120619
1670.54,0.120693,146312,110812
1673.44,0.105066,128451,100849
1677.31,0.087992,105080,85808
1680.21,0.080387,88906,73883
1683.1,0.078532,75033,62621
1685.99,0.082040,63520,52586
1688.87,0.083743,53714,44294
1691.75,0.096606,45653,36548
1694.62,0.101240,39137,30999
1697.49,0.101853,33776,26715
1701.31,0.107204,28175,22012

File: Column 1_050569_20150331_120855.csv
Method:,Column 1,,
Host Date-Time:,31/3/15 @ 12:8:55,,
Header Version:,1,,
System Temp (C):,34.04,,
Detector Temp (C):,34.05,,
Humidity (%):,1.76,,
Lamp PD:,3818,,
Shift Vector Coefficients:,-10.5391,0.0761263,-0.000134223,,
Pixel to Wavelength Coefficients:,1775.68,-0.916766,-0.000235065,,
Serial Number:,5510004,,
Scan Config Name:,Column 1,,
Scan Config Type:,Slew,,
Section 1,,
Start wavelength (nm):,900,,
End wavelength (nm):,1700,,
Pattern Pixel Width (nm):,   7.03,,,,
Exposure (ms):,  0.635,,,,
Digital Resolution:,228,,
Num Repeats:,6,,
PGA Gain:,64,,
Total Measurement Time in sec:,  2.684,,
Wavelength (nm),Absorbance (AU),Reference Signal (unitless),Sample Signal (unitless)
901.51,0.035926,108485,99872
905.376,0.040890,121306,110406
909.237,0.043649,131909,119296
913.095,0.043541,143299,129629
916.948,0.045250,156982,141449
922.079,0.046556,179937,161646
925.923,0.048288,200504,179405
929.762,0.048460,222660,199151
933.597,0.050016,244426,217837
937.427,0.048333,263972,236170
941.254,0.048384,281845,252131
945.076,0.047483,297271,266483
950.165,0.047310,315605,283031
953.978,0.045783,328029,295209
957.786,0.046599,340470,305830
961.59,0.047317,352317,315949
965.389,0.047263,363056,325620
969.185,0.047115,373162,334798
972.976,0.048310,382632,342351
976.763,0.048171,391202,350131
981.806,0.048751,400190,357697
985.583,0.048921,406088,362827
989.355,0.049813,410162,365715
993.124,0.050528,412868,367522
996.888,0.051027,414263,368340
1000.65,0.051764,415476,368792
1004.4,0.052437,415479,368224
1009.41,0.054146,414358,365788
1013.15,0.054751,412923,364014
1016.89,0.055888,411526,361834
1020.63,0.055302,409066,360157
1024.36,0.054715,406777,358626
1028.09,0.054359,404427,356846
1031.82,0.054637,401911,354399
1036.78,0.054376,398410,351523
1040.49,0.053853,396204,349998
1044.2,0.053541,394236,348510
1047.91,0.053463,392042,346633
1051.61,0.052461,389823,345467
1055.31,0.052104,388234,344342
1059,0.051699,387599,344099
1063.92,0.050786,386688,344013
1067.61,0.049628,386598,344851
1071.29,0.049333,387377,345781
1074.96,0.048501,388536,347480
1078.63,0.048196,389855,348905
1082.3,0.047462,391215,350714
1085.96,0.046933,393215,352937
1090.84,0.045767,396270,356635
1094.49,0.045854,398760,358804
1098.14,0.045511,400987,361093
1101.79,0.045046,403477,363725
1105.43,0.044766,406116,366340
1109.06,0.043783,407701,368603
1112.7,0.044805,409859,369683
1117.53,0.044592,412494,372242
1121.15,0.044990,414909,374079
1124.77,0.046042,416559,374658
1128.38,0.047078,418532,375535
1131.99,0.048536,419956,375550
1135.6,0.049907,421946,376140
1139.2,0.052293,423881,375795
1143.99,0.054113,426786,376788
1147.58,0.054998,428617,377634
1151.17,0.056927,431169,378199
1154.75,0.057757,433579,379587
1158.33,0.059371,436264,380521
1161.91,0.061562,439132,381095
1165.48,0.064227,442389,381573
1169.04,0.066484,446101,382780
1173.79,0.070036,451929,384622
1177.34,0.072729,456026,385710
1180.9,0.075237,461306,387929
1184.44,0.077058,467657,391624
1187.99,0.077967,473969,396080
1191.52,0.077303,479856,401613
1195.06,0.077021,487372,408169
1199.76,0.076417,497347,417102
1203.29,0.075054,504311,424272
1206.81,0.074144,511507,431229
1210.33,0.073532,519078,438228
1213.84,0.073151,527163,445445
1217.35,0.072448,534208,452129
1220.85,0.071639,540472,458283
1225.51,0.070523,549929,467502
1229.01,0.070164,556888,473810
1232.5,0.069214,562180,479360
1235.98,0.069100,567975,484428
1239.46,0.068448,574815,490998
1242.94,0.066324,582782,500244
1246.41,0.066002,591476,508084
1251.03,0.065938,604016,518932
1254.5,0.066186,612289,525739
1257.96,0.066490,619125,531237
1261.41,0.067057,624551,535194
1264.86,0.067620,629900,539078
1268.31,0.068088,634345,542298
1271.75,0.069005,638574,544761
1276.33,0.069719,642499,547209
1279.76,0.069463,645905,550434
1283.19,0.068964,648307,553117
1286.61,0.068558,650446,555461
1290.03,0.068061,652132,557538
1293.44,0.067513,653907,559762
1296.85,0.067516,655963,561518
1301.39,0.067113,657349,563227
1304.8,0.067046,657558,563493
1308.19,0.066856,658515,564559
1311.58,0.067776,658804,563612
1314.97,0.068010,659011,563485
1318.36,0.068301,658272,562476
1321.73,0.068537,658022,561957
1326.23,0.069571,657870,560491
1329.6,0.070663,656482,557905
1332.97,0.071711,654926,555240
1336.33,0.072835,653727,552792
1339.69,0.074232,652497,549980
1343.04,0.076302,649913,545197
1346.39,0.078372,647671,540732
1349.73,0.080691,645338,535915
1354.18,0.083490,641175,529038
1357.52,0.085802,638376,523931
1360.85,0.087948,635805,519249
1364.17,0.090502,633413,514263
1367.49,0.092705,631026,509733
1370.81,0.095357,628050,504240
1374.12,0.097532,625034,499312
1378.54,0.100835,620272,491753
1381.84,0.104400,616892,485075
1385.14,0.108435,613613,478035
1388.43,0.112516,611526,471953
1391.72,0.116929,610663,466522
1395.01,0.121885,610634,461207
1398.29,0.127175,611700,456419
1402.66,0.134344,614051,450672
1405.93,0.140154,616268,446288
1409.2,0.144742,617795,442693
1412.46,0.149826,618872,438303
1415.72,0.154423,619795,434335
1418.98,0.158797,620495,430468
1422.23,0.162522,621087,427199
1426.56,0.166477,621375,423523
1429.8,0.169597,621616,420654
1433.04,0.172126,622129,418557
1436.27,0.174530,621526,415843
1439.5,0.176581,621113,413609
1442.72,0.178538,620921,411622
1445.94,0.181346,620270,408540
1450.23,0.185404,618860,403821
1453.44,0.188263,617697,400417
1456.64,0.191433,616264,396583
1459.85,0.194173,614413,392905
1463.04,0.197423,612307,388639
1466.24,0.200908,610032,384100
1469.43,0.204324,607345,379412
1473.67,0.210010,603789,372285
1476.85,0.216262,601175,365375
1480.02,0.222296,597737,358273
1483.19,0.229735,594479,350269
1486.36,0.235141,591232,344046
1489.52,0.241385,587853,337197
1492.68,0.244570,583875,332468
1496.89,0.247143,578062,327214
1500.03,0.247387,574159,324822
1503.18,0.247735,570285,322372
1506.32,0.247169,565444,320052
1509.45,0.245175,560571,318754
1512.58,0.244432,555821,316594
1515.71,0.241737,550344,315426
1519.87,0.238804,543983,313893
1522.99,0.235010,538764,313609
1526.1,0.232760,533692,312270
1529.21,0.229794,527902,310999
1532.32,0.227029,521886,309419
1535.42,0.223165,515888,308596
1538.51,0.220080,509987,307241
1541.6,0.216733,503936,305944
1545.72,0.213122,494694,302841
1548.8,0.210178,488378,301008
1551.88,0.207258,481832,298977
1554.95,0.204839,474989,296377
1558.02,0.203313,467818,292930
1561.08,0.201810,460730,289492
1564.15,0.201821,454170,285363
1568.22,0.199861,444181,280349
1571.27,0.198944,436947,276366
1574.32,0.198877,429598,271760
1577.36,0.197075,422039,268088
1580.4,0.195592,414375,264120
1583.43,0.194178,406354,259852
1586.46,0.191995,398475,256098
1590.49,0.190017,388982,251138
1593.51,0.187479,380708,247237
1596.53,0.185463,372727,243180
1599.54,0.183995,365060,238984
1602.55,0.181699,357543,235304
1605.55,0.178492,349495,231712
1608.55,0.176800,341154,227065
1612.54,0.173815,330877,221744
1615.53,0.172222,322904,217196
1618.51,0.170648,315116,212727
1621.49,0.170597,307217,207419
1624.47,0.168803,299481,203033
1627.44,0.167925,292112,198438
1630.41,0.166353,284245,193794
1634.36,0.165389,274079,187278
1637.32,0.164936,266916,182574
1640.27,0.163468,259612,178179
1643.22,0.161881,251804,173453
1646.16,0.161231,244348,168569
1649.1,0.160322,236703,163637
1652.04,0.159480,228171,158045
1655.95,0.156933,215408,150082
1658.88,0.153548,204937,143904
1661.8,0.149329,193395,137125
1664.72,0.145068,179728,128691
1667.63,0.131659,163642,120847
1670.54,0.118789,146312,111299
1673.44,0.106265,128451,100571
1677.31,0.089574,105080,85496
1680.21,0.080340,88906,73891
1683.1,0.077964,75033,62703
1685.99,0.081273,63520,52679
1688.87,0.079761,53714,44702
1691.75,0.092031,45653,36935
1694.62,0.094429,39137,31489
1697.49,0.100263,33776,26813
1701.31,0.111906,28175,21775

File: Column 1_050569_20150331_120858.csv
Method:,Column 1,,
Host Date-Time:,31/3/15 @ 12:8:58,,
Header Version:,1,,
System Temp (C):,34.04,,
Detector Temp (C):,34.07,,
Humidity (%):,1.76,,
Lamp PD:,3818,,
Shift Vector Coefficients:,-10.5391,0.0761263,-0.000134223,,
Pixel to Wavelength Coefficients:,1775.68,-0.916766,-0.000235065,,
Serial Number:,5510004,,
Scan Config Name:,Column 1,,
Scan Config Type:,Slew,,
Section 1,,
Start wavelength (nm):,900,,
End wavelength (nm):,1700,,
Pattern Pixel Width (nm):,   7.03,,,,
Exposure (ms):,  0.635,,,,
Digital Resolution:,228,,
Num Repeats:,6,,
PGA Gain:,64,,
Total Measurement Time in sec:,  2.724,,
Wavelength (nm),Absorbance (AU),Reference Signal (unitless),Sample Signal (unitless)
901.51,0.034762,108485,100140
905.376,0.041401,121306,110276
909.237,0.044188,131909,119148
913.095,0.043022,143299,129784
916.948,0.046055,156982,141187
922.079,0.047085,179937,161449
925.923,0.047643,200504,179672
929.762,0.048372,222660,199191
933.597,0.049197,244426,218248
937.427,0.048074,263972,236311
941.254,0.048136,281845,252275
945.076,0.047907,297271,266223
950.165,0.047184,315605,283113
953.978,0.046525,328029,294705
957.786,0.046818,340470,305676
961.59,0.046653,352317,316432
965.389,0.047023,363056,325800
969.185,0.047081,373162,334824
972.976,0.046985,382632,343397
976.763,0.048635,391202,349757
981.806,0.048417,400190,357972
985.583,0.049730,406088,362151
989.355,0.049820,410162,365709
993.124,0.049893,412868,368060
996.888,0.050698,414263,368619
1000.65,0.051596,415476,368935
1004.4,0.052542,415479,368135
1009.41,0.054460,414358,365524
1013.15,0.054400,412923,364308
1016.89,0.055120,411526,362474
1020.63,0.054471,409066,360846
1024.36,0.054981,406777,358406
1028.09,0.054391,404427,356820
1031.82,0.054373,401911,354615
1036.78,0.053874,398410,351930
1040.49,0.053982,396204,349894
1044.2,0.053222,394236,348766
1047.91,0.052793,392042,347168
1051.61,0.051720,389823,346057
1055.31,0.051896,388234,344507
1059,0.051520,387599,344241
1063.92,0.050303,386688,344396
1067.61,0.049861,386598,344666
1071.29,0.049169,387377,345911
1074.96,0.048670,388536,347345
1078.63,0.047963,389855,349092
1082.3,0.046970,391215,351112
1085.96,0.046661,393215,353158
1090.84,0.045407,396270,356931
1094.49,0.044679,398760,359776
1098.14,0.045139,400987,361403
1101.79,0.045078,403477,363698
1105.43,0.044744,406116,366358
1109.06,0.044437,407701,368048
1112.7,0.044192,409859,370205
1117.53,0.044487,412494,372332
1121.15,0.044860,414909,374191
1124.77,0.045556,416559,375077
1128.38,0.046777,418532,375796
1131.99,0.048011,419956,376004
1135.6,0.049898,421946,376148
1139.2,0.051695,423881,376313
1143.99,0.054692,426786,376286
1147.58,0.055493,428617,377204
1151.17,0.056024,431169,378986
1154.75,0.057638,433579,379691
1158.33,0.058978,436264,380865
1161.91,0.061702,439132,380972
1165.48,0.063585,442389,382137
1169.04,0.066223,446101,383010
1173.79,0.070339,451929,384354
1177.34,0.072706,456026,385730
1180.9,0.074637,461306,388465
1184.44,0.076539,467657,392092
1187.99,0.077082,473969,396888
1191.52,0.077588,479856,401350
1195.06,0.077357,487372,407853
1199.76,0.075775,497347,417719
1203.29,0.075360,504311,423973
1206.81,0.075983,511507,429406
1210.33,0.073298,519078,438465
1213.84,0.073245,527163,445348
1217.35,0.071675,534208,452935
1220.85,0.071018,540472,458939
1225.51,0.070633,549929,467384
1229.01,0.069915,556888,474081
1232.5,0.069387,562180,479169
1235.98,0.068605,567975,484980
1239.46,0.067745,574815,491794
1242.94,0.066514,582782,500025
1246.41,0.066114,591476,507952
1251.03,0.065685,604016,519234
1254.5,0.065792,612289,526217
1257.96,0.066552,619125,531161
1261.41,0.067111,624551,535127
1264.86,0.067442,629900,539299
1268.31,0.068121,634345,542256
1271.75,0.069037,638574,544721
1276.33,0.069426,642499,547578
1279.76,0.069124,645905,550864
1283.19,0.068583,648307,553602
1286.61,0.068195,650446,555925
1290.03,0.067851,652132,557808
1293.44,0.067310,653907,560023
1296.85,0.067499,655963,561539
1301.39,0.067221,657349,563087
1304.8,0.066909,657558,563670
1308.19,0.067280,658515,564008
1311.58,0.066948,658804,564688
1314.97,0.067745,659011,563829
1318.36,0.068274,658272,562511
1321.73,0.068843,658022,561562
1326.23,0.069754,657870,560255
1329.6,0.070218,656482,558476
1332.97,0.071439,654926,555589
1336.33,0.072588,653727,553106
1339.69,0.073973,652497,550307
1343.04,0.075811,649913,545813
1346.39,0.078102,647671,541069
1349.73,0.080404,645338,536270
1354.18,0.083255,641175,529324
1357.52,0.085941,638376,523764
1360.85,0.088112,635805,519053
1364.17,0.089919,633413,514954
1367.49,0.092472,631026,510006
1370.81,0.094962,628050,504699
1374.12,0.097382,625034,499484
1378.54,0.100510,620272,492121
1381.84,0.103945,616892,485584
1385.14,0.108278,613613,478208
1388.43,0.111980,611526,472536
1391.72,0.117127,610663,466310
1395.01,0.121890,610634,461202
1398.29,0.126868,611700,456741
1402.66,0.134117,614051,450907
1405.93,0.139474,616268,446988
1409.2,0.144950,617795,442481
1412.46,0.150104,618872,438023
1415.72,0.154544,619795,434214
1418.98,0.158444,620495,430818
1422.23,0.162106,621087,427609
1426.56,0.166629,621375,423375
1429.8,0.168838,621616,421390
1433.04,0.172010,622129,418669
1436.27,0.174509,621526,415863
1439.5,0.176302,621113,413874
1442.72,0.179142,620921,411050
1445.94,0.181295,620270,408588
1450.23,0.185044,618860,404155
1453.44,0.188080,617697,400586
1456.64,0.191243,616264,396756
1459.85,0.193974,614413,393085
1463.04,0.196809,612307,389189
1466.24,0.200333,610032,384609
1469.43,0.203898,607345,379785
1473.67,0.209908,603789,372372
1476.85,0.215878,601175,365698
1480.02,0.222245,597737,358315
1483.19,0.229088,594479,350791
1486.36,0.235312,591232,343911
1489.52,0.240686,587853,337740
1492.68,0.244297,583875,332677
1496.89,0.246287,578062,327859
1500.03,0.247125,574159,325018
1503.18,0.247753,570285,322358
1506.32,0.246734,565444,320373
1509.45,0.245238,560571,318708
1512.58,0.243966,555821,316934
1515.71,0.241563,550344,315552
1519.87,0.238476,543983,314130
1522.99,0.235167,538764,313496
1526.1,0.233192,533692,311960
1529.21,0.229871,527902,310944
1532.32,0.226883,521886,309523
1535.42,0.223361,515888,308457
1538.51,0.219961,509987,307325
1541.6,0.216770,503936,305918
1545.72,0.212377,494694,303361
1548.8,0.209843,488378,301240
1551.88,0.206434,481832,299545
1554.95,0.205147,474989,296167
1558.02,0.202504,467818,293476
1561.08,0.200691,460730,290239
1564.15,0.200704,454170,286098
1568.22,0.199962,444181,280284
1571.27,0.198592,436947,276590
1574.32,0.198270,429598,272140
1577.36,0.197172,422039,268028
1580.4,0.195694,414375,264058
1583.43,0.193589,406354,260205
1586.46,0.191646,398475,256304
1590.49,0.189350,388982,251524
1593.51,0.187421,380708,247270
1596.53,0.185004,372727,243437
1599.54,0.182932,365060,239570
1602.55,0.180705,357543,235843
1605.55,0.178828,349495,231533
1608.55,0.176464,341154,227241
1612.54,0.174775,330877,221254
1615.53,0.171800,322904,217407
1618.51,0.171455,315116,212332
1621.49,0.168773,307217,208292
1624.47,0.168512,299481,203169
1627.44,0.167179,292112,198779
1630.41,0.166653,284245,193660
1634.36,0.164305,274079,187746
1637.32,0.164474,266916,182768
1640.27,0.163536,259612,178151
1643.22,0.161731,251804,173513
1646.16,0.161113,244348,168615
1649.1,0.160625,236703,163523
1652.04,0.159326,228171,158101
1655.95,0.156052,215408,150387
1658.88,0.154263,204937,143667
1661.8,0.148984,193395,137234
1664.72,0.141693,179728,129695
1667.63,0.131346,163642,120934
1670.54,0.118157,146312,111461
1673.44,0.106010,128451,100630
1677.31,0.091703,105080,85078
1680.21,0.081281,88906,73731
1683.1,0.078234,75033,62664
1685.99,0.080647,63520,52755
1688.87,0.079887,53714,44689
1691.75,0.086180,45653,37436
1694.62,0.090994,39137,31739
1697.49,0.096794,33776,27028
1701.31,0.103413,28175,22205