Folder: textile_sorting_NIRSCAN_/samples/wool/wool-000811 (part 107)

File: Column 1_050590_20150331_121859.csv
Method:,Column 1,,
Host Date-Time:,31/3/15 @ 12:18:59,,
Header Version:,1,,
System Temp (C):,33.85,,
Detector Temp (C):,34.56,,
Humidity (%):,1.86,,
Lamp PD:,3819,,
Shift Vector Coefficients:,-10.5391,0.0761263,-0.000134223,,
Pixel to Wavelength Coefficients:,1775.68,-0.916766,-0.000235065,,
Serial Number:,5510004,,
Scan Config Name:,Column 1,,
Scan Config Type:,Slew,,
Section 1,,
Start wavelength (nm):,900,,
End wavelength (nm):,1700,,
Pattern Pixel Width (nm):,   7.03,,,,
Exposure (ms):,  0.635,,,,
Digital Resolution:,228,,
Num Repeats:,6,,
PGA Gain:,64,,
Total Measurement Time in sec:,  2.662,,
Wavelength (nm),Absorbance (AU),Reference Signal (unitless),Sample Signal (unitless)
901.51,0.071860,108485,91941
905.376,0.077408,121306,101502
909.237,0.077636,131909,110316
913.095,0.079828,143299,119238
916.948,0.080013,156982,130568
922.079,0.081334,179937,149206
925.923,0.081879,200504,166052
929.762,0.083741,222660,183612
933.597,0.083993,244426,201444
937.427,0.082069,263972,218519
941.254,0.081450,281845,233647
945.076,0.080445,297271,247006
950.165,0.079621,315605,262738
953.978,0.079223,328029,273331
957.786,0.079328,340470,283629
961.59,0.079454,352317,293413
965.389,0.079110,363056,302596
969.185,0.079791,373162,310532
972.976,0.079557,382632,318584
976.763,0.080372,391202,325109
981.806,0.080725,400190,332308
985.583,0.081270,406088,336783
989.355,0.081286,410162,340149
993.124,0.082332,412868,341570
996.888,0.082590,414263,342520
1000.65,0.083020,415476,343183
1004.4,0.084877,415479,341721
1009.41,0.085279,414358,340484
1013.15,0.085686,412923,338987
1016.89,0.086948,411526,336860
1020.63,0.086716,409066,335025
1024.36,0.086102,406777,333622
1028.09,0.086304,404427,331540
1031.82,0.086493,401911,329334
1036.78,0.085683,398410,327075
1040.49,0.085476,396204,325419
1044.2,0.086062,394236,323366
1047.91,0.085621,392042,321893
1051.61,0.085396,389823,320237
1055.31,0.084144,388234,319852
1059,0.083777,387599,319599
1063.92,0.083841,386688,318801
1067.61,0.082728,386598,319545
1071.29,0.082231,387377,320555
1074.96,0.081803,388536,321831
1078.63,0.081331,389855,323275
1082.3,0.079923,391215,325456
1085.96,0.080037,393215,327034
1090.84,0.078405,396270,330816
1094.49,0.077807,398760,333353
1098.14,0.077162,400987,335713
1101.79,0.077346,403477,337655
1105.43,0.077322,406116,339882
1109.06,0.076731,407701,341673
1112.7,0.076149,409859,343942
1117.53,0.075230,412494,346887
1121.15,0.076029,414909,348276
1124.77,0.076655,416559,349158
1128.38,0.077163,418532,350401
1131.99,0.078228,419956,350732
1135.6,0.079799,421946,351122
1139.2,0.081135,423881,351649
1143.99,0.083103,426786,352458
1147.58,0.083767,428617,353429
1151.17,0.084783,431169,354703
1154.75,0.085595,433579,356019
1158.33,0.087222,436264,356884
1161.91,0.088861,439132,357877
1165.48,0.090941,442389,358809
1169.04,0.093413,446101,359766
1173.79,0.096527,451929,361862
1177.34,0.098429,456026,363547
1180.9,0.100679,461306,365856
1184.44,0.102716,467657,369157
1187.99,0.103421,473969,373533
1191.52,0.103675,479856,377951
1195.06,0.103506,487372,384021
1199.76,0.103208,497347,392149
1203.29,0.101467,504311,399238
1206.81,0.101555,511507,404852
1210.33,0.100869,519078,411494
1213.84,0.100082,527163,418661
1217.35,0.099758,534208,424573
1220.85,0.099124,540472,430179
1225.51,0.098678,549929,438156
1229.01,0.097671,556888,444730
1232.5,0.097592,562180,449038
1235.98,0.096289,567975,455030
1239.46,0.095534,574815,461311
1242.94,0.094725,582782,468577
1246.41,0.094125,591476,476225
1251.03,0.094128,604016,486318
1254.5,0.094136,612289,492970
1257.96,0.094544,619125,498006
1261.41,0.095306,624551,501490
1264.86,0.095344,629900,505740
1268.31,0.096194,634345,508313
1271.75,0.096769,638574,511025
1276.33,0.096713,642499,514232
1279.76,0.096922,645905,516710
1283.19,0.096727,648307,518864
1286.61,0.096221,650446,521183
1290.03,0.095537,652132,523357
1293.44,0.095213,653907,525174
1296.85,0.095153,655963,526898
1301.39,0.094706,657349,528555
1304.8,0.095120,657558,528219
1308.19,0.095213,658515,528875
1311.58,0.095098,658804,529247
1314.97,0.095481,659011,528946
1318.36,0.095915,658272,527825
1321.73,0.096127,658022,527367
1326.23,0.097827,657870,525186
1329.6,0.098245,656482,523574
1332.97,0.099374,654926,520977
1336.33,0.100148,653727,519097
1339.69,0.101926,652497,516003
1343.04,0.103790,649913,511759
1346.39,0.105559,647671,507920
1349.73,0.107412,645338,503936
1354.18,0.110208,641175,497472
1357.52,0.112205,638376,493028
1360.85,0.114219,635805,488771
1364.17,0.116522,633413,484356
1367.49,0.118501,631026,480337
1370.81,0.120630,628050,475734
1374.12,0.122620,625034,471285
1378.54,0.125778,620272,464306
1381.84,0.128911,616892,458456
1385.14,0.132382,613613,452390
1388.43,0.136790,611526,446298
1391.72,0.141099,610663,441268
1395.01,0.145648,610634,436650
1398.29,0.150573,611700,432479
1402.66,0.157221,614051,427547
1405.93,0.162434,616268,423970
1409.2,0.167408,617795,420181
1412.46,0.172517,618872,415991
1415.72,0.176502,619795,412806
1418.98,0.180033,620495,409926
1422.23,0.183742,621087,406828
1426.56,0.187821,621375,403211
1429.8,0.190370,621616,401007
1433.04,0.193308,622129,398632
1436.27,0.195532,621526,396212
1439.5,0.197364,621113,394282
1442.72,0.199787,620921,391967
1445.94,0.201863,620270,389689
1450.23,0.205527,618860,385536
1453.44,0.207588,617697,382990
1456.64,0.210795,616264,379290
1459.85,0.212898,614413,376324
1463.04,0.215932,612307,372424
1466.24,0.219262,610032,368206
1469.43,0.222881,607345,363542
1473.67,0.228076,603789,357116
1476.85,0.233751,601175,350954
1480.02,0.239317,597737,344503
1483.19,0.244530,594479,338537
1486.36,0.250690,591232,331946
1489.52,0.255028,587853,326769
1492.68,0.258096,583875,322273
1496.89,0.259994,578062,317673
1500.03,0.260479,574159,315176
1503.18,0.260327,570285,313159
1506.32,0.260479,565444,310392
1509.45,0.258747,560571,308947
1512.58,0.257182,555821,307435
1515.71,0.254684,550344,306161
1519.87,0.251726,543983,304691
1522.99,0.249602,538764,303247
1526.1,0.246680,533692,302420
1529.21,0.244164,527902,300877
1532.32,0.240960,521886,299651
1535.42,0.237997,515888,298235
1538.51,0.235889,509987,296258
1541.6,0.232241,503936,295212
1545.72,0.228652,494694,292203
1548.8,0.225676,488378,290456
1551.88,0.223702,481832,287868
1554.95,0.221405,474989,285285
1558.02,0.219974,467818,281905
1561.08,0.219275,460730,278081
1564.15,0.217179,454170,275448
1568.22,0.216222,444181,269984
1571.27,0.216710,436947,265289
1574.32,0.215488,429598,261562
1577.36,0.214333,422039,257644
1580.4,0.212461,414375,254058
1583.43,0.211394,406354,249753
1586.46,0.210224,398475,245571
1590.49,0.208195,388982,240843
1593.51,0.205591,380708,237138
1596.53,0.203701,372727,233179
1599.54,0.202555,365060,228986
1602.55,0.199831,357543,225682
1605.55,0.197622,349495,221727
1608.55,0.196383,341154,217054
1612.54,0.195010,330877,211182
1615.53,0.191702,322904,207669
1618.51,0.190992,315116,202992
1621.49,0.189930,307217,198388
1624.47,0.189915,299481,193399
1627.44,0.189504,292112,188819
1630.41,0.186300,284245,185094
1634.36,0.185788,274079,178685
1637.32,0.185334,266916,174197
1640.27,0.184651,259612,169697
1643.22,0.183918,251804,164871
1646.16,0.183363,244348,160194
1649.1,0.182554,236703,155471
1652.04,0.180392,228171,150615
1655.95,0.177231,215408,143229
1658.88,0.173015,204937,137596
1661.8,0.169273,193395,130970
1664.72,0.161646,179728,123871
1667.63,0.150625,163642,115683
1670.54,0.135142,146312,107186
1673.44,0.122378,128451,96908
1677.31,0.099730,105080,83520
1680.21,0.088929,88906,72444
1683.1,0.086971,75033,61416
1685.99,0.088614,63520,51796
1688.87,0.091309,53714,43529
1691.75,0.093952,45653,36772
1694.62,0.094084,39137,31514
1697.49,0.099810,33776,26841
1701.31,0.115792,28175,21581

File: Column 1_050590_20150331_121902.csv
Method:,Column 1,,
Host Date-Time:,31/3/15 @ 12:19:2,,
Header Version:,1,,
System Temp (C):,33.87,,
Detector Temp (C):,34.56,,
Humidity (%):,1.86,,
Lamp PD:,3819,,
Shift Vector Coefficients:,-10.5391,0.0761263,-0.000134223,,
Pixel to Wavelength Coefficients:,1775.68,-0.916766,-0.000235065,,
Serial Number:,5510004,,
Scan Config Name:,Column 1,,
Scan Config Type:,Slew,,
Section 1,,
Start wavelength (nm):,900,,
End wavelength (nm):,1700,,
Pattern Pixel Width (nm):,   7.03,,,,
Exposure (ms):,  0.635,,,,
Digital Resolution:,228,,
Num Repeats:,6,,
PGA Gain:,64,,
Total Measurement Time in sec:,  2.695,,
Wavelength (nm),Absorbance (AU),Reference Signal (unitless),Sample Signal (unitless)
901.51,0.070154,108485,92303
905.376,0.075291,121306,101998
909.237,0.078807,131909,110019
913.095,0.079865,143299,119228
916.948,0.081583,156982,130097
922.079,0.081061,179937,149300
925.923,0.083026,200504,165614
929.762,0.083311,222660,183794
933.597,0.082263,244426,202248
937.427,0.082118,263972,218494
941.254,0.081764,281845,233478
945.076,0.080470,297271,246992
950.165,0.079927,315605,262553
953.978,0.079150,328029,273377
957.786,0.079218,340470,283701
961.59,0.079432,352317,293428
965.389,0.079222,363056,302518
969.185,0.079212,373162,310946
972.976,0.080517,382632,317881
976.763,0.080040,391202,325358
981.806,0.081150,400190,331983
985.583,0.081467,406088,336630
989.355,0.081969,410162,339615
993.124,0.081901,412868,341909
996.888,0.082877,414263,342294
1000.65,0.083647,415476,342688
1004.4,0.085109,415479,341539
1009.41,0.086133,414358,339815
1013.15,0.086255,412923,338543
1016.89,0.087006,411526,336815
1020.63,0.086563,409066,335143
1024.36,0.086650,406777,333201
1028.09,0.086271,404427,331565
1031.82,0.086195,401911,329560
1036.78,0.085897,398410,326914
1040.49,0.085377,396204,325493
1044.2,0.085058,394236,324114
1047.91,0.085053,392042,322314
1051.61,0.084503,389823,320896
1055.31,0.084250,388234,319774
1059,0.084463,387599,319095
1063.92,0.083088,386688,319354
1067.61,0.082537,386598,319685
1071.29,0.082639,387377,320254
1074.96,0.081744,388536,321875
1078.63,0.081639,389855,323046
1082.3,0.080272,391215,325195
1085.96,0.079642,393215,327332
1090.84,0.078849,396270,330478
1094.49,0.078127,398760,333108
1098.14,0.078058,400987,335021
1101.79,0.077223,403477,337750
1105.43,0.077033,406116,340108
1109.06,0.075878,407701,342345
1112.7,0.076144,409859,343946
1117.53,0.076131,412494,346168
1121.15,0.076305,414909,348055
1124.77,0.076183,416559,349537
1128.38,0.076741,418532,350742
1131.99,0.078022,419956,350899
1135.6,0.079879,421946,351057
1139.2,0.081035,423881,351730
1143.99,0.082897,426786,352625
1147.58,0.083497,428617,353649
1151.17,0.084592,431169,354859
1154.75,0.086047,433579,355649
1158.33,0.086874,436264,357170
1161.91,0.089315,439132,357503
1165.48,0.090497,442389,359176
1169.04,0.092938,446101,360160
1173.79,0.096677,451929,361737
1177.34,0.098586,456026,363416
1180.9,0.100687,461306,365849
1184.44,0.102690,467657,369179
1187.99,0.103433,473969,373523
1191.52,0.103300,479856,378278
1195.06,0.103573,487372,383961
1199.76,0.102397,497347,392882
1203.29,0.101706,504311,399018
1206.81,0.101860,511507,404568
1210.33,0.100827,519078,411534
1213.84,0.100117,527163,418628
1217.35,0.099841,534208,424492
1220.85,0.099069,540472,430233
1225.51,0.098501,549929,438334
1229.01,0.097897,556888,444499
1232.5,0.097319,562180,449321
1235.98,0.096904,567975,454386
1239.46,0.096165,574815,460642
1242.94,0.094617,582782,468694
1246.41,0.094473,591476,475844
1251.03,0.094184,604016,486255
1254.5,0.094241,612289,492851
1257.96,0.094350,619125,498228
1261.41,0.095381,624551,501403
1264.86,0.095703,629900,505322
1268.31,0.096109,634345,508413
1271.75,0.096676,638574,511134
1276.33,0.097068,642499,513812
1279.76,0.096840,645905,516807
1283.19,0.096713,648307,518881
1286.61,0.096114,650446,521311
1290.03,0.095455,652132,523456
1293.44,0.095438,653907,524902
1296.85,0.095387,655963,526614
1301.39,0.094910,657349,528307
1304.8,0.094487,657558,528990
1308.19,0.094826,658515,529346
1311.58,0.095075,658804,529275
1314.97,0.095552,659011,528860
1318.36,0.096410,658272,527224
1321.73,0.096423,658022,527008
1326.23,0.097737,657870,525295
1329.6,0.097941,656482,523940
1332.97,0.099297,654926,521069
1336.33,0.100276,653727,518944
1339.69,0.101723,652497,516245
1343.04,0.103204,649913,512450
1346.39,0.105508,647671,507980
1349.73,0.107146,645338,504245
1354.18,0.110324,641175,497339
1357.52,0.112425,638376,492778
1360.85,0.114059,635805,488951
1364.17,0.116728,633413,484127
1367.49,0.118550,631026,480283
1370.81,0.120678,628050,475682
1374.12,0.122783,625034,471108
1378.54,0.125706,620272,464383
1381.84,0.128782,616892,458593
1385.14,0.132397,613613,452374
1388.43,0.136293,611526,446809
1391.72,0.140640,610663,441735
1395.01,0.145265,610634,437035
1398.29,0.150345,611700,432707
1402.66,0.156861,614051,427901
1405.93,0.162482,616268,423924
1409.2,0.167492,617795,420100
1412.46,0.172540,618872,415969
1415.72,0.176817,619795,412507
1418.98,0.180542,620495,409446
1422.23,0.183688,621087,406878
1426.56,0.188207,621375,402853
1429.8,0.190319,621616,401054
1433.04,0.192974,622129,398939
1436.27,0.195063,621526,396640
1439.5,0.197223,621113,394410
1442.72,0.199772,620921,391980
1445.94,0.202080,620270,389494
1450.23,0.205547,618860,385519
1453.44,0.207861,617697,382749
1456.64,0.210488,616264,379559
1459.85,0.213211,614413,376053
1463.04,0.216126,612307,372257
1466.24,0.219192,610032,368265
1469.43,0.222752,607345,363650
1473.67,0.228138,603789,357065
1476.85,0.233574,601175,351097
1480.02,0.239312,597737,344507
1483.19,0.245258,594479,337970
1486.36,0.250400,591232,332168
1489.52,0.254845,587853,326907
1492.68,0.258077,583875,322287
1496.89,0.260656,578062,317189
1500.03,0.260622,574159,315072
1503.18,0.260670,570285,312912
1506.32,0.259307,565444,311231
1509.45,0.258823,560571,308893
1512.58,0.257300,555821,307351
1515.71,0.254903,550344,306007
1519.87,0.251425,543983,304902
1522.99,0.249724,538764,303162
1526.1,0.247072,533692,302147
1529.21,0.243747,527902,301166
1532.32,0.241550,521886,299244
1535.42,0.238682,515888,297765
1538.51,0.236333,509987,295955
1541.6,0.232907,503936,294760
1545.72,0.227960,494694,292669
1548.8,0.225810,488378,290366
1551.88,0.222946,481832,288370
1554.95,0.221677,474989,285106
1558.02,0.219923,467818,281938
1561.08,0.219096,460730,278196
1564.15,0.217674,454170,275134
1568.22,0.217159,444181,269402
1571.27,0.216891,436947,265178
1574.32,0.215750,429598,261404
1577.36,0.214211,422039,257716
1580.4,0.213330,414375,253550
1583.43,0.211526,406354,249677
1586.46,0.209621,398475,245912
1590.49,0.208383,388982,240739
1593.51,0.207349,380708,236180
1596.53,0.204145,372727,232941
1599.54,0.201659,365060,229459
1602.55,0.199935,357543,225628
1605.55,0.198587,349495,221235
1608.55,0.195975,341154,217258
1612.54,0.195030,330877,211172
1615.53,0.193204,322904,206952
1618.51,0.192591,315116,202246
1621.49,0.191076,307217,197865
1624.47,0.191161,299481,192845
1627.44,0.187741,292112,189587
1630.41,0.187520,284245,184575
1634.36,0.186313,274079,178469
1637.32,0.185279,266916,174219
1640.27,0.185027,259612,169550
1643.22,0.183939,251804,164863
1646.16,0.183208,244348,160251
1649.1,0.181628,236703,155803
1652.04,0.181145,228171,150354
1655.95,0.177914,215408,143004
1658.88,0.173305,204937,137504
1661.8,0.168677,193395,131150
1664.72,0.161499,179728,123913
1667.63,0.148965,163642,116126
1670.54,0.135426,146312,107116
1673.44,0.120759,128451,97270
1677.31,0.101893,105080,83105
1680.21,0.089973,88906,72270
1683.1,0.086003,75033,61553
1685.99,0.088581,63520,51800
1688.87,0.091359,53714,43524
1691.75,0.090763,45653,37043
1694.62,0.104192,39137,30789
1697.49,0.108619,33776,26302
1701.31,0.112145,28175,21763

File: Column 1_050590_20150331_121904.csv
Method:,Column 1,,
Host Date-Time:,31/3/15 @ 12:19:4,,
Header Version:,1,,
System Temp (C):,33.88,,
Detector Temp (C):,34.56,,
Humidity (%):,1.86,,
Lamp PD:,3818,,
Shift Vector Coefficients:,-10.5391,0.0761263,-0.000134223,,
Pixel to Wavelength Coefficients:,1775.68,-0.916766,-0.000235065,,
Serial Number:,5510004,,
Scan Config Name:,Column 1,,
Scan Config Type:,Slew,,
Section 1,,
Start wavelength (nm):,900,,
End wavelength (nm):,1700,,
Pattern Pixel Width (nm):,   7.03,,,,
Exposure (ms):,  0.635,,,,
Digital Resolution:,228,,
Num Repeats:,6,,
PGA Gain:,64,,
Total Measurement Time in sec:,  2.727,,
Wavelength (nm),Absorbance (AU),Reference Signal (unitless),Sample Signal (unitless)
901.51,0.070408,108485,92249
905.376,0.076779,121306,101649
909.237,0.076405,131909,110629
913.095,0.078454,143299,119616
916.948,0.078764,156982,130944
922.079,0.081264,179937,149230
925.923,0.083196,200504,165549
929.762,0.082435,222660,184165
933.597,0.082588,244426,202097
937.427,0.081304,263972,218904
941.254,0.081331,281845,233711
945.076,0.080763,297271,246825
950.165,0.079510,315605,262805
953.978,0.078779,328029,273611
957.786,0.078528,340470,284152
961.59,0.079314,352317,293508
965.389,0.079270,363056,302485
969.185,0.078842,373162,311211
972.976,0.079275,382632,318791
976.763,0.079982,391202,325401
981.806,0.080503,400190,332478
985.583,0.080012,406088,337760
989.355,0.081291,410162,340145
993.124,0.081766,412868,342015
996.888,0.081983,414263,342999
1000.65,0.083130,415476,343096
1004.4,0.084321,415479,342159
1009.41,0.085288,414358,340477
1013.15,0.085047,412923,339486
1016.89,0.086163,411526,337469
1020.63,0.086014,409066,335567
1024.36,0.086406,406777,333388
1028.09,0.085921,404427,331833
1031.82,0.085508,401911,330082
1036.78,0.085429,398410,327266
1040.49,0.085294,396204,325555
1044.2,0.085109,394236,324076
1047.91,0.084987,392042,322363
1051.61,0.084488,389823,320907
1055.31,0.084427,388234,319644
1059,0.083909,387599,319502
1063.92,0.083418,386688,319112
1067.61,0.082570,386598,319661
1071.29,0.082692,387377,320215
1074.96,0.081280,388536,322219
1078.63,0.080437,389855,323941
1082.3,0.079391,391215,325855
1085.96,0.079301,393215,327589
1090.84,0.078335,396270,330869
1094.49,0.077682,398760,333449
1098.14,0.077063,400987,335790
1101.79,0.077244,403477,337734
1105.43,0.076149,406116,340801
1109.06,0.075542,407701,342610
1112.7,0.075199,409859,344695
1117.53,0.075460,412494,346703
1121.15,0.075724,414909,348521
1124.77,0.075949,416559,349726
1128.38,0.076751,418532,350734
1131.99,0.078019,419956,350901
1135.6,0.079354,421946,351482
1139.2,0.081067,423881,351704
1143.99,0.083074,426786,352481
1147.58,0.083592,428617,353572
1151.17,0.084005,431169,355339
1154.75,0.085915,433579,355757
1158.33,0.086498,436264,357480
1161.91,0.089132,439132,357654
1165.48,0.090532,442389,359147
1169.04,0.092855,446101,360229
1173.79,0.096292,451929,362058
1177.34,0.098218,456026,363724
1180.9,0.100209,461306,366252
1184.44,0.102086,467657,369693
1187.99,0.103611,473969,373370
1191.52,0.103055,479856,378491
1195.06,0.103066,487372,384410
1199.76,0.102561,497347,392734
1203.29,0.102099,504311,398657
1206.81,0.101073,511507,405302
1210.33,0.100683,519078,411670
1213.84,0.100307,527163,418445
1217.35,0.099667,534208,424662
1220.85,0.098803,540472,430497
1225.51,0.098049,549929,438791
1229.01,0.097606,556888,444797
1232.5,0.097345,562180,449294
1235.98,0.096438,567975,454874
1239.46,0.095461,574815,461389
1242.94,0.094396,582782,468932
1246.41,0.093936,591476,476432
1251.03,0.093992,604016,486470
1254.5,0.093983,612289,493144
1257.96,0.094532,619125,498020
1261.41,0.094817,624551,502054
1264.86,0.095634,629900,505403
1268.31,0.095900,634345,508657
1271.75,0.096091,638574,511824
1276.33,0.097006,642499,513886
1279.76,0.096626,645905,517062
1283.19,0.096336,648307,519331
1286.61,0.096079,650446,521353
1290.03,0.095460,652132,523450
1293.44,0.095074,653907,525342
1296.85,0.094948,655963,527146
1301.39,0.094618,657349,528662
1304.8,0.094726,657558,528698
1308.19,0.095138,658515,528966
1311.58,0.094789,658804,529623
1314.97,0.095518,659011,528901
1318.36,0.095736,658272,528043
1321.73,0.096179,658022,527304
1326.23,0.097290,657870,525836
1329.6,0.098158,656482,523678
1332.97,0.099145,654926,521251
1336.33,0.100207,653727,519026
1339.69,0.101412,652497,516615
1343.04,0.103051,649913,512630
1346.39,0.105191,647671,508351
1349.73,0.106815,645338,504629
1354.18,0.109986,641175,497726
1357.52,0.111821,638376,493464
1360.85,0.114199,635805,488793
1364.17,0.116139,633413,484784
1367.49,0.118075,631026,480809
1370.81,0.120596,628050,475771
1374.12,0.122867,625034,471017
1378.54,0.125316,620272,464800
1381.84,0.128529,616892,458860
1385.14,0.132368,613613,452404
1388.43,0.136019,611526,447091
1391.72,0.140864,610663,441507
1395.01,0.145248,610634,437052
1398.29,0.149806,611700,433244
1402.66,0.156838,614051,427924
1405.93,0.162408,616268,423996
1409.2,0.167256,617795,420328
1412.46,0.172251,618872,416246
1415.72,0.176209,619795,413085
1418.98,0.179992,620495,409965
1422.23,0.183252,621087,407287
1426.56,0.187347,621375,403652
1429.8,0.190342,621616,401033
1433.04,0.192459,622129,399412
1436.27,0.195035,621526,396665
1439.5,0.197039,621113,394577
1442.72,0.198940,620921,392732
1445.94,0.201308,620270,390187
1450.23,0.204911,618860,386084
1453.44,0.206751,617697,383729
1456.64,0.210312,616264,379712
1459.85,0.212748,614413,376454
1463.04,0.215751,612307,372579
1466.24,0.219116,610032,368330
1469.43,0.221911,607345,364355
1473.67,0.228135,603789,357067
1476.85,0.233512,601175,351147
1480.02,0.239128,597737,344653
1483.19,0.244506,594479,338556
1486.36,0.250022,591232,332457
1489.52,0.254607,587853,327086
1492.68,0.258375,583875,322066
1496.89,0.259867,578062,317766
1500.03,0.260387,574159,315243
1503.18,0.260727,570285,312871
1506.32,0.259177,565444,311324
1509.45,0.258627,560571,309032
1512.58,0.256651,555821,307811
1515.71,0.254412,550344,306353
1519.87,0.251315,543983,304979
1522.99,0.249359,538764,303417
1526.1,0.246475,533692,302563
1529.21,0.243242,527902,301517
1532.32,0.241600,521886,299210
1535.42,0.237631,515888,298486
1538.51,0.234863,509987,296959
1541.6,0.231555,503936,295679
1545.72,0.228163,494694,292532
1548.8,0.225422,488378,290626
1551.88,0.222641,481832,288572
1554.95,0.220801,474989,285682
1558.02,0.220131,467818,281803
1561.08,0.218459,460730,278604
1564.15,0.217382,454170,275319
1568.22,0.216286,444181,269944
1571.27,0.215970,436947,265741
1574.32,0.215421,429598,261602
1577.36,0.213997,422039,257843
1580.4,0.212907,414375,253797
1583.43,0.210763,406354,250116
1586.46,0.208961,398475,246286
1590.49,0.207522,388982,241217
1593.51,0.205571,380708,237149
1596.53,0.203554,372727,233258
1599.54,0.201462,365060,229563
1602.55,0.201192,357543,224976
1605.55,0.197517,349495,221781
1608.55,0.195783,341154,217354
1612.54,0.192989,330877,212167
1615.53,0.192491,322904,207292
1618.51,0.191278,315116,202858
1621.49,0.189991,307217,198360
1624.47,0.187434,299481,194507
1627.44,0.187597,292112,189650
1630.41,0.186803,284245,184880
1634.36,0.185003,274079,179008
1637.32,0.184798,266916,174412
1640.27,0.183710,259612,170065
1643.22,0.182997,251804,165221
1646.16,0.182528,244348,160502
1649.1,0.182197,236703,155599
1652.04,0.179606,228171,150888
1655.95,0.177158,215408,143253
1658.88,0.173716,204937,137374
1661.8,0.167992,193395,131357
1664.72,0.161292,179728,123972
1667.63,0.148517,163642,116246
1670.54,0.134964,146312,107230
1673.44,0.119248,128451,97609
1677.31,0.097888,105080,83875
1680.21,0.087815,88906,72630
1683.1,0.085178,75033,61670
1685.99,0.082975,63520,52473
1688.87,0.089745,53714,43686
1691.75,0.093256,45653,36831
1694.62,0.091213,39137,31723
1697.49,0.094726,33776,27157
1701.31,0.108647,28175,21939