Folder: textile_sorting_NIRSCAN_/samples/wool/wool-000811 (part 104)

File: Column 1_050588_20150331_121807.csv
Method:,Column 1,,
Host Date-Time:,31/3/15 @ 12:18:7,,
Header Version:,1,,
System Temp (C):,33.82,,
Detector Temp (C):,34.57,,
Humidity (%):,1.86,,
Lamp PD:,3819,,
Shift Vector Coefficients:,-10.5391,0.0761263,-0.000134223,,
Pixel to Wavelength Coefficients:,1775.68,-0.916766,-0.000235065,,
Serial Number:,5510004,,
Scan Config Name:,Column 1,,
Scan Config Type:,Slew,,
Section 1,,
Start wavelength (nm):,900,,
End wavelength (nm):,1700,,
Pattern Pixel Width (nm):,   7.03,,,,
Exposure (ms):,  0.635,,,,
Digital Resolution:,228,,
Num Repeats:,6,,
PGA Gain:,64,,
Total Measurement Time in sec:,  2.666,,
Wavelength (nm),Absorbance (AU),Reference Signal (unitless),Sample Signal (unitless)
901.51,0.071153,108485,92091
905.376,0.076147,121306,101797
909.237,0.077573,131909,110332
913.095,0.078581,143299,119581
916.948,0.079790,156982,130635
922.079,0.080523,179937,149485
925.923,0.081455,200504,166214
929.762,0.083264,222660,183814
933.597,0.083181,244426,201821
937.427,0.082015,263972,218546
941.254,0.081638,281845,233546
945.076,0.080292,297271,247093
950.165,0.079623,315605,262737
953.978,0.078896,328029,273537
957.786,0.078678,340470,284054
961.59,0.078814,352317,293846
965.389,0.079705,363056,302182
969.185,0.079451,373162,310775
972.976,0.079769,382632,318429
976.763,0.080141,391202,325282
981.806,0.080280,400190,332649
985.583,0.081046,406088,336957
989.355,0.081636,410162,339875
993.124,0.081798,412868,341990
996.888,0.082297,414263,342751
1000.65,0.083401,415476,342882
1004.4,0.084538,415479,341988
1009.41,0.085741,414358,340122
1013.15,0.085445,412923,339175
1016.89,0.086880,411526,336913
1020.63,0.086401,409066,335268
1024.36,0.085893,406777,333782
1028.09,0.086240,404427,331589
1031.82,0.086242,401911,329525
1036.78,0.085569,398410,327161
1040.49,0.085098,396204,325702
1044.2,0.085789,394236,323569
1047.91,0.084924,392042,322410
1051.61,0.084200,389823,321120
1055.31,0.084120,388234,319870
1059,0.084078,387599,319378
1063.92,0.083577,386688,318995
1067.61,0.082593,386598,319644
1071.29,0.081326,387377,321224
1074.96,0.082121,388536,321596
1078.63,0.080997,389855,323524
1082.3,0.080828,391215,324779
1085.96,0.079463,393215,327467
1090.84,0.079068,396270,330311
1094.49,0.078094,398760,333133
1098.14,0.077961,400987,335096
1101.79,0.077153,403477,337805
1105.43,0.076916,406116,340200
1109.06,0.075922,407701,342310
1112.7,0.075960,409859,344092
1117.53,0.075593,412494,346597
1121.15,0.075669,414909,348565
1124.77,0.076306,416559,349438
1128.38,0.076963,418532,350563
1131.99,0.078022,419956,350899
1135.6,0.079424,421946,351425
1139.2,0.081027,423881,351736
1143.99,0.082739,426786,352753
1147.58,0.083800,428617,353402
1151.17,0.084697,431169,354773
1154.75,0.086323,433579,355423
1158.33,0.087411,436264,356729
1161.91,0.089031,439132,357737
1165.48,0.091012,442389,358750
1169.04,0.093379,446101,359794
1173.79,0.096389,451929,361977
1177.34,0.098839,456026,363204
1180.9,0.100957,461306,365622
1184.44,0.102342,467657,369475
1187.99,0.103029,473969,373870
1191.52,0.103027,479856,378516
1195.06,0.103143,487372,384342
1199.76,0.103249,497347,392112
1203.29,0.101819,504311,398914
1206.81,0.101393,511507,405003
1210.33,0.101055,519078,411318
1213.84,0.100207,527163,418541
1217.35,0.099934,534208,424401
1220.85,0.099093,540472,430210
1225.51,0.098568,549929,438267
1229.01,0.097964,556888,444431
1232.5,0.096946,562180,449707
1235.98,0.097252,567975,454022
1239.46,0.095840,574815,460986
1242.94,0.095113,582782,468159
1246.41,0.094568,591476,475739
1251.03,0.094032,604016,486426
1254.5,0.094511,612289,492545
1257.96,0.094839,619125,497667
1261.41,0.095365,624551,501421
1264.86,0.096022,629900,504952
1268.31,0.096250,634345,508248
1271.75,0.096792,638574,510998
1276.33,0.096954,642499,513947
1279.76,0.097131,645905,516461
1283.19,0.096732,648307,518858
1286.61,0.096024,650446,521419
1290.03,0.095381,652132,523545
1293.44,0.095439,653907,524900
1296.85,0.095490,655963,526489
1301.39,0.094510,657349,528793
1304.8,0.095175,657558,528152
1308.19,0.094756,658515,529431
1311.58,0.095662,658804,528560
1314.97,0.095609,659011,528791
1318.36,0.096085,658272,527619
1321.73,0.096614,658022,526777
1326.23,0.097875,657870,525128
1329.6,0.098524,656482,523237
1332.97,0.099529,654926,520791
1336.33,0.100612,653727,518543
1339.69,0.101928,652497,516001
1343.04,0.103539,649913,512054
1346.39,0.106000,647671,507405
1349.73,0.107610,645338,503706
1354.18,0.110363,641175,497294
1357.52,0.112539,638376,492649
1360.85,0.114603,635805,488338
1364.17,0.116606,633413,484263
1367.49,0.118872,631026,479927
1370.81,0.120776,628050,475574
1374.12,0.123374,625034,470468
1378.54,0.126313,620272,463734
1381.84,0.129273,616892,458074
1385.14,0.133276,613613,451459
1388.43,0.137138,611526,445940
1391.72,0.141059,610663,441309
1395.01,0.145918,610634,436378
1398.29,0.150473,611700,432579
1402.66,0.157799,614051,426978
1405.93,0.162913,616268,423503
1409.2,0.167975,617795,419633
1412.46,0.172754,618872,415764
1415.72,0.177219,619795,412125
1418.98,0.181355,620495,408680
1422.23,0.185277,621087,405392
1426.56,0.189005,621375,402114
1429.8,0.191341,621616,400112
1433.04,0.193813,622129,398169
1436.27,0.195919,621526,395859
1439.5,0.198703,621113,393068
1442.72,0.201261,620921,390639
1445.94,0.203399,620270,388313
1450.23,0.205959,618860,385153
1453.44,0.208714,617697,381998
1456.64,0.211824,616264,378393
1459.85,0.214108,614413,375277
1463.04,0.216850,612307,371637
1466.24,0.219883,610032,367680
1469.43,0.223403,607345,363105
1473.67,0.228626,603789,356664
1476.85,0.234573,601175,350290
1480.02,0.239685,597737,344211
1483.19,0.245261,594479,337968
1486.36,0.250619,591232,332001
1489.52,0.255441,587853,326458
1492.68,0.258375,583875,322066
1496.89,0.260674,578062,317176
1500.03,0.261046,574159,314765
1503.18,0.260979,570285,312689
1506.32,0.259913,565444,310797
1509.45,0.259250,560571,308589
1512.58,0.257323,555821,307335
1515.71,0.255025,550344,305921
1519.87,0.251483,543983,304861
1522.99,0.249651,538764,303213
1526.1,0.246952,533692,302231
1529.21,0.244382,527902,300726
1532.32,0.241270,521886,299437
1535.42,0.238348,515888,297994
1538.51,0.235660,509987,296414
1541.6,0.233039,503936,294670
1545.72,0.228747,494694,292139
1548.8,0.226307,488378,290034
1551.88,0.223968,481832,287692
1554.95,0.221106,474989,285481
1558.02,0.220281,467818,281706
1561.08,0.219099,460730,278194
1564.15,0.218436,454170,274652
1568.22,0.216626,444181,269733
1571.27,0.216600,436947,265356
1574.32,0.215728,429598,261417
1577.36,0.214140,422039,257758
1580.4,0.216695,414375,251593
1583.43,0.210747,406354,250125
1586.46,0.209724,398475,245854
1590.49,0.207889,388982,241013
1593.51,0.206460,380708,236664
1596.53,0.204468,372727,232768
1599.54,0.202536,365060,228996
1602.55,0.200376,357543,225399
1605.55,0.198387,349495,221337
1608.55,0.196199,341154,217146
1612.54,0.194969,330877,211202
1615.53,0.192740,322904,207173
1618.51,0.191398,315116,202802
1621.49,0.191131,307217,197840
1624.47,0.189471,299481,193597
1627.44,0.188573,292112,189224
1630.41,0.187104,284245,184752
1634.36,0.186352,274079,178453
1637.32,0.184885,266916,174377
1640.27,0.184170,259612,169885
1643.22,0.182837,251804,165282
1646.16,0.184114,244348,159917
1649.1,0.181823,236703,155733
1652.04,0.180900,228171,150439
1655.95,0.178117,215408,142937
1658.88,0.173649,204937,137395
1661.8,0.168465,193395,131214
1664.72,0.160284,179728,124260
1667.63,0.149164,163642,116073
1670.54,0.135158,146312,107182
1673.44,0.119412,128451,97572
1677.31,0.101183,105080,83241
1680.21,0.087188,88906,72735
1683.1,0.085742,75033,61590
1685.99,0.083621,63520,52395
1688.87,0.088039,53714,43858
1691.75,0.093527,45653,36808
1694.62,0.094318,39137,31497
1697.49,0.103972,33776,26585
1701.31,0.115370,28175,21602

File: Column 1_050589_20150331_121810.csv
Method:,Column 1,,
Host Date-Time:,31/3/15 @ 12:18:10,,
Header Version:,1,,
System Temp (C):,33.82,,
Detector Temp (C):,34.57,,
Humidity (%):,1.86,,
Lamp PD:,3819,,
Shift Vector Coefficients:,-10.5391,0.0761263,-0.000134223,,
Pixel to Wavelength Coefficients:,1775.68,-0.916766,-0.000235065,,
Serial Number:,5510004,,
Scan Config Name:,Column 1,,
Scan Config Type:,Slew,,
Section 1,,
Start wavelength (nm):,900,,
End wavelength (nm):,1700,,
Pattern Pixel Width (nm):,   7.03,,,,
Exposure (ms):,  0.635,,,,
Digital Resolution:,228,,
Num Repeats:,6,,
PGA Gain:,64,,
Total Measurement Time in sec:,  2.676,,
Wavelength (nm),Absorbance (AU),Reference Signal (unitless),Sample Signal (unitless)
901.51,0.070257,108485,92281
905.376,0.073973,121306,102308
909.237,0.077900,131909,110249
913.095,0.079468,143299,119337
916.948,0.080000,156982,130572
922.079,0.080985,179937,149326
925.923,0.082326,200504,165881
929.762,0.083966,222660,183517
933.597,0.082637,244426,202074
937.427,0.082192,263972,218457
941.254,0.081294,281845,233731
945.076,0.080932,297271,246729
950.165,0.079685,315605,262699
953.978,0.078717,328029,273650
957.786,0.078566,340470,284127
961.59,0.079206,352317,293581
965.389,0.078938,363056,302716
969.185,0.079655,373162,310629
972.976,0.079628,382632,318532
976.763,0.080331,391202,325140
981.806,0.080219,400190,332696
985.583,0.080931,406088,337046
989.355,0.081572,410162,339925
993.124,0.082120,412868,341736
996.888,0.082797,414263,342357
1000.65,0.082637,415476,343486
1004.4,0.084409,415479,342090
1009.41,0.085339,414358,340437
1013.15,0.086336,412923,338480
1016.89,0.087257,411526,336620
1020.63,0.086232,409066,335399
1024.36,0.086564,406777,333267
1028.09,0.086367,404427,331492
1031.82,0.085913,401911,329774
1036.78,0.085988,398410,326845
1040.49,0.085436,396204,325449
1044.2,0.085310,394236,323926
1047.91,0.085876,392042,321704
1051.61,0.084664,389823,320777
1055.31,0.084226,388234,319792
1059,0.084151,387599,319324
1063.92,0.083755,386688,318864
1067.61,0.082703,386598,319563
1071.29,0.082414,387377,320420
1074.96,0.081758,388536,321865
1078.63,0.081002,389855,323520
1082.3,0.080121,391215,325308
1085.96,0.079648,393215,327327
1090.84,0.078690,396270,330599
1094.49,0.078057,398760,333161
1098.14,0.077496,400987,335455
1101.79,0.077317,403477,337677
1105.43,0.077287,406116,339909
1109.06,0.076053,407701,342207
1112.7,0.075573,409859,344399
1117.53,0.075266,412494,346858
1121.15,0.075797,414909,348462
1124.77,0.076577,416559,349220
1128.38,0.077318,418532,350276
1131.99,0.077669,419956,351184
1135.6,0.079505,421946,351360
1139.2,0.080863,423881,351869
1143.99,0.083270,426786,352322
1147.58,0.083961,428617,353271
1151.17,0.084866,431169,354635
1154.75,0.085788,433579,355861
1158.33,0.087799,436264,356410
1161.91,0.089211,439132,357589
1165.48,0.090834,442389,358897
1169.04,0.092787,446101,360285
1173.79,0.096747,451929,361679
1177.34,0.098645,456026,363366
1180.9,0.100647,461306,365883
1184.44,0.102863,467657,369032
1187.99,0.103323,473969,373617
1191.52,0.103519,479856,378087
1195.06,0.103396,487372,384118
1199.76,0.102534,497347,392758
1203.29,0.101857,504311,398879
1206.81,0.101745,511507,404675
1210.33,0.100927,519078,411439
1213.84,0.100438,527163,418318
1217.35,0.100315,534208,424029
1220.85,0.099110,540472,430193
1225.51,0.098532,549929,438303
1229.01,0.097784,556888,444615
1232.5,0.097350,562180,449289
1235.98,0.096697,567975,454603
1239.46,0.095756,574815,461076
1242.94,0.094899,582782,468390
1246.41,0.094116,591476,476235
1251.03,0.094518,604016,485882
1254.5,0.094751,612289,492272
1257.96,0.094504,619125,498052
1261.41,0.095241,624551,501565
1264.86,0.096081,629900,504883
1268.31,0.096440,634345,508026
1271.75,0.096902,638574,510869
1276.33,0.097138,642499,513729
1279.76,0.097235,645905,516337
1283.19,0.096610,648307,519004
1286.61,0.096429,650446,520934
1290.03,0.096075,652132,522710
1293.44,0.095896,653907,524348
1296.85,0.095371,655963,526633
1301.39,0.094875,657349,528349
1304.8,0.094872,657558,528521
1308.19,0.095109,658515,529001
1311.58,0.095379,658804,528904
1314.97,0.096130,659011,528156
1318.36,0.096300,658272,527358
1321.73,0.096463,658022,526960
1326.23,0.097768,657870,525257
1329.6,0.098705,656482,523019
1332.97,0.099546,654926,520770
1336.33,0.100493,653727,518685
1339.69,0.102197,652497,515682
1343.04,0.103695,649913,511871
1346.39,0.105910,647671,507510
1349.73,0.107556,645338,503769
1354.18,0.110463,641175,497180
1357.52,0.112925,638376,492211
1360.85,0.114336,635805,488639
1364.17,0.116561,633413,484313
1367.49,0.118868,631026,479931
1370.81,0.120735,628050,475619
1374.12,0.123335,625034,470510
1378.54,0.126148,620272,463910
1381.84,0.129350,616892,457993
1385.14,0.132774,613613,451981
1388.43,0.136911,611526,446174
1391.72,0.140934,610663,441436
1395.01,0.145965,610634,436331
1398.29,0.150471,611700,432581
1402.66,0.157732,614051,427044
1405.93,0.163254,616268,423171
1409.2,0.168215,617795,419401
1412.46,0.173017,618872,415512
1415.72,0.177641,619795,411725
1418.98,0.181094,620495,408926
1422.23,0.184972,621087,405677
1426.56,0.188775,621375,402327
1429.8,0.191332,621616,400120
1433.04,0.194267,622129,397753
1436.27,0.196161,621526,395638
1439.5,0.198181,621113,393541
1442.72,0.200271,620921,391530
1445.94,0.203230,620270,388464
1450.23,0.206177,618860,384960
1453.44,0.208350,617697,382319
1456.64,0.211295,616264,378854
1459.85,0.214413,614413,375014
1463.04,0.216673,612307,371789
1466.24,0.220411,610032,367233
1469.43,0.223361,607345,363140
1473.67,0.229635,603789,355836
1476.85,0.234488,601175,350359
1480.02,0.239221,597737,344579
1483.19,0.245807,594479,337543
1486.36,0.251225,591232,331538
1489.52,0.255614,587853,326328
1492.68,0.258433,583875,322023
1496.89,0.260031,578062,317646
1500.03,0.260989,574159,314806
1503.18,0.260491,570285,313041
1506.32,0.260399,565444,310449
1509.45,0.258789,560571,308917
1512.58,0.257961,555821,306884
1515.71,0.254887,550344,306018
1519.87,0.251767,543983,304662
1522.99,0.248716,538764,303866
1526.1,0.247192,533692,302064
1529.21,0.244524,527902,300628
1532.32,0.241391,521886,299354
1535.42,0.238892,515888,297621
1538.51,0.236279,509987,295992
1541.6,0.234154,503936,293915
1545.72,0.228988,494694,291977
1548.8,0.226229,488378,290086
1551.88,0.224400,481832,287406
1554.95,0.221580,474989,285170
1558.02,0.220084,467818,281834
1561.08,0.218587,460730,278522
1564.15,0.218164,454170,274824
1568.22,0.217564,444181,269151
1571.27,0.217078,436947,265064
1574.32,0.215517,429598,261544
1577.36,0.214636,422039,257464
1580.4,0.213619,414375,253381
1583.43,0.212017,406354,249395
1586.46,0.210090,398475,245647
1590.49,0.207586,388982,241181
1593.51,0.205556,380708,237157
1596.53,0.204233,372727,232894
1599.54,0.202470,365060,229031
1602.55,0.200218,357543,225481
1605.55,0.198642,349495,221207
1608.55,0.196457,341154,217017
1612.54,0.193862,330877,211741
1615.53,0.193101,322904,207001
1618.51,0.191212,315116,202889
1621.49,0.191002,307217,197899
1624.47,0.189233,299481,193703
1627.44,0.187926,292112,189506
1630.41,0.187468,284245,184597
1634.36,0.185829,274079,178668
1637.32,0.184833,266916,174398
1640.27,0.184727,259612,169667
1643.22,0.184271,251804,164737
1646.16,0.182929,244348,160354
1649.1,0.181021,236703,156021
1652.04,0.180508,228171,150575
1655.95,0.177173,215408,143248
1658.88,0.174760,204937,137044
1661.8,0.168498,193395,131204
1664.72,0.162942,179728,123502
1667.63,0.148580,163642,116229
1670.54,0.135990,146312,106977
1673.44,0.120370,128451,97357
1677.31,0.099018,105080,83657
1680.21,0.088743,88906,72475
1683.1,0.083856,75033,61858
1685.99,0.086498,63520,52049
1688.87,0.089775,53714,43683
1691.75,0.094153,45653,36755
1694.62,0.096295,39137,31354
1697.49,0.110788,33776,26171
1701.31,0.120690,28175,21339

File: Column 1_050589_20150331_121813.csv
Method:,Column 1,,
Host Date-Time:,31/3/15 @ 12:18:13,,
Header Version:,1,,
System Temp (C):,33.83,,
Detector Temp (C):,34.54,,
Humidity (%):,1.86,,
Lamp PD:,3819,,
Shift Vector Coefficients:,-10.5391,0.0761263,-0.000134223,,
Pixel to Wavelength Coefficients:,1775.68,-0.916766,-0.000235065,,
Serial Number:,5510004,,
Scan Config Name:,Column 1,,
Scan Config Type:,Slew,,
Section 1,,
Start wavelength (nm):,900,,
End wavelength (nm):,1700,,
Pattern Pixel Width (nm):,   7.03,,,,
Exposure (ms):,  0.635,,,,
Digital Resolution:,228,,
Num Repeats:,6,,
PGA Gain:,64,,
Total Measurement Time in sec:,  2.723,,
Wavelength (nm),Absorbance (AU),Reference Signal (unitless),Sample Signal (unitless)
901.51,0.069054,108485,92537
905.376,0.075653,121306,101913
909.237,0.078057,131909,110209
913.095,0.078970,143299,119474
916.948,0.079159,156982,130825
922.079,0.082372,179937,148850
925.923,0.082038,200504,165991
929.762,0.083072,222660,183895
933.597,0.082422,244426,202174
937.427,0.081052,263972,219031
941.254,0.081571,281845,233582
945.076,0.080202,297271,247144
950.165,0.079046,315605,263086
953.978,0.078512,328029,273779
957.786,0.079270,340470,283667
961.59,0.079425,352317,293433
965.389,0.078925,363056,302725
969.185,0.079383,373162,310824
972.976,0.079913,382632,318323
976.763,0.080018,391202,325374
981.806,0.080334,400190,332608
985.583,0.081341,406088,336728
989.355,0.081265,410162,340166
993.124,0.081612,412868,342136
996.888,0.082512,414263,342582
1000.65,0.083121,415476,343103
1004.4,0.084489,415479,342027
1009.41,0.085778,414358,340093
1013.15,0.085981,412923,338757
1016.89,0.086483,411526,337221
1020.63,0.086142,409066,335468
1024.36,0.086391,406777,333400
1028.09,0.086236,404427,331592
1031.82,0.086365,401911,329431
1036.78,0.085512,398410,327204
1040.49,0.085784,396204,325188
1044.2,0.085333,394236,323909
1047.91,0.085277,392042,322148
1051.61,0.084732,389823,320727
1055.31,0.084613,388234,319507
1059,0.084245,387599,319255
1063.92,0.082825,386688,319548
1067.61,0.082213,386598,319924
1071.29,0.082206,387377,320574
1074.96,0.081770,388536,321856
1078.63,0.081221,389855,323357
1082.3,0.080754,391215,324834
1085.96,0.079655,393215,327322
1090.84,0.078800,396270,330515
1094.49,0.077543,398760,333556
1098.14,0.077588,400987,335384
1101.79,0.077348,403477,337653
1105.43,0.077296,406116,339902
1109.06,0.076264,407701,342041
1112.7,0.075892,409859,344146
1117.53,0.075717,412494,346498
1121.15,0.075900,414909,348380
1124.77,0.076411,416559,349354
1128.38,0.076792,418532,350701
1131.99,0.077954,419956,350954
1135.6,0.079351,421946,351484
1139.2,0.080827,423881,351898
1143.99,0.083067,426786,352487
1147.58,0.083650,428617,353524
1151.17,0.085003,431169,354523
1154.75,0.085329,433579,356237
1158.33,0.087419,436264,356722
1161.91,0.089192,439132,357605
1165.48,0.091126,442389,358656
1169.04,0.093550,446101,359653
1173.79,0.096472,451929,361908
1177.34,0.098596,456026,363407
1180.9,0.100624,461306,365902
1184.44,0.102934,467657,368972
1187.99,0.103180,473969,373740
1191.52,0.103424,479856,378170
1195.06,0.103161,487372,384326
1199.76,0.102591,497347,392707
1203.29,0.102328,504311,398447
1206.81,0.101447,511507,404953
1210.33,0.101045,519078,411327
1213.84,0.100678,527163,418087
1217.35,0.100221,534208,424121
1220.85,0.099009,540472,430293
1225.51,0.098438,549929,438398
1229.01,0.097643,556888,444759
1232.5,0.097503,562180,449130
1235.98,0.096799,567975,454496
1239.46,0.095493,574815,461355
1242.94,0.094877,582782,468413
1246.41,0.094083,591476,476271
1251.03,0.094161,604016,486281
1254.5,0.093992,612289,493134
1257.96,0.094276,619125,498313
1261.41,0.095354,624551,501434
1264.86,0.095553,629900,505497
1268.31,0.095906,634345,508650
1271.75,0.096771,638574,511023
1276.33,0.097006,642499,513886
1279.76,0.097089,645905,516511
1283.19,0.096268,648307,519413
1286.61,0.095891,650446,521579
1290.03,0.095890,652132,522932
1293.44,0.095567,653907,524746
1296.85,0.094981,655963,527107
1301.39,0.095077,657349,528104
1304.8,0.095350,657558,527939
1308.19,0.094835,658515,529335
1311.58,0.095016,658804,529347
1314.97,0.095611,659011,528788
1318.36,0.096233,658272,527439
1321.73,0.096574,658022,526825
1326.23,0.097321,657870,525798
1329.6,0.098154,656482,523684
1332.97,0.099172,654926,521219
1336.33,0.100494,653727,518684
1339.69,0.102051,652497,515855
1343.04,0.103526,649913,512070
1346.39,0.105298,647671,508226
1349.73,0.107669,645338,503638
1354.18,0.110683,641175,496928
1357.52,0.112725,638376,492438
1360.85,0.114573,635805,488372
1364.17,0.116465,633413,484420
1367.49,0.118893,631026,479904
1370.81,0.120716,628050,475640
1374.12,0.122941,625034,470937
1378.54,0.125795,620272,464288
1381.84,0.128736,616892,458641
1385.14,0.132939,613613,451810
1388.43,0.136608,611526,446485
1391.72,0.141489,610663,440872
1395.01,0.145676,610634,436621
1398.29,0.150385,611700,432667
1402.66,0.157813,614051,426964
1405.93,0.162918,616268,423498
1409.2,0.168258,617795,419359
1412.46,0.173208,618872,415330
1415.72,0.177297,619795,412051
1418.98,0.181011,620495,409004
1422.23,0.184639,621087,405988
1426.56,0.188263,621375,402801
1429.8,0.191464,621616,399998
1433.04,0.193817,622129,398165
1436.27,0.196335,621526,395480
1439.5,0.198084,621113,393629
1442.72,0.200185,620921,391608
1445.94,0.203115,620270,388567
1450.23,0.206263,618860,384884
1453.44,0.208763,617697,381955
1456.64,0.211309,616264,378842
1459.85,0.214231,614413,375171
1463.04,0.216682,612307,371781
1466.24,0.219870,610032,367691
1469.43,0.223358,607345,363143
1473.67,0.229052,603789,356314
1476.85,0.234362,601175,350460
1480.02,0.239549,597737,344319
1483.19,0.245605,594479,337700
1486.36,0.250980,591232,331725
1489.52,0.255190,587853,326647
1492.68,0.258603,583875,321897
1496.89,0.260171,578062,317544
1500.03,0.260730,574159,314994
1503.18,0.260507,570285,313029
1506.32,0.260078,565444,310679
1509.45,0.259260,560571,308582
1512.58,0.257408,555821,307275
1515.71,0.254726,550344,306132
1519.87,0.252418,543983,304206
1522.99,0.250184,538764,302841
1526.1,0.247649,533692,301746
1529.21,0.244690,527902,300513
1532.32,0.241534,521886,299255
1535.42,0.238809,515888,297678
1538.51,0.235280,509987,296674
1541.6,0.232708,503936,294895
1545.72,0.229171,494694,291854
1548.8,0.225166,488378,290797
1551.88,0.223175,481832,288218
1554.95,0.221449,474989,285256
1558.02,0.220167,467818,281780
1561.08,0.219464,460730,277960
1564.15,0.217999,454170,274928
1568.22,0.217866,444181,268964
1571.27,0.216439,436947,265454
1574.32,0.215868,429598,261333
1577.36,0.214312,422039,257656
1580.4,0.213029,414375,253726
1583.43,0.212228,406354,249274
1586.46,0.209669,398475,245885
1590.49,0.208028,388982,240936
1593.51,0.206179,380708,236817
1596.53,0.204063,372727,232985
1599.54,0.202201,365060,229173
1602.55,0.200396,357543,225389
1605.55,0.198312,349495,221375
1608.55,0.196751,341154,216870
1612.54,0.194753,330877,211307
1615.53,0.192137,322904,207461
1618.51,0.190359,315116,203288
1621.49,0.189799,307217,198448
1624.47,0.188498,299481,194031
1627.44,0.188089,292112,189435
1630.41,0.186502,284245,185008
1634.36,0.185513,274079,178798
1637.32,0.185526,266916,174120
1640.27,0.184500,259612,169756
1643.22,0.183281,251804,165113
1646.16,0.183194,244348,160256
1649.1,0.181815,236703,155736
1652.04,0.180046,228171,150735
1655.95,0.176598,215408,143438
1658.88,0.174497,204937,137127
1661.8,0.167896,193395,131386
1664.72,0.160089,179728,124316
1667.63,0.148438,163642,116267
1670.54,0.134988,146312,107224
1673.44,0.119070,128451,97649
1677.31,0.101621,105080,83157
1680.21,0.089739,88906,72309
1683.1,0.086045,75033,61547
1685.99,0.081446,63520,52658
1688.87,0.088683,53714,43793
1691.75,0.091021,45653,37021
1694.62,0.101338,39137,30992
1697.49,0.095335,33776,27119
1701.31,0.108964,28175,21923