Folder: textile_sorting_NIRSCAN_/samples/wool/wool-000811 (part 59)

File: Column 1_050563_20150331_120550.csv
Method:,Column 1,,
Host Date-Time:,31/3/15 @ 12:5:50,,
Header Version:,1,,
System Temp (C):,33.8,,
Detector Temp (C):,33.4,,
Humidity (%):,1.95,,
Lamp PD:,3819,,
Shift Vector Coefficients:,-10.5391,0.0761263,-0.000134223,,
Pixel to Wavelength Coefficients:,1775.68,-0.916766,-0.000235065,,
Serial Number:,5510004,,
Scan Config Name:,Column 1,,
Scan Config Type:,Slew,,
Section 1,,
Start wavelength (nm):,900,,
End wavelength (nm):,1700,,
Pattern Pixel Width (nm):,   7.03,,,,
Exposure (ms):,  0.635,,,,
Digital Resolution:,228,,
Num Repeats:,6,,
PGA Gain:,64,,
Total Measurement Time in sec:,  2.732,,
Wavelength (nm),Absorbance (AU),Reference Signal (unitless),Sample Signal (unitless)
901.51,0.033701,108485,100385
905.376,0.041772,121306,110182
909.237,0.041785,131909,119809
913.095,0.042778,143299,129857
916.948,0.044330,156982,141749
922.079,0.046134,179937,161803
925.923,0.046202,200504,180269
929.762,0.047349,222660,199661
933.597,0.048285,244426,218707
937.427,0.046674,263972,237074
941.254,0.046855,281845,253020
945.076,0.046584,297271,267035
950.165,0.045668,315605,284103
953.978,0.045905,328029,295126
957.786,0.046011,340470,306244
961.59,0.046473,352317,316563
965.389,0.046033,363056,326543
969.185,0.046742,373162,335085
972.976,0.047004,382632,343382
976.763,0.047583,391202,350605
981.806,0.047809,400190,358474
985.583,0.048772,406088,362951
989.355,0.049190,410162,366240
993.124,0.049567,412868,368336
996.888,0.050396,414263,368876
1000.65,0.051261,415476,369220
1004.4,0.052145,415479,368472
1009.41,0.053891,414358,366003
1013.15,0.054223,412923,364457
1016.89,0.054793,411526,362747
1020.63,0.054647,409066,360700
1024.36,0.054782,406777,358570
1028.09,0.054062,404427,357090
1031.82,0.054434,401911,354565
1036.78,0.053749,398410,352031
1040.49,0.052625,396204,350989
1044.2,0.053473,394236,348565
1047.91,0.052664,392042,347271
1051.61,0.052060,389823,345786
1055.31,0.051252,388234,345018
1059,0.051410,387599,344328
1063.92,0.050184,386688,344490
1067.61,0.049653,386598,344831
1071.29,0.048041,387377,346811
1074.96,0.048209,388536,347714
1078.63,0.047086,389855,349798
1082.3,0.046740,391215,351298
1085.96,0.046231,393215,353508
1090.84,0.045591,396270,356780
1094.49,0.045627,398760,358992
1098.14,0.045259,400987,361303
1101.79,0.044314,403477,364338
1105.43,0.044766,406116,366340
1109.06,0.044528,407701,367971
1112.7,0.043700,409859,370625
1117.53,0.044073,412494,372687
1121.15,0.044849,414909,374200
1124.77,0.045058,416559,375507
1128.38,0.046813,418532,375764
1131.99,0.048374,419956,375690
1135.6,0.049909,421946,376139
1139.2,0.051443,423881,376531
1143.99,0.054198,426786,376714
1147.58,0.055436,428617,377254
1151.17,0.056613,431169,378473
1154.75,0.057572,433579,379749
1158.33,0.059657,436264,380270
1161.91,0.061195,439132,381417
1165.48,0.063672,442389,382061
1169.04,0.066027,446101,383183
1173.79,0.069878,451929,384762
1177.34,0.072536,456026,385881
1180.9,0.074924,461306,388209
1184.44,0.076476,467657,392149
1187.99,0.077370,473969,396625
1191.52,0.077314,479856,401603
1195.06,0.077135,487372,408061
1199.76,0.076535,497347,416989
1203.29,0.074913,504311,424410
1206.81,0.074924,511507,430455
1210.33,0.073382,519078,438380
1213.84,0.072731,527163,445876
1217.35,0.072033,534208,452561
1220.85,0.071375,540472,458562
1225.51,0.070132,549929,467923
1229.01,0.069302,556888,474751
1232.5,0.069030,562180,479563
1235.98,0.068081,567975,485566
1239.46,0.067496,574815,492076
1242.94,0.066320,582782,500249
1246.41,0.065822,591476,508294
1251.03,0.065879,604016,519002
1254.5,0.065733,612289,526288
1257.96,0.066221,619125,531566
1261.41,0.067040,624551,535214
1264.86,0.067518,629900,539205
1268.31,0.068144,634345,542227
1271.75,0.068820,638574,544994
1276.33,0.069174,642499,547897
1279.76,0.069405,645905,550508
1283.19,0.068400,648307,553835
1286.61,0.068083,650446,556069
1290.03,0.067969,652132,557656
1293.44,0.067362,653907,559956
1296.85,0.066989,655963,562200
1301.39,0.066803,657349,563628
1304.8,0.066842,657558,563757
1308.19,0.067173,658515,564148
1311.58,0.067264,658804,564277
1314.97,0.068117,659011,563346
1318.36,0.068711,658272,561946
1321.73,0.068800,658022,561617
1326.23,0.069665,657870,560370
1329.6,0.070600,656482,557986
1332.97,0.071701,654926,555253
1336.33,0.072819,653727,552812
1339.69,0.074335,652497,549849
1343.04,0.076448,649913,545014
1346.39,0.078579,647671,540475
1349.73,0.080875,645338,535688
1354.18,0.084052,641175,528354
1357.52,0.085783,638376,523954
1360.85,0.088234,635805,518908
1364.17,0.090707,633413,514020
1367.49,0.093140,631026,509222
1370.81,0.095313,628050,504291
1374.12,0.098181,625034,498566
1378.54,0.101017,620272,491547
1381.84,0.104916,616892,484499
1385.14,0.108963,613613,477454
1388.43,0.112997,611526,471431
1391.72,0.117947,610663,465430
1395.01,0.123298,610634,459709
1398.29,0.128238,611700,455303
1402.66,0.135483,614051,449491
1405.93,0.141275,616268,445138
1409.2,0.147751,617795,439636
1412.46,0.152279,618872,435835
1415.72,0.157257,619795,431510
1418.98,0.161075,620495,428216
1422.23,0.165003,621087,424766
1426.56,0.169373,621375,420708
1429.8,0.172363,621616,417984
1433.04,0.174646,622129,416135
1436.27,0.177548,621526,412963
1439.5,0.179831,621113,410525
1442.72,0.182271,620921,408099
1445.94,0.184552,620270,405535
1450.23,0.188067,618860,401352
1453.44,0.190943,617697,397954
1456.64,0.194172,616264,394089
1459.85,0.197468,614413,389935
1463.04,0.199566,612307,386726
1466.24,0.203105,610032,382162
1469.43,0.206439,607345,377569
1473.67,0.212581,603789,370087
1476.85,0.218277,601175,363684
1480.02,0.224267,597737,356651
1483.19,0.231167,594479,349116
1486.36,0.237329,591232,342317
1489.52,0.242116,587853,336630
1492.68,0.245622,583875,331664
1496.89,0.247679,578062,326810
1500.03,0.248237,574159,324187
1503.18,0.248112,570285,322092
1506.32,0.247980,565444,319455
1509.45,0.246968,560571,317441
1512.58,0.245013,555821,316171
1515.71,0.242120,550344,315148
1519.87,0.239050,543983,313715
1522.99,0.236099,538764,312824
1526.1,0.234077,533692,311325
1529.21,0.231150,527902,310030
1532.32,0.227797,521886,308872
1535.42,0.225433,515888,306989
1538.51,0.221751,509987,306061
1541.6,0.218387,503936,304781
1545.72,0.213883,494694,302311
1548.8,0.210080,488378,301076
1551.88,0.208459,481832,298151
1554.95,0.206797,474989,295044
1558.02,0.203972,467818,292486
1561.08,0.202738,460730,288874
1564.15,0.202177,454170,285129
1568.22,0.201268,444181,279442
1571.27,0.200719,436947,275239
1574.32,0.200204,429598,270931
1577.36,0.197166,422039,268032
1580.4,0.196921,414375,263313
1583.43,0.195283,406354,259192
1586.46,0.193747,398475,255067
1590.49,0.191710,388982,250161
1593.51,0.188907,380708,246425
1596.53,0.186593,372727,242548
1599.54,0.184807,365060,238538
1602.55,0.181354,357543,235491
1605.55,0.178959,349495,231463
1608.55,0.177572,341154,226662
1612.54,0.175235,330877,221020
1615.53,0.173471,322904,216572
1618.51,0.172169,315116,211983
1621.49,0.171496,307217,206990
1624.47,0.169269,299481,202815
1627.44,0.168818,292112,198030
1630.41,0.168023,284245,193050
1634.36,0.166092,274079,186975
1637.32,0.165347,266916,182401
1640.27,0.165281,259612,177437
1643.22,0.162650,251804,173146
1646.16,0.162578,244348,168047
1649.1,0.161356,236703,163248
1652.04,0.159895,228171,157894
1655.95,0.157341,215408,149941
1658.88,0.155041,204937,143410
1661.8,0.150235,193395,136839
1664.72,0.144612,179728,128826
1667.63,0.133857,163642,120237
1670.54,0.124385,146312,109874
1673.44,0.110731,128451,99542
1677.31,0.098623,105080,83733
1680.21,0.087947,88906,72608
1683.1,0.087834,75033,61294
1685.99,0.087760,63520,51898
1688.87,0.094132,53714,43247
1691.75,0.097927,45653,36437
1694.62,0.106540,39137,30623
1697.49,0.103792,33776,26596
1701.31,0.114366,28175,21652

File: Column 1_050563_20150331_120553.csv
Method:,Column 1,,
Host Date-Time:,31/3/15 @ 12:5:53,,
Header Version:,1,,
System Temp (C):,33.79,,
Detector Temp (C):,33.45,,
Humidity (%):,2,,
Lamp PD:,3819,,
Shift Vector Coefficients:,-10.5391,0.0761263,-0.000134223,,
Pixel to Wavelength Coefficients:,1775.68,-0.916766,-0.000235065,,
Serial Number:,5510004,,
Scan Config Name:,Column 1,,
Scan Config Type:,Slew,,
Section 1,,
Start wavelength (nm):,900,,
End wavelength (nm):,1700,,
Pattern Pixel Width (nm):,   7.03,,,,
Exposure (ms):,  0.635,,,,
Digital Resolution:,228,,
Num Repeats:,6,,
PGA Gain:,64,,
Total Measurement Time in sec:,  2.666,,
Wavelength (nm),Absorbance (AU),Reference Signal (unitless),Sample Signal (unitless)
901.51,0.032513,108485,100660
905.376,0.038939,121306,110903
909.237,0.042881,131909,119507
913.095,0.042958,143299,129803
916.948,0.043075,156982,142159
922.079,0.043672,179937,162723
925.923,0.046043,200504,180335
929.762,0.047479,222660,199601
933.597,0.047041,244426,219334
937.427,0.046800,263972,237005
941.254,0.046946,281845,252967
945.076,0.046570,297271,267044
950.165,0.045763,315605,284041
953.978,0.045280,328029,295551
957.786,0.045986,340470,306262
961.59,0.045818,352317,317041
965.389,0.046112,363056,326484
969.185,0.046987,373162,334896
972.976,0.046975,382632,343405
976.763,0.047334,391202,350806
981.806,0.048045,400190,358279
985.583,0.049198,406088,362595
989.355,0.048929,410162,366460
993.124,0.049719,412868,368207
996.888,0.050006,414263,369207
1000.65,0.051305,415476,369182
1004.4,0.051824,415479,368744
1009.41,0.054118,414358,365812
1013.15,0.054139,412923,364527
1016.89,0.054082,411526,363342
1020.63,0.054864,409066,360520
1024.36,0.054287,406777,358979
1028.09,0.054194,404427,356982
1031.82,0.053688,401911,355175
1036.78,0.053789,398410,351999
1040.49,0.053192,396204,350531
1044.2,0.053221,394236,348767
1047.91,0.052708,392042,347236
1051.61,0.051747,389823,346035
1055.31,0.051869,388234,344528
1059,0.051540,387599,344225
1063.92,0.049917,386688,344702
1067.61,0.049043,386598,345316
1071.29,0.048064,387377,346793
1074.96,0.048230,388536,347697
1078.63,0.047886,389855,349154
1082.3,0.046204,391215,351732
1085.96,0.046081,393215,353630
1090.84,0.045304,396270,357016
1094.49,0.044772,398760,359699
1098.14,0.044855,400987,361639
1101.79,0.044719,403477,363999
1105.43,0.044519,406116,366548
1109.06,0.043720,407701,368656
1112.7,0.043779,409859,370557
1117.53,0.043563,412494,373125
1121.15,0.044831,414909,374216
1124.77,0.045417,416559,375197
1128.38,0.046294,418532,376214
1131.99,0.047987,419956,376025
1135.6,0.049584,421946,376420
1139.2,0.050979,423881,376934
1143.99,0.053528,426786,377296
1147.58,0.055109,428617,377538
1151.17,0.056310,431169,378737
1154.75,0.057380,433579,379917
1158.33,0.059246,436264,380630
1161.91,0.061161,439132,381447
1165.48,0.063476,442389,382233
1169.04,0.066126,446101,383096
1173.79,0.070145,451929,384526
1177.34,0.072532,456026,385885
1180.9,0.074408,461306,388670
1184.44,0.076794,467657,391862
1187.99,0.077338,473969,396654
1191.52,0.077182,479856,401725
1195.06,0.076632,487372,408534
1199.76,0.076245,497347,417267
1203.29,0.074931,504311,424392
1206.81,0.074306,511507,431068
1210.33,0.073707,519078,438052
1213.84,0.072534,527163,446078
1217.35,0.071551,534208,453064
1220.85,0.071770,540472,458145
1225.51,0.070242,549929,467805
1229.01,0.069435,556888,474606
1232.5,0.069003,562180,479593
1235.98,0.068450,567975,485154
1239.46,0.067060,574815,492570
1242.94,0.066721,582782,499787
1246.41,0.065486,591476,508688
1251.03,0.065735,604016,519175
1254.5,0.065635,612289,526407
1257.96,0.066010,619125,531825
1261.41,0.066560,624551,535807
1264.86,0.067342,629900,539423
1268.31,0.067992,634345,542417
1271.75,0.068718,638574,545121
1276.33,0.068853,642499,548302
1279.76,0.068983,645905,551043
1283.19,0.068467,648307,553750
1286.61,0.067947,650446,556243
1290.03,0.067961,652132,557667
1293.44,0.067340,653907,559985
1296.85,0.067122,655963,562027
1301.39,0.066872,657349,563539
1304.8,0.066878,657558,563710
1308.19,0.067048,658515,564310
1311.58,0.067000,658804,564620
1314.97,0.067831,659011,563718
1318.36,0.068300,658272,562478
1321.73,0.068618,658022,561852
1326.23,0.069917,657870,560045
1329.6,0.070473,656482,558149
1332.97,0.071679,654926,555282
1336.33,0.072925,653727,552677
1339.69,0.074405,652497,549761
1343.04,0.076416,649913,545054
1346.39,0.078490,647671,540586
1349.73,0.080752,645338,535840
1354.18,0.083867,641175,528578
1357.52,0.086355,638376,523265
1360.85,0.088301,635805,518827
1364.17,0.090446,633413,514329
1367.49,0.092710,631026,509726
1370.81,0.095436,628050,504148
1374.12,0.097900,625034,498889
1378.54,0.101255,620272,491278
1381.84,0.105080,616892,484316
1385.14,0.108988,613613,477426
1388.43,0.113322,611526,471078
1391.72,0.117965,610663,465411
1395.01,0.122954,610634,460073
1398.29,0.128376,611700,455158
1402.66,0.135959,614051,448999
1405.93,0.141508,616268,444899
1409.2,0.147286,617795,440107
1412.46,0.152903,618872,435209
1415.72,0.157011,619795,431755
1418.98,0.161136,620495,428156
1422.23,0.165414,621087,424364
1426.56,0.169210,621375,420866
1429.8,0.172195,621616,418145
1433.04,0.175132,622129,415670
1436.27,0.177553,621526,412958
1439.5,0.178921,621113,411386
1442.72,0.182241,620921,408127
1445.94,0.184822,620270,405283
1450.23,0.188393,618860,401051
1453.44,0.190852,617697,398037
1456.64,0.193819,616264,394410
1459.85,0.196901,614413,390445
1463.04,0.199750,612307,386562
1466.24,0.203081,610032,382183
1469.43,0.206456,607345,377554
1473.67,0.212256,603789,370364
1476.85,0.218525,601175,363476
1480.02,0.224685,597737,356308
1483.19,0.230878,594479,349348
1486.36,0.237009,591232,342570
1489.52,0.241794,587853,336880
1492.68,0.245347,583875,331874
1496.89,0.247585,578062,326881
1500.03,0.248726,574159,323822
1503.18,0.248737,570285,321629
1506.32,0.248869,565444,318802
1509.45,0.246813,560571,317554
1512.58,0.245387,555821,315899
1515.71,0.242612,550344,314791
1519.87,0.239126,543983,313660
1522.99,0.236875,538764,312265
1526.1,0.234444,533692,311062
1529.21,0.231039,527902,310109
1532.32,0.227842,521886,308840
1535.42,0.223896,515888,308077
1538.51,0.221598,509987,306169
1541.6,0.219206,503936,304207
1545.72,0.213593,494694,302513
1548.8,0.210446,488378,300822
1551.88,0.208221,481832,298315
1554.95,0.205483,474989,295938
1558.02,0.204217,467818,292321
1561.08,0.203222,460730,288552
1564.15,0.202747,454170,284755
1568.22,0.201026,444181,279598
1571.27,0.200090,436947,275638
1574.32,0.199113,429598,271612
1577.36,0.197875,422039,267595
1580.4,0.196362,414375,263652
1583.43,0.194008,406354,259954
1586.46,0.192628,398475,255725
1590.49,0.190792,388982,250690
1593.51,0.188703,380708,246541
1596.53,0.186428,372727,242640
1599.54,0.184197,365060,238873
1602.55,0.181717,357543,235294
1605.55,0.180719,349495,230527
1608.55,0.177965,341154,226457
1612.54,0.175288,330877,220993
1615.53,0.173293,322904,216661
1618.51,0.171770,315116,212178
1621.49,0.171221,307217,207121
1624.47,0.169333,299481,202785
1627.44,0.167852,292112,198471
1630.41,0.167733,284245,193179
1634.36,0.165893,274079,187061
1637.32,0.165000,266916,182547
1640.27,0.162908,259612,178409
1643.22,0.163145,251804,172949
1646.16,0.161468,244348,168477
1649.1,0.161066,236703,163357
1652.04,0.159867,228171,157904
1655.95,0.158107,215408,149677
1658.88,0.155295,204937,143326
1661.8,0.150280,193395,136825
1664.72,0.144343,179728,128906
1667.63,0.134240,163642,120131
1670.54,0.123106,146312,110198
1673.44,0.110055,128451,99697
1677.31,0.096905,105080,84065
1680.21,0.088713,88906,72480
1683.1,0.087056,75033,61404
1685.99,0.087559,63520,51922
1688.87,0.093620,53714,43298
1691.75,0.101782,45653,36115
1694.62,0.104700,39137,30753
1697.49,0.106396,33776,26437
1701.31,0.105138,28175,22117

File: Column 1_050563_20150331_120559.csv
Method:,Column 1,,
Host Date-Time:,31/3/15 @ 12:5:59,,
Header Version:,1,,
System Temp (C):,33.79,,
Detector Temp (C):,33.5,,
Humidity (%):,1.95,,
Lamp PD:,3819,,
Shift Vector Coefficients:,-10.5391,0.0761263,-0.000134223,,
Pixel to Wavelength Coefficients:,1775.68,-0.916766,-0.000235065,,
Serial Number:,5510004,,
Scan Config Name:,Column 1,,
Scan Config Type:,Slew,,
Section 1,,
Start wavelength (nm):,900,,
End wavelength (nm):,1700,,
Pattern Pixel Width (nm):,   7.03,,,,
Exposure (ms):,  0.635,,,,
Digital Resolution:,228,,
Num Repeats:,6,,
PGA Gain:,64,,
Total Measurement Time in sec:,  2.732,,
Wavelength (nm),Absorbance (AU),Reference Signal (unitless),Sample Signal (unitless)
901.51,0.033727,108485,100379
905.376,0.040638,121306,110470
909.237,0.043343,131909,119380
913.095,0.041909,143299,130117
916.948,0.044217,156982,141786
922.079,0.046000,179937,161853
925.923,0.045268,200504,180657
929.762,0.047171,222660,199743
933.597,0.048394,244426,218652
937.427,0.046830,263972,236989
941.254,0.046945,281845,252968
945.076,0.045611,297271,267634
950.165,0.045578,315605,284162
953.978,0.045343,328029,295508
957.786,0.045753,340470,306426
961.59,0.046116,352317,316824
965.389,0.045995,363056,326572
969.185,0.046371,373162,335372
972.976,0.047040,382632,343353
976.763,0.047433,391202,350726
981.806,0.047200,400190,358977
985.583,0.048647,406088,363056
989.355,0.048789,410162,366578
993.124,0.049638,412868,368276
996.888,0.050366,414263,368901
1000.65,0.051127,415476,369334
1004.4,0.052109,415479,368502
1009.41,0.053581,414358,366264
1013.15,0.054006,412923,364639
1016.89,0.054534,411526,362964
1020.63,0.054658,409066,360691
1024.36,0.054781,406777,358571
1028.09,0.053737,404427,357358
1031.82,0.053826,401911,355062
1036.78,0.053441,398410,352281
1040.49,0.053268,396204,350470
1044.2,0.053086,394236,348875
1047.91,0.052189,392042,347651
1051.61,0.051953,389823,345871
1055.31,0.051089,388234,345147
1059,0.050572,387599,344993
1063.92,0.050188,386688,344487
1067.61,0.049078,386598,345288
1071.29,0.048740,387377,346253
1074.96,0.047796,388536,348045
1078.63,0.047246,389855,349669
1082.3,0.046391,391215,351580
1085.96,0.046075,393215,353635
1090.84,0.046017,396270,356430
1094.49,0.044992,398760,359517
1098.14,0.044658,400987,361803
1101.79,0.044505,403477,364178
1105.43,0.044368,406116,366676
1109.06,0.043890,407701,368512
1112.7,0.043594,409859,370715
1117.53,0.043994,412494,372755
1121.15,0.044725,414909,374307
1124.77,0.045139,416559,375437
1128.38,0.046057,418532,376419
1131.99,0.047897,419956,376103
1135.6,0.050015,421946,376047
1139.2,0.051737,423881,376276
1143.99,0.054060,426786,376834
1147.58,0.055059,428617,377581
1151.17,0.056101,431169,378919
1154.75,0.057519,433579,379795
1158.33,0.059281,436264,380600
1161.91,0.061000,439132,381588
1165.48,0.063796,442389,381952
1169.04,0.066890,446101,382422
1173.79,0.070256,451929,384427
1177.34,0.072257,456026,386129
1180.9,0.074544,461306,388548
1184.44,0.076589,467657,392047
1187.99,0.077460,473969,396543
1191.52,0.077005,479856,401889
1195.06,0.076828,487372,408350
1199.76,0.075632,497347,417857
1203.29,0.074875,504311,424447
1206.81,0.074157,511507,431216
1210.33,0.072999,519078,438767
1213.84,0.072792,527163,445813
1217.35,0.072263,534208,452322
1220.85,0.071174,540472,458774
1225.51,0.070154,549929,467900
1229.01,0.069856,556888,474146
1232.5,0.069248,562180,479322
1235.98,0.068215,567975,485416
1239.46,0.067187,574815,492426
1242.94,0.066432,582782,500120
1246.41,0.065784,591476,508339
1251.03,0.065537,604016,519411
1254.5,0.065680,612289,526352
1257.96,0.066093,619125,531723
1261.41,0.066753,624551,535568
1264.86,0.067189,629900,539613
1268.31,0.067911,634345,542518
1271.75,0.068541,638574,545343
1276.33,0.069061,642499,548039
1279.76,0.069118,645905,550872
1283.19,0.068618,648307,553557
1286.61,0.068558,650446,555461
1290.03,0.067483,652132,558280
1293.44,0.067033,653907,560380
1296.85,0.066943,655963,562259
1301.39,0.067013,657349,563356
1304.8,0.066920,657558,563656
1308.19,0.067219,658515,564088
1311.58,0.067196,658804,564365
1314.97,0.067870,659011,563667
1318.36,0.068176,658272,562639
1321.73,0.068257,658022,562320
1326.23,0.069450,657870,560648
1329.6,0.070141,656482,558576
1332.97,0.071797,654926,555131
1336.33,0.072626,653727,553058
1339.69,0.074625,652497,549482
1343.04,0.076269,649913,545238
1346.39,0.078498,647671,540576
1349.73,0.080399,645338,536276
1354.18,0.084028,641175,528383
1357.52,0.086340,638376,523283
1360.85,0.088530,635805,518554
1364.17,0.090494,633413,514272
1367.49,0.092595,631026,509861
1370.81,0.095491,628050,504084
1374.12,0.097741,625034,499071
1378.54,0.101168,620272,491376
1381.84,0.104749,616892,484686
1385.14,0.108439,613613,478030
1388.43,0.113287,611526,471116
1391.72,0.118016,610663,465356
1395.01,0.122881,610634,460151
1398.29,0.128717,611700,454801
1402.66,0.135474,614051,449501
1405.93,0.141143,616268,445273
1409.2,0.146524,617795,440880
1412.46,0.152418,618872,435695
1415.72,0.157133,619795,431633
1418.98,0.160932,620495,428357
1422.23,0.164443,621087,425314
1426.56,0.169153,621375,420921
1429.8,0.171934,621616,418397
1433.04,0.175008,622129,415788
1436.27,0.176737,621526,413735
1439.5,0.179232,621113,411092
1442.72,0.181858,620921,408487
1445.94,0.184164,620270,405898
1450.23,0.187980,618860,401432
1453.44,0.190747,617697,398133
1456.64,0.193920,616264,394318
1459.85,0.196987,614413,390367
1463.04,0.199466,612307,386815
1466.24,0.202936,610032,382311
1469.43,0.206676,607345,377363
1473.67,0.212120,603789,370480
1476.85,0.217950,601175,363958
1480.02,0.223478,597737,357299
1483.19,0.230275,594479,349834
1486.36,0.236940,591232,342624
1489.52,0.241582,587853,337044
1492.68,0.245351,583875,331871
1496.89,0.247690,578062,326802
1500.03,0.248601,574159,323915
1503.18,0.248264,570285,321979
1506.32,0.247734,565444,319636
1509.45,0.245914,560571,318212
1512.58,0.244346,555821,316657
1515.71,0.242457,550344,314903
1519.87,0.238992,543983,313757
1522.99,0.236344,538764,312647
1526.1,0.233533,533692,311715
1529.21,0.230692,527902,310357
1532.32,0.227616,521886,309001
1535.42,0.224465,515888,307674
1538.51,0.221696,509987,306100
1541.6,0.218647,503936,304599
1545.72,0.213330,494694,302696
1548.8,0.210871,488378,300528
1551.88,0.207896,481832,298538
1554.95,0.205876,474989,295670
1558.02,0.204663,467818,292021
1561.08,0.202991,460730,288706
1564.15,0.202061,454170,285205
1568.22,0.201073,444181,279568
1571.27,0.200414,436947,275432
1574.32,0.199392,429598,271438
1577.36,0.198287,422039,267341
1580.4,0.195900,414375,263933
1583.43,0.194346,406354,259752
1586.46,0.192839,398475,255601
1590.49,0.191058,388982,250537
1593.51,0.188217,380708,246817
1596.53,0.185953,372727,242906
1599.54,0.182892,365060,239592
1602.55,0.181671,357543,235319
1605.55,0.179632,349495,231105
1608.55,0.177154,341154,226880
1612.54,0.174911,330877,221185
1615.53,0.173198,322904,216708
1618.51,0.172163,315116,211986
1621.49,0.170695,307217,207372
1624.47,0.170118,299481,202419
1627.44,0.168222,292112,198302
1630.41,0.166989,284245,193510
1634.36,0.166057,274079,186990
1637.32,0.163411,266916,183216
1640.27,0.163888,259612,178007
1643.22,0.162480,251804,173214
1646.16,0.162222,244348,168185
1649.1,0.161867,236703,163056
1652.04,0.161305,228171,157382
1655.95,0.158153,215408,149661
1658.88,0.154457,204937,143603
1661.8,0.150648,193395,136709
1664.72,0.143925,179728,129030
1667.63,0.133214,163642,120415
1670.54,0.123047,146312,110213
1673.44,0.109859,128451,99742
1677.31,0.093996,105080,84630
1680.21,0.086132,88906,72912
1683.1,0.083821,75033,61863
1685.99,0.087919,63520,51879
1688.87,0.092098,53714,43450
1691.75,0.096368,45653,36568
1694.62,0.106980,39137,30592
1697.49,0.107465,33776,26372
1701.31,0.113464,28175,21697