Folder: textile_sorting_NIRSCAN_/samples/wool/wool-000811 (part 11)

File: Column 1_050537_20150331_115330.csv
Method:,Column 1,,
Host Date-Time:,31/3/15 @ 11:53:30,,
Header Version:,1,,
System Temp (C):,31.62,,
Detector Temp (C):,30.17,,
Humidity (%):,3.56,,
Lamp PD:,3827,,
Shift Vector Coefficients:,-10.5391,0.0761263,-0.000134223,,
Pixel to Wavelength Coefficients:,1775.68,-0.916766,-0.000235065,,
Serial Number:,5510004,,
Scan Config Name:,Column 1,,
Scan Config Type:,Slew,,
Section 1,,
Start wavelength (nm):,900,,
End wavelength (nm):,1700,,
Pattern Pixel Width (nm):,   7.03,,,,
Exposure (ms):,  0.635,,,,
Digital Resolution:,228,,
Num Repeats:,6,,
PGA Gain:,64,,
Total Measurement Time in sec:,  2.673,,
Wavelength (nm),Absorbance (AU),Reference Signal (unitless),Sample Signal (unitless)
901.51,0.041378,108485,98626
905.376,0.045648,121306,109203
909.237,0.048315,131909,118021
913.095,0.049913,143299,127741
916.948,0.048538,156982,140382
922.079,0.047707,179937,161218
925.923,0.047892,200504,179569
929.762,0.049051,222660,198880
933.597,0.050341,244426,217674
937.427,0.050505,263972,234992
941.254,0.051480,281845,250340
945.076,0.051874,297271,263802
950.165,0.051336,315605,280419
953.978,0.051514,328029,291339
957.786,0.051935,340470,302095
961.59,0.052378,352317,312288
965.389,0.052782,363056,321508
969.185,0.053110,373162,330208
972.976,0.053817,382632,338037
976.763,0.054280,391202,345240
981.806,0.055505,400190,352177
985.583,0.056460,406088,356583
989.355,0.056679,410162,359978
993.124,0.057316,412868,361822
996.888,0.057683,414263,362738
1000.65,0.058766,415476,362894
1004.4,0.059471,415479,362308
1009.41,0.061671,414358,359505
1013.15,0.061420,412923,358467
1016.89,0.061744,411526,356988
1020.63,0.061866,409066,354754
1024.36,0.061996,406777,352663
1028.09,0.061585,404427,350958
1031.82,0.061204,401911,349081
1036.78,0.060660,398410,346474
1040.49,0.059926,396204,345138
1044.2,0.059785,394236,343535
1047.91,0.059243,392042,342050
1051.61,0.057886,389823,341178
1055.31,0.057762,388234,339885
1059,0.056905,387599,339999
1063.92,0.055485,386688,340311
1067.61,0.055002,386598,340610
1071.29,0.054219,387377,341912
1074.96,0.053491,388536,343511
1078.63,0.052558,389855,345418
1082.3,0.051634,391215,347361
1085.96,0.050790,393215,349816
1090.84,0.050428,396270,352828
1094.49,0.050026,398760,355374
1098.14,0.049630,400987,357685
1101.79,0.049277,403477,360198
1105.43,0.048857,406116,362905
1109.06,0.048754,407701,364408
1112.7,0.048628,409859,366443
1117.53,0.048470,412494,368933
1121.15,0.050118,414909,369688
1124.77,0.050380,416559,370934
1128.38,0.051758,418532,371510
1131.99,0.053625,419956,371175
1135.6,0.056096,421946,370818
1139.2,0.058139,423881,370770
1143.99,0.060435,426786,371343
1147.58,0.061699,428617,371852
1151.17,0.063680,431169,372364
1154.75,0.064840,433579,373446
1158.33,0.066715,436264,374140
1161.91,0.069270,439132,374391
1165.48,0.071940,442389,374856
1169.04,0.075203,446101,375172
1173.79,0.079580,451929,376262
1177.34,0.082213,456026,377378
1180.9,0.084272,461306,379942
1184.44,0.086196,467657,383470
1187.99,0.087224,473969,387727
1191.52,0.086976,479856,392767
1195.06,0.086377,487372,399469
1199.76,0.084915,497347,409020
1203.29,0.083445,504311,416153
1206.81,0.082059,511507,423441
1210.33,0.081100,519078,430658
1213.84,0.079715,527163,438763
1217.35,0.079093,534208,445264
1220.85,0.077872,540472,451753
1225.51,0.076869,549929,460721
1229.01,0.075776,556888,467726
1232.5,0.074634,562180,473414
1235.98,0.074162,567975,478814
1239.46,0.073152,574815,485709
1242.94,0.071728,582782,494058
1246.41,0.070789,591476,502514
1251.03,0.070356,604016,513680
1254.5,0.070713,612289,520288
1257.96,0.070808,619125,525981
1261.41,0.071585,624551,529643
1264.86,0.072065,629900,533589
1268.31,0.072944,634345,536268
1271.75,0.073266,638574,539443
1276.33,0.073904,642499,541961
1279.76,0.073701,645905,545089
1283.19,0.073059,648307,547926
1286.61,0.072879,650446,549961
1290.03,0.072809,652132,551476
1293.44,0.072012,653907,553992
1296.85,0.071822,655963,555978
1301.39,0.071331,657349,557783
1304.8,0.071624,657558,557584
1308.19,0.071808,658515,558159
1311.58,0.071988,658804,558172
1314.97,0.073004,659011,557043
1318.36,0.073412,658272,555896
1321.73,0.073843,658022,555133
1326.23,0.075056,657870,553457
1329.6,0.075913,656482,551201
1332.97,0.077319,654926,548117
1336.33,0.078610,653727,545489
1339.69,0.080563,652497,542020
1343.04,0.082807,649913,537091
1346.39,0.084817,647671,532767
1349.73,0.087305,645338,527816
1354.18,0.090953,641175,520024
1357.52,0.093660,638376,514537
1360.85,0.096070,635805,509629
1364.17,0.098351,633413,505052
1367.49,0.101097,631026,499977
1370.81,0.103948,628050,494363
1374.12,0.106913,625034,488642
1378.54,0.110694,620272,480716
1381.84,0.114224,616892,474226
1385.14,0.119415,613613,466101
1388.43,0.124663,611526,458936
1391.72,0.130728,610663,451933
1395.01,0.136568,610634,445875
1398.29,0.142979,611700,440108
1402.66,0.152145,614051,432573
1405.93,0.159063,616268,427274
1409.2,0.165718,617795,421819
1412.46,0.171890,618872,416592
1415.72,0.177105,619795,412233
1418.98,0.182121,620495,407960
1422.23,0.186437,621087,404311
1426.56,0.190818,621375,400438
1429.8,0.193984,621616,397684
1433.04,0.197588,622129,394723
1436.27,0.200228,621526,391951
1439.5,0.202429,621113,389710
1442.72,0.204625,620921,387625
1445.94,0.207429,620270,384726
1450.23,0.211140,618860,380586
1453.44,0.214431,617697,377003
1456.64,0.217312,616264,373641
1459.85,0.219820,614413,370374
1463.04,0.222639,612307,366716
1466.24,0.225849,610032,362663
1469.43,0.228455,607345,358906
1473.67,0.233778,603789,352458
1476.85,0.238570,601175,347081
1480.02,0.243604,597737,341119
1483.19,0.249294,594479,334844
1486.36,0.255398,591232,328367
1489.52,0.260468,587853,322701
1492.68,0.264665,583875,317435
1496.89,0.266695,578062,312809
1500.03,0.267368,574159,310216
1503.18,0.267962,570285,307702
1506.32,0.266611,565444,306040
1509.45,0.265778,560571,303985
1512.58,0.263934,555821,302692
1515.71,0.262242,550344,300879
1519.87,0.258968,543983,299652
1522.99,0.256830,538764,298242
1526.1,0.253538,533692,297682
1529.21,0.250327,527902,296638
1532.32,0.247661,521886,295063
1535.42,0.244021,515888,294127
1538.51,0.240831,509987,292906
1541.6,0.237734,503936,291502
1545.72,0.232618,494694,289547
1548.8,0.229788,488378,287719
1551.88,0.226735,481832,285865
1554.95,0.224443,474989,283296
1558.02,0.221827,467818,280705
1561.08,0.220898,460730,277044
1564.15,0.220179,454170,273552
1568.22,0.218562,444181,268533
1571.27,0.218039,436947,264478
1574.32,0.216610,429598,260887
1577.36,0.215676,422039,256848
1580.4,0.213297,414375,253569
1583.43,0.211926,406354,249447
1586.46,0.209807,398475,245807
1590.49,0.207057,388982,241475
1593.51,0.204954,380708,237486
1596.53,0.202181,372727,233997
1599.54,0.199801,365060,230443
1602.55,0.197616,357543,226836
1605.55,0.195963,349495,222576
1608.55,0.192899,341154,218802
1612.54,0.189651,330877,213804
1615.53,0.187759,322904,209563
1618.51,0.187325,315116,204713
1621.49,0.185415,307217,200461
1624.47,0.183480,299481,196286
1627.44,0.182354,292112,191953
1630.41,0.181106,284245,187321
1634.36,0.179514,274079,181285
1637.32,0.178176,266916,177092
1640.27,0.177702,259612,172434
1643.22,0.175857,251804,167960
1646.16,0.174488,244348,163501
1649.1,0.174811,236703,158268
1652.04,0.173498,228171,153025
1655.95,0.171819,215408,145025
1658.88,0.169347,204937,138763
1661.8,0.170472,193395,130609
1664.72,0.168306,179728,121986
1667.63,0.163809,163642,112224
1670.54,0.161234,146312,100936
1673.44,0.157662,128451,89346
1677.31,0.157436,105080,73128
1680.21,0.156434,88906,62015
1683.1,0.157765,75033,52178
1685.99,0.161317,63520,43812
1688.87,0.167271,53714,36544
1691.75,0.173932,45653,30587
1694.62,0.173508,39137,26247
1697.49,0.171741,33776,22744
1701.31,0.178882,28175,18663

File: Column 1_050537_20150331_115335.csv
Method:,Column 1,,
Host Date-Time:,31/3/15 @ 11:53:35,,
Header Version:,1,,
System Temp (C):,31.67,,
Detector Temp (C):,30.09,,
Humidity (%):,3.51,,
Lamp PD:,3826,,
Shift Vector Coefficients:,-10.5391,0.0761263,-0.000134223,,
Pixel to Wavelength Coefficients:,1775.68,-0.916766,-0.000235065,,
Serial Number:,5510004,,
Scan Config Name:,Column 1,,
Scan Config Type:,Slew,,
Section 1,,
Start wavelength (nm):,900,,
End wavelength (nm):,1700,,
Pattern Pixel Width (nm):,   7.03,,,,
Exposure (ms):,  0.635,,,,
Digital Resolution:,228,,
Num Repeats:,6,,
PGA Gain:,64,,
Total Measurement Time in sec:,  2.682,,
Wavelength (nm),Absorbance (AU),Reference Signal (unitless),Sample Signal (unitless)
901.51,0.041942,108485,98498
905.376,0.047377,121306,108769
909.237,0.049310,131909,117751
913.095,0.050552,143299,127553
916.948,0.049018,156982,140227
922.079,0.049356,179937,160607
925.923,0.050366,200504,178549
929.762,0.050403,222660,198262
933.597,0.050273,244426,217708
937.427,0.051160,263972,234638
941.254,0.051678,281845,250226
945.076,0.052006,297271,263722
950.165,0.051877,315605,280070
953.978,0.052301,328029,290811
957.786,0.052416,340470,301761
961.59,0.052778,352317,312001
965.389,0.052776,363056,321512
969.185,0.054006,373162,329527
972.976,0.054020,382632,337879
976.763,0.054746,391202,344870
981.806,0.055964,400190,351805
985.583,0.056497,406088,356552
989.355,0.057246,410162,359509
993.124,0.057925,412868,361315
996.888,0.058358,414263,362175
1000.65,0.058986,415476,362710
1004.4,0.060394,415479,361539
1009.41,0.061567,414358,359591
1013.15,0.061942,412923,358036
1016.89,0.062033,411526,356750
1020.63,0.061951,409066,354685
1024.36,0.062174,406777,352519
1028.09,0.061939,404427,350672
1031.82,0.061546,401911,348806
1036.78,0.060525,398410,346581
1040.49,0.060476,396204,344701
1044.2,0.060343,394236,343094
1047.91,0.059764,392042,341640
1051.61,0.058466,389823,340723
1055.31,0.057928,388234,339755
1059,0.056911,387599,339994
1063.92,0.055625,386688,340201
1067.61,0.054768,386598,340794
1071.29,0.054029,387377,342062
1074.96,0.054056,388536,343064
1078.63,0.052795,389855,345230
1082.3,0.052438,391215,346719
1085.96,0.051563,393215,349194
1090.84,0.050621,396270,352671
1094.49,0.050530,398760,354962
1098.14,0.049913,400987,357452
1101.79,0.049869,403477,359708
1105.43,0.049942,406116,362000
1109.06,0.049069,407701,364144
1112.7,0.049420,409859,365775
1117.53,0.048789,412494,368662
1121.15,0.050374,414909,369470
1124.77,0.051268,416559,370176
1128.38,0.052373,418532,370984
1131.99,0.054109,419956,370762
1135.6,0.056361,421946,370592
1139.2,0.058074,423881,370826
1143.99,0.060725,426786,371095
1147.58,0.062176,428617,371444
1151.17,0.064021,431169,372072
1154.75,0.065091,433579,373231
1158.33,0.067448,436264,373509
1161.91,0.069360,439132,374313
1165.48,0.072961,442389,373976
1169.04,0.075517,446101,374901
1173.79,0.079718,451929,376142
1177.34,0.082648,456026,377000
1180.9,0.084845,461306,379441
1184.44,0.087487,467657,382332
1187.99,0.087353,473969,387612
1191.52,0.087243,479856,392526
1195.06,0.086752,487372,399125
1199.76,0.085075,497347,408869
1203.29,0.083385,504311,416211
1206.81,0.082720,511507,422797
1210.33,0.081443,519078,430318
1213.84,0.079960,527163,438515
1217.35,0.079515,534208,444831
1220.85,0.078021,540472,451598
1225.51,0.076757,549929,460839
1229.01,0.075968,556888,467520
1232.5,0.075440,562180,472536
1235.98,0.075009,567975,477882
1239.46,0.073373,574815,485462
1242.94,0.071837,582782,493934
1246.41,0.070991,591476,502280
1251.03,0.071006,604016,512911
1254.5,0.070971,612289,519979
1257.96,0.071487,619125,525160
1261.41,0.072086,624551,529032
1264.86,0.072676,629900,532839
1268.31,0.073188,634345,535966
1271.75,0.073672,638574,538939
1276.33,0.074147,642499,541658
1279.76,0.074018,645905,544692
1283.19,0.073589,648307,547258
1286.61,0.073106,650446,549674
1290.03,0.072881,652132,551384
1293.44,0.072223,653907,553723
1296.85,0.072044,655963,555694
1301.39,0.071953,657349,556984
1304.8,0.071875,657558,557262
1308.19,0.071883,658515,558062
1311.58,0.072338,658804,557722
1314.97,0.073222,659011,556764
1318.36,0.073964,658272,555190
1321.73,0.074248,658022,554616
1326.23,0.075409,657870,553007
1329.6,0.076434,656482,550540
1332.97,0.077427,654926,547981
1336.33,0.079044,653727,544945
1339.69,0.080812,652497,541709
1343.04,0.082900,649913,536977
1346.39,0.085661,647671,531733
1349.73,0.087710,645338,527324
1354.18,0.091485,641175,519388
1357.52,0.093772,638376,514404
1360.85,0.096223,635805,509449
1364.17,0.098627,633413,504731
1367.49,0.101380,631026,499651
1370.81,0.104323,628050,493937
1374.12,0.106992,625034,488553
1378.54,0.110867,620272,480524
1381.84,0.114858,616892,473534
1385.14,0.120046,613613,465424
1388.43,0.125301,611526,458262
1391.72,0.130619,610663,452046
1395.01,0.136884,610634,445551
1398.29,0.143201,611700,439883
1402.66,0.152326,614051,432393
1405.93,0.159117,616268,427221
1409.2,0.165947,617795,421597
1412.46,0.172019,618872,416468
1415.72,0.177220,619795,412124
1418.98,0.182393,620495,407704
1422.23,0.186421,621087,404326
1426.56,0.191523,621375,399789
1429.8,0.194732,621616,397000
1433.04,0.197700,622129,394621
1436.27,0.200314,621526,391873
1439.5,0.202695,621113,389471
1442.72,0.205964,620921,386431
1445.94,0.207876,620270,384330
1450.23,0.211496,618860,380274
1453.44,0.214527,617697,376919
1456.64,0.217219,616264,373721
1459.85,0.220083,614413,370150
1463.04,0.222603,612307,366747
1466.24,0.225576,610032,362891
1469.43,0.228486,607345,358880
1473.67,0.233268,603789,352872
1476.85,0.238140,601175,347425
1480.02,0.244007,597737,340803
1483.19,0.249921,594479,334361
1486.36,0.255097,591232,328595
1489.52,0.260786,587853,322465
1492.68,0.263551,583875,318250
1496.89,0.266587,578062,312887
1500.03,0.267542,574159,310092
1503.18,0.268319,570285,307449
1506.32,0.267223,565444,305609
1509.45,0.266053,560571,303793
1512.58,0.264668,555821,302181
1515.71,0.262933,550344,300401
1519.87,0.259126,543983,299543
1522.99,0.257181,538764,298001
1526.1,0.254143,533692,297268
1529.21,0.250556,527902,296481
1532.32,0.247679,521886,295051
1535.42,0.244547,515888,293771
1538.51,0.241457,509987,292484
1541.6,0.237832,503936,291436
1545.72,0.232975,494694,289309
1548.8,0.229807,488378,287706
1551.88,0.226838,481832,285797
1554.95,0.224883,474989,283009
1558.02,0.222880,467818,280025
1561.08,0.220636,460730,277211
1564.15,0.220190,454170,273545
1568.22,0.219351,444181,268046
1571.27,0.219019,436947,263882
1574.32,0.217641,429598,260268
1577.36,0.215847,422039,256747
1580.4,0.214019,414375,253148
1583.43,0.211709,406354,249572
1586.46,0.209572,398475,245940
1590.49,0.206982,388982,241517
1593.51,0.204952,380708,237487
1596.53,0.202021,372727,234083
1599.54,0.200757,365060,229936
1602.55,0.198086,357543,226591
1605.55,0.195524,349495,222801
1608.55,0.193893,341154,218302
1612.54,0.191734,330877,212781
1615.53,0.188402,322904,209253
1618.51,0.187289,315116,204730
1621.49,0.189967,307217,198371
1624.47,0.183022,299481,196493
1627.44,0.182074,292112,192077
1630.41,0.181721,284245,187056
1634.36,0.179811,274079,181161
1637.32,0.178524,266916,176950
1640.27,0.177546,259612,172496
1643.22,0.175650,251804,168040
1646.16,0.175488,244348,163125
1649.1,0.173983,236703,158570
1652.04,0.174416,228171,152702
1655.95,0.171588,215408,145102
1658.88,0.170905,204937,138266
1661.8,0.170359,193395,130643
1664.72,0.167889,179728,122103
1667.63,0.165325,163642,111833
1670.54,0.161066,146312,100975
1673.44,0.157317,128451,89417
1677.31,0.154200,105080,73675
1680.21,0.155252,88906,62184
1683.1,0.155449,75033,52457
1685.99,0.163404,63520,43602
1688.87,0.166654,53714,36596
1691.75,0.167408,45653,31050
1694.62,0.178802,39137,25929
1697.49,0.172601,33776,22699
1701.31,0.178348,28175,18686

File: Column 1_050537_20150331_115338.csv
Method:,Column 1,,
Host Date-Time:,31/3/15 @ 11:53:38,,
Header Version:,1,,
System Temp (C):,31.69,,
Detector Temp (C):,30.16,,
Humidity (%):,3.51,,
Lamp PD:,3826,,
Shift Vector Coefficients:,-10.5391,0.0761263,-0.000134223,,
Pixel to Wavelength Coefficients:,1775.68,-0.916766,-0.000235065,,
Serial Number:,5510004,,
Scan Config Name:,Column 1,,
Scan Config Type:,Slew,,
Section 1,,
Start wavelength (nm):,900,,
End wavelength (nm):,1700,,
Pattern Pixel Width (nm):,   7.03,,,,
Exposure (ms):,  0.635,,,,
Digital Resolution:,228,,
Num Repeats:,6,,
PGA Gain:,64,,
Total Measurement Time in sec:,  2.726,,
Wavelength (nm),Absorbance (AU),Reference Signal (unitless),Sample Signal (unitless)
901.51,0.043732,108485,98093
905.376,0.049679,121306,108194
909.237,0.051977,131909,117030
913.095,0.051227,143299,127355
916.948,0.050265,156982,139825
922.079,0.051397,179937,159854
925.923,0.050947,200504,178310
929.762,0.051267,222660,197868
933.597,0.052762,244426,216464
937.427,0.052685,263972,233815
941.254,0.053109,281845,249403
945.076,0.053050,297271,263089
950.165,0.052880,315605,279424
953.978,0.053201,328029,290209
957.786,0.053339,340470,301120
961.59,0.054485,352317,310777
965.389,0.054112,363056,320525
969.185,0.055070,373162,328721
972.976,0.055435,382632,336780
976.763,0.055989,391202,343884
981.806,0.056401,400190,351451
985.583,0.057535,406088,355701
989.355,0.058424,410162,358535
993.124,0.058661,412868,360703
996.888,0.059510,414263,361215
1000.65,0.060352,415476,361571
1004.4,0.060828,415479,361178
1009.41,0.062841,414358,358538
1013.15,0.063197,412923,357003
1016.89,0.064108,411526,355050
1020.63,0.063721,409066,353242
1024.36,0.063453,406777,351482
1028.09,0.062812,404427,349968
1031.82,0.062609,401911,347953
1036.78,0.061739,398410,345614
1040.49,0.061730,396204,343707
1044.2,0.061103,394236,342494
1047.91,0.060529,392042,341039
1051.61,0.059677,389823,339774
1055.31,0.059331,388234,338659
1059,0.058992,387599,338369
1063.92,0.057447,386688,338777
1067.61,0.056222,386598,339655
1071.29,0.055817,387377,340657
1074.96,0.054748,388536,342518
1078.63,0.054297,389855,344038
1082.3,0.053467,391215,345898
1085.96,0.052417,393215,348508
1090.84,0.051726,396270,351775
1094.49,0.051977,398760,353781
1098.14,0.051349,400987,356272
1101.79,0.050594,403477,359108
1105.43,0.051347,406116,360830
1109.06,0.050085,407701,363293
1112.7,0.050452,409859,364907
1117.53,0.050346,412494,367343
1121.15,0.051070,414909,368878
1124.77,0.051920,416559,369621
1128.38,0.053295,418532,370198
1131.99,0.054552,419956,370384
1135.6,0.057313,421946,369780
1139.2,0.059236,423881,369835
1143.99,0.062505,426786,369577
1147.58,0.063390,428617,370407
1151.17,0.064605,431169,371572
1154.75,0.065317,433579,373036
1158.33,0.068037,436264,373003
1161.91,0.070031,439132,373735
1165.48,0.073723,442389,373320
1169.04,0.076215,446101,374299
1173.79,0.080415,451929,375539
1177.34,0.083137,456026,376576
1180.9,0.085889,461306,378530
1184.44,0.087761,467657,382091
1187.99,0.088480,473969,386607
1191.52,0.087948,479856,391889
1195.06,0.087323,487372,398600
1199.76,0.085765,497347,408220
1203.29,0.084533,504311,415112
1206.81,0.083392,511507,422143
1210.33,0.082334,519078,429436
1213.84,0.081092,527163,437374
1217.35,0.080115,534208,444217
1220.85,0.079081,540472,450497
1225.51,0.077334,549929,460228
1229.01,0.076635,556888,466802
1232.5,0.076036,562180,471889
1235.98,0.075530,567975,477309
1239.46,0.073900,574815,484873
1242.94,0.072982,582782,492634
1246.41,0.072149,591476,500943
1251.03,0.071696,604016,512097
1254.5,0.071867,612289,518907
1257.96,0.072049,619125,524480
1261.41,0.072559,624551,528456
1264.86,0.073254,629900,532130
1268.31,0.073667,634345,535376
1271.75,0.074393,638574,538044
1276.33,0.074955,642499,540652
1279.76,0.074822,645905,543684
1283.19,0.074283,648307,546384
1286.61,0.073658,650446,548976
1290.03,0.073235,652132,550935
1293.44,0.072700,653907,553116
1296.85,0.072889,655963,554613
1301.39,0.072627,657349,556121
1304.8,0.072673,657558,556238
1308.19,0.073010,658515,556616
1311.58,0.073176,658804,556648
1314.97,0.073950,659011,555831
1318.36,0.074680,658272,554275
1321.73,0.074762,658022,553960
1326.23,0.075941,657870,552330
1329.6,0.076866,656482,549992
1332.97,0.077962,654926,547306
1336.33,0.079445,653727,544442
1339.69,0.081413,652497,540961
1343.04,0.083571,649913,536148
1346.39,0.085838,647671,531516
1349.73,0.088430,645338,526450
1354.18,0.092096,641175,518657
1357.52,0.094315,638376,513762
1360.85,0.096875,635805,508685
1364.17,0.099365,633413,503874
1367.49,0.102372,631026,498512
1370.81,0.104845,628050,493343
1374.12,0.107947,625034,487480
1378.54,0.111304,620272,480041
1381.84,0.115606,616892,472719
1385.14,0.120190,613613,465270
1388.43,0.125442,611526,458113
1391.72,0.131680,610663,450943
1395.01,0.137550,610634,444868
1398.29,0.143632,611700,439447
1402.66,0.152661,614051,432059
1405.93,0.160092,616268,426263
1409.2,0.166566,617795,420996
1412.46,0.172623,618872,415889
1415.72,0.178084,619795,411305
1418.98,0.182940,620495,407191
1422.23,0.187126,621087,403670
1426.56,0.192215,621375,399152
1429.8,0.195407,621616,396383
1433.04,0.198073,622129,394282
1436.27,0.201033,621526,391225
1439.5,0.203159,621113,389056
1442.72,0.206078,620921,386330
1445.94,0.208342,620270,383918
1450.23,0.212295,618860,379575
1453.44,0.215326,617697,376227
1456.64,0.217873,616264,373159
1459.85,0.220414,614413,369868
1463.04,0.223205,612307,366239
1466.24,0.225725,610032,362767
1469.43,0.229254,607345,358246
1473.67,0.234328,603789,352012
1476.85,0.238958,601175,346771
1480.02,0.244107,597737,340724
1483.19,0.250576,594479,333857
1486.36,0.255973,591232,327933
1489.52,0.260778,587853,322471
1492.68,0.264619,583875,317469
1496.89,0.267198,578062,312447
1500.03,0.268529,574159,309388
1503.18,0.268856,570285,307069
1506.32,0.268170,565444,304944
1509.45,0.267361,560571,302879
1512.58,0.266234,555821,301093
1515.71,0.263364,550344,300103
1519.87,0.260257,543983,298764
1522.99,0.257513,538764,297773
1526.1,0.255417,533692,296397
1529.21,0.251309,527902,295968
1532.32,0.249092,521886,294092
1535.42,0.245769,515888,292945
1538.51,0.241870,509987,292206
1541.6,0.238515,503936,290978
1545.72,0.234280,494694,288441
1548.8,0.230179,488378,287460
1551.88,0.227078,481832,285639
1554.95,0.225408,474989,282667
1558.02,0.223433,467818,279669
1561.08,0.222301,460730,276150
1564.15,0.221320,454170,272834
1568.22,0.219414,444181,268007
1571.27,0.219017,436947,263883
1574.32,0.218142,429598,259968
1577.36,0.216328,422039,256463
1580.4,0.214771,414375,252710
1583.43,0.212801,406354,248945
1586.46,0.211093,398475,245080
1590.49,0.208582,388982,240629
1593.51,0.206260,380708,236773
1596.53,0.203724,372727,233167
1599.54,0.201985,365060,229287
1602.55,0.198836,357543,226200
1605.55,0.196703,349495,222197
1608.55,0.194138,341154,218179
1612.54,0.192083,330877,212610
1615.53,0.188547,322904,209183
1618.51,0.187155,315116,204793
1621.49,0.187180,307217,199648
1624.47,0.184490,299481,195830
1627.44,0.183614,292112,191397
1630.41,0.182518,284245,186713
1634.36,0.180272,274079,180969
1637.32,0.179728,266916,176460
1640.27,0.178196,259612,172238
1643.22,0.177419,251804,167357
1646.16,0.176413,244348,162778
1649.1,0.176058,236703,157814
1652.04,0.174603,228171,152636
1655.95,0.173971,215408,144308
1658.88,0.173763,204937,137359
1661.8,0.170818,193395,130505
1664.72,0.170218,179728,121450
1667.63,0.164816,163642,111964
1670.54,0.161738,146312,100819
1673.44,0.159762,128451,88915
1677.31,0.153870,105080,73731
1680.21,0.158182,88906,61766
1683.1,0.158456,75033,52095
1685.99,0.169220,63520,43022
1688.87,0.170923,53714,36238
1691.75,0.172359,45653,30698
1694.62,0.180682,39137,25817
1697.49,0.181610,33776,22233
1701.31,0.197764,28175,17869