Folder: textile_sorting_NIRSCAN_/samples/wool/wool-000811 (part 128)

File: Column 1_050603_20150331_122449.csv
Method:,Column 1,,
Host Date-Time:,31/3/15 @ 12:24:49,,
Header Version:,1,,
System Temp (C):,34.03,,
Detector Temp (C):,34.77,,
Humidity (%):,1.76,,
Lamp PD:,3818,,
Shift Vector Coefficients:,-10.5391,0.0761263,-0.000134223,,
Pixel to Wavelength Coefficients:,1775.68,-0.916766,-0.000235065,,
Serial Number:,5510004,,
Scan Config Name:,Column 1,,
Scan Config Type:,Slew,,
Section 1,,
Start wavelength (nm):,900,,
End wavelength (nm):,1700,,
Pattern Pixel Width (nm):,   7.03,,,,
Exposure (ms):,  0.635,,,,
Digital Resolution:,228,,
Num Repeats:,6,,
PGA Gain:,64,,
Total Measurement Time in sec:,  2.675,,
Wavelength (nm),Absorbance (AU),Reference Signal (unitless),Sample Signal (unitless)
901.51,0.068393,108485,92678
905.376,0.076088,121306,101811
909.237,0.076865,131909,110512
913.095,0.078537,143299,119593
916.948,0.078045,156982,131161
922.079,0.079788,179937,149738
925.923,0.081725,200504,166111
929.762,0.082973,222660,183937
933.597,0.082936,244426,201935
937.427,0.080565,263972,219277
941.254,0.080492,281845,234163
945.076,0.079021,297271,247817
950.165,0.078611,315605,263350
953.978,0.077981,328029,274114
957.786,0.078077,340470,284447
961.59,0.077041,352317,295048
965.389,0.077851,363056,303475
969.185,0.078113,373162,311734
972.976,0.077973,382632,319748
976.763,0.079239,391202,325958
981.806,0.079272,400190,333422
985.583,0.080202,406088,337612
989.355,0.080177,410162,341019
993.124,0.080694,412868,342860
996.888,0.081244,414263,343583
1000.65,0.081964,415476,344019
1004.4,0.083221,415479,343027
1009.41,0.084133,414358,341384
1013.15,0.084573,412923,339857
1016.89,0.085508,411526,337979
1020.63,0.084937,409066,336400
1024.36,0.085367,406777,334187
1028.09,0.084979,404427,332553
1031.82,0.084654,401911,330732
1036.78,0.084254,398410,328153
1040.49,0.084082,396204,326465
1044.2,0.083663,394236,325157
1047.91,0.084265,392042,322900
1051.61,0.083005,389823,322005
1055.31,0.083367,388234,320425
1059,0.082942,387599,320214
1063.92,0.081732,386688,320353
1067.61,0.080668,386598,321064
1071.29,0.080672,387377,321708
1074.96,0.080230,388536,322999
1078.63,0.079202,389855,324864
1082.3,0.078624,391215,326431
1085.96,0.078117,393215,328483
1090.84,0.077176,396270,331753
1094.49,0.076662,398760,334233
1098.14,0.075962,400987,336642
1101.79,0.075373,403477,339192
1105.43,0.075565,406116,341260
1109.06,0.074614,407701,343343
1112.7,0.073703,409859,345885
1117.53,0.073351,412494,348391
1121.15,0.074297,414909,349668
1124.77,0.074489,416559,350903
1128.38,0.075407,418532,351821
1131.99,0.076476,419956,352150
1135.6,0.077891,421946,352668
1139.2,0.078684,423881,353639
1143.99,0.081688,426786,353608
1147.58,0.081974,428617,354891
1151.17,0.083567,431169,355697
1154.75,0.084126,433579,357225
1158.33,0.085184,436264,358563
1161.91,0.086815,439132,359567
1165.48,0.088956,442389,360453
1169.04,0.090965,446101,361800
1173.79,0.095387,451929,362813
1177.34,0.096253,456026,365373
1180.9,0.098956,461306,367310
1184.44,0.100286,467657,371229
1187.99,0.101340,473969,375327
1191.52,0.102159,479856,379273
1195.06,0.101444,487372,385848
1199.76,0.101319,497347,393859
1203.29,0.099966,504311,400620
1206.81,0.099980,511507,406323
1210.33,0.099168,519078,413109
1213.84,0.098833,527163,419867
1217.35,0.098021,534208,426275
1220.85,0.097624,540472,431667
1225.51,0.096676,549929,440180
1229.01,0.096268,556888,446169
1232.5,0.095486,562180,451221
1235.98,0.094857,567975,456533
1239.46,0.093775,574815,463183
1242.94,0.092686,582782,470782
1246.41,0.092477,591476,478036
1251.03,0.092783,604016,487826
1254.5,0.092631,612289,494681
1257.96,0.092509,619125,500345
1261.41,0.093606,624551,503457
1264.86,0.093889,629900,507437
1268.31,0.094363,634345,510461
1271.75,0.094969,638574,513148
1276.33,0.095547,642499,515615
1279.76,0.095037,645905,518957
1283.19,0.094638,648307,521366
1286.61,0.094227,650446,523581
1290.03,0.093442,652132,525888
1293.44,0.093238,653907,527568
1296.85,0.092914,655963,529621
1301.39,0.092989,657349,530648
1304.8,0.092949,657558,530866
1308.19,0.092897,658515,531702
1311.58,0.093078,658804,531714
1314.97,0.093932,659011,530836
1318.36,0.094247,658272,529857
1321.73,0.094283,658022,529611
1326.23,0.095265,657870,528293
1329.6,0.096220,656482,526021
1332.97,0.096551,654926,524374
1336.33,0.097698,653727,522034
1339.69,0.099269,652497,519170
1343.04,0.100739,649913,515367
1346.39,0.102885,647671,511057
1349.73,0.104615,645338,507192
1354.18,0.107733,641175,500315
1357.52,0.109576,638376,496022
1360.85,0.111595,635805,491732
1364.17,0.113919,633413,487268
1367.49,0.115851,631026,483277
1370.81,0.117178,628050,479531
1374.12,0.120055,625034,474077
1378.54,0.122505,620272,467818
1381.84,0.125765,616892,461790
1385.14,0.128932,613613,455998
1388.43,0.132497,611526,450731
1391.72,0.137071,610663,445380
1395.01,0.140761,610634,441591
1398.29,0.145424,611700,437637
1402.66,0.152126,614051,432592
1405.93,0.156890,616268,429417
1409.2,0.161752,617795,425689
1412.46,0.166264,618872,422024
1415.72,0.170185,619795,418854
1418.98,0.173656,620495,415989
1422.23,0.176787,621087,413395
1426.56,0.181167,621375,409437
1429.8,0.183223,621616,407661
1433.04,0.186139,622129,405267
1436.27,0.188211,621526,402947
1439.5,0.190249,621113,400794
1442.72,0.192938,620921,398197
1445.94,0.194827,620270,396053
1450.23,0.198244,618860,392056
1453.44,0.200973,617697,388868
1456.64,0.204188,616264,385105
1459.85,0.206568,614413,381850
1463.04,0.209397,612307,378070
1466.24,0.213377,610032,373229
1469.43,0.217231,607345,368302
1473.67,0.222507,603789,361725
1476.85,0.228318,601175,355372
1480.02,0.233912,597737,348817
1483.19,0.240340,594479,341819
1486.36,0.246160,591232,335427
1489.52,0.251116,587853,329726
1492.68,0.254268,583875,325126
1496.89,0.256531,578062,320216
1500.03,0.257063,574159,317665
1503.18,0.257302,570285,315348
1506.32,0.255799,565444,313755
1509.45,0.254690,560571,311846
1512.58,0.253071,555821,310359
1515.71,0.251254,550344,308589
1519.87,0.247760,543983,307486
1522.99,0.245371,538764,306216
1526.1,0.242836,533692,305109
1529.21,0.239885,527902,303856
1532.32,0.237261,521886,302214
1535.42,0.234517,515888,300634
1538.51,0.231434,509987,299313
1541.6,0.228241,503936,297944
1545.72,0.224316,494694,295135
1548.8,0.222057,488378,292886
1551.88,0.218965,481832,291025
1554.95,0.217208,474989,288055
1558.02,0.215638,467818,284734
1561.08,0.214901,460730,280896
1564.15,0.213425,454170,277839
1568.22,0.212717,444181,272172
1571.27,0.212529,436947,267855
1574.32,0.211806,429598,263789
1577.36,0.209870,422039,260305
1580.4,0.209639,414375,255714
1583.43,0.207371,406354,252077
1586.46,0.206037,398475,247950
1590.49,0.204248,388982,243042
1593.51,0.201980,380708,239118
1596.53,0.200645,372727,234826
1599.54,0.198564,365060,231100
1602.55,0.196347,357543,227500
1605.55,0.194391,349495,223383
1608.55,0.192798,341154,218853
1612.54,0.190881,330877,213199
1615.53,0.188867,322904,209029
1618.51,0.187913,315116,204436
1621.49,0.186622,307217,199905
1624.47,0.186542,299481,194907
1627.44,0.184509,292112,191003
1630.41,0.184455,284245,185882
1634.36,0.181755,274079,180352
1637.32,0.182375,266916,175388
1640.27,0.181181,259612,171058
1643.22,0.179941,251804,166388
1646.16,0.180094,244348,161404
1649.1,0.179021,236703,156741
1652.04,0.178051,228171,151429
1655.95,0.174008,215408,144296
1658.88,0.170227,204937,138482
1661.8,0.166833,193395,131708
1664.72,0.157723,179728,124995
1667.63,0.145568,163642,117038
1670.54,0.130018,146312,108458
1673.44,0.115306,128451,98499
1677.31,0.097215,105080,84005
1680.21,0.085138,88906,73079
1683.1,0.080569,75033,62328
1685.99,0.075833,63520,53343
1688.87,0.084361,53714,44231
1691.75,0.082265,45653,37775
1694.62,0.089464,39137,31851
1697.49,0.099373,33776,26868
1701.31,0.099674,28175,22397

File: Column 1_050603_20150331_122452.csv
Method:,Column 1,,
Host Date-Time:,31/3/15 @ 12:24:52,,
Header Version:,1,,
System Temp (C):,34.03,,
Detector Temp (C):,34.8,,
Humidity (%):,1.71,,
Lamp PD:,3818,,
Shift Vector Coefficients:,-10.5391,0.0761263,-0.000134223,,
Pixel to Wavelength Coefficients:,1775.68,-0.916766,-0.000235065,,
Serial Number:,5510004,,
Scan Config Name:,Column 1,,
Scan Config Type:,Slew,,
Section 1,,
Start wavelength (nm):,900,,
End wavelength (nm):,1700,,
Pattern Pixel Width (nm):,   7.03,,,,
Exposure (ms):,  0.635,,,,
Digital Resolution:,228,,
Num Repeats:,6,,
PGA Gain:,64,,
Total Measurement Time in sec:,  2.720,,
Wavelength (nm),Absorbance (AU),Reference Signal (unitless),Sample Signal (unitless)
901.51,0.066840,108485,93010
905.376,0.072477,121306,102661
909.237,0.076080,131909,110712
913.095,0.078988,143299,119469
916.948,0.079591,156982,130695
922.079,0.080851,179937,149372
925.923,0.081307,200504,166271
929.762,0.083209,222660,183837
933.597,0.081502,244426,202603
937.427,0.080828,263972,219144
941.254,0.080583,281845,234114
945.076,0.078960,297271,247852
950.165,0.078292,315605,263543
953.978,0.077686,328029,274300
957.786,0.077661,340470,284720
961.59,0.077834,352317,294510
965.389,0.077885,363056,303451
969.185,0.077734,373162,312006
972.976,0.078228,382632,319561
976.763,0.078684,391202,326375
981.806,0.078975,400190,333650
985.583,0.080090,406088,337699
989.355,0.080683,410162,340622
993.124,0.080115,412868,343318
996.888,0.081568,414263,343327
1000.65,0.081400,415476,344466
1004.4,0.082574,415479,343538
1009.41,0.083540,414358,341850
1013.15,0.084141,412923,340195
1016.89,0.085095,411526,338300
1020.63,0.084806,409066,336502
1024.36,0.085566,406777,334034
1028.09,0.084349,404427,333036
1031.82,0.084490,401911,330857
1036.78,0.084125,398410,328250
1040.49,0.083877,396204,326619
1044.2,0.083631,394236,325181
1047.91,0.083989,392042,323105
1051.61,0.083094,389823,321939
1055.31,0.083079,388234,320638
1059,0.082584,387599,320478
1063.92,0.081830,386688,320281
1067.61,0.080895,386598,320896
1071.29,0.080698,387377,321689
1074.96,0.080140,388536,323066
1078.63,0.079287,389855,324800
1082.3,0.078801,391215,326298
1085.96,0.077858,393215,328679
1090.84,0.077391,396270,331589
1094.49,0.076396,398760,334438
1098.14,0.075983,400987,336626
1101.79,0.075442,403477,339138
1105.43,0.075464,406116,341339
1109.06,0.074067,407701,343775
1112.7,0.074093,409859,345574
1117.53,0.073651,412494,348150
1121.15,0.074872,414909,349205
1124.77,0.074571,416559,350837
1128.38,0.074868,418532,352258
1131.99,0.076094,419956,352460
1135.6,0.077934,421946,352633
1139.2,0.079351,423881,353096
1143.99,0.081336,426786,353895
1147.58,0.081755,428617,355070
1151.17,0.083168,431169,356024
1154.75,0.083254,433579,357943
1158.33,0.085484,436264,358315
1161.91,0.086697,439132,359665
1165.48,0.088706,442389,360660
1169.04,0.091026,446101,361749
1173.79,0.094376,451929,363659
1177.34,0.096868,456026,364856
1180.9,0.098861,461306,367391
1184.44,0.100777,467657,370809
1187.99,0.101832,473969,374902
1191.52,0.101458,479856,379886
1195.06,0.101340,487372,385941
1199.76,0.100937,497347,394205
1203.29,0.100138,504311,400461
1206.81,0.099815,511507,406478
1210.33,0.098979,519078,413289
1213.84,0.098590,527163,420102
1217.35,0.097863,534208,426430
1220.85,0.098796,540472,430504
1225.51,0.095997,549929,440869
1229.01,0.096443,556888,445990
1232.5,0.094836,562180,451897
1235.98,0.094826,567975,456566
1239.46,0.093615,574815,463354
1242.94,0.093144,582782,470286
1246.41,0.092085,591476,478467
1251.03,0.092036,604016,488666
1254.5,0.092157,612289,495222
1257.96,0.092481,619125,500377
1261.41,0.093163,624551,503970
1264.86,0.093553,629900,507830
1268.31,0.094281,634345,510557
1271.75,0.094903,638574,513226
1276.33,0.095137,642499,516102
1279.76,0.095134,645905,518841
1283.19,0.094109,648307,522002
1286.61,0.093766,650446,524137
1290.03,0.093614,652132,525680
1293.44,0.093306,653907,527485
1296.85,0.093173,655963,529305
1301.39,0.092682,657349,531024
1304.8,0.092674,657558,531202
1308.19,0.093204,658515,531327
1311.58,0.092975,658804,531840
1314.97,0.093234,659011,531690
1318.36,0.093729,658272,530489
1321.73,0.094247,658022,529656
1326.23,0.094948,657870,528679
1329.6,0.095494,656482,526901
1332.97,0.096544,654926,524382
1336.33,0.097536,653727,522228
1339.69,0.099156,652497,519305
1343.04,0.100410,649913,515757
1346.39,0.102491,647671,511521
1349.73,0.104427,645338,507412
1354.18,0.107340,641175,500768
1357.52,0.109597,638376,495998
1360.85,0.111594,635805,491734
1364.17,0.113206,633413,488069
1367.49,0.115795,631026,483339
1370.81,0.118166,628050,478441
1374.12,0.119154,625034,475061
1378.54,0.122515,620272,467808
1381.84,0.125488,616892,462084
1385.14,0.129557,613613,455342
1388.43,0.132775,611526,450443
1391.72,0.136635,610663,445827
1395.01,0.140957,610634,441392
1398.29,0.145354,611700,437708
1402.66,0.151944,614051,432773
1405.93,0.156971,616268,429337
1409.2,0.161382,617795,426052
1412.46,0.166061,618872,422221
1415.72,0.170140,619795,418898
1418.98,0.173365,620495,416268
1422.23,0.176667,621087,413509
1426.56,0.180740,621375,409839
1429.8,0.183019,621616,407853
1433.04,0.185786,622129,405597
1436.27,0.187912,621526,403225
1439.5,0.190115,621113,400918
1442.72,0.192287,620921,398795
1445.94,0.194877,620270,396008
1450.23,0.198231,618860,392068
1453.44,0.201193,617697,388671
1456.64,0.203710,616264,385529
1459.85,0.206602,614413,381820
1463.04,0.209688,612307,377817
1466.24,0.212526,610032,373961
1469.43,0.216796,607345,368671
1473.67,0.222729,603789,361540
1476.85,0.227805,601175,355792
1480.02,0.234246,597737,348549
1483.19,0.240102,594479,342007
1486.36,0.246534,591232,335138
1489.52,0.250680,587853,330057
1492.68,0.253858,583875,325433
1496.89,0.256136,578062,320508
1500.03,0.256514,574159,318067
1503.18,0.256364,570285,316030
1506.32,0.255894,565444,313686
1509.45,0.254547,560571,311949
1512.58,0.252848,555821,310518
1515.71,0.250835,550344,308887
1519.87,0.247946,543983,307354
1522.99,0.244730,538764,306668
1526.1,0.242227,533692,305537
1529.21,0.240263,527902,303592
1532.32,0.236985,521886,302406
1535.42,0.233999,515888,300993
1538.51,0.231107,509987,299538
1541.6,0.227626,503936,298366
1545.72,0.224119,494694,295269
1548.8,0.221776,488378,293076
1551.88,0.219569,481832,290621
1554.95,0.216943,474989,288231
1558.02,0.215741,467818,284666
1561.08,0.214234,460730,281328
1564.15,0.213938,454170,277511
1568.22,0.212846,444181,272091
1571.27,0.213222,436947,267428
1574.32,0.211636,429598,263892
1577.36,0.210267,422039,260067
1580.4,0.209349,414375,255885
1583.43,0.208121,406354,251642
1586.46,0.206582,398475,247639
1590.49,0.204339,388982,242991
1593.51,0.201686,380708,239280
1596.53,0.200105,372727,235118
1599.54,0.198354,365060,231212
1602.55,0.196196,357543,227579
1605.55,0.193969,349495,223600
1608.55,0.192090,341154,219210
1612.54,0.190433,330877,213419
1615.53,0.189651,322904,208652
1618.51,0.188449,315116,204184
1621.49,0.187391,307217,199551
1624.47,0.185638,299481,195313
1627.44,0.186038,292112,190332
1630.41,0.183688,284245,186211
1634.36,0.181531,274079,180445
1637.32,0.182023,266916,175530
1640.27,0.181695,259612,170856
1643.22,0.178971,251804,166760
1646.16,0.178561,244348,161975
1649.1,0.177713,236703,157214
1652.04,0.176843,228171,151851
1655.95,0.173526,215408,144456
1658.88,0.169419,204937,138740
1661.8,0.164515,193395,132413
1664.72,0.156121,179728,125457
1667.63,0.143820,163642,117510
1670.54,0.130692,146312,108290
1673.44,0.115266,128451,98508
1677.31,0.094751,105080,84483
1680.21,0.079541,88906,74027
1683.1,0.077749,75033,62734
1685.99,0.076632,63520,53245
1688.87,0.080305,53714,44646
1691.75,0.085983,45653,37453
1694.62,0.086137,39137,32096
1697.49,0.092382,33776,27304
1701.31,0.100859,28175,22336

File: Column 1_050603_20150331_122455.csv
Method:,Column 1,,
Host Date-Time:,31/3/15 @ 12:24:55,,
Header Version:,1,,
System Temp (C):,34.02,,
Detector Temp (C):,34.76,,
Humidity (%):,1.71,,
Lamp PD:,3818,,
Shift Vector Coefficients:,-10.5391,0.0761263,-0.000134223,,
Pixel to Wavelength Coefficients:,1775.68,-0.916766,-0.000235065,,
Serial Number:,5510004,,
Scan Config Name:,Column 1,,
Scan Config Type:,Slew,,
Section 1,,
Start wavelength (nm):,900,,
End wavelength (nm):,1700,,
Pattern Pixel Width (nm):,   7.03,,,,
Exposure (ms):,  0.635,,,,
Digital Resolution:,228,,
Num Repeats:,6,,
PGA Gain:,64,,
Total Measurement Time in sec:,  2.676,,
Wavelength (nm),Absorbance (AU),Reference Signal (unitless),Sample Signal (unitless)
901.51,0.069505,108485,92441
905.376,0.075061,121306,102052
909.237,0.077880,131909,110254
913.095,0.076968,143299,120026
916.948,0.079358,156982,130765
922.079,0.081640,179937,149101
925.923,0.082499,200504,165815
929.762,0.082567,222660,184109
933.597,0.082306,244426,202228
937.427,0.081187,263972,218963
941.254,0.080119,281845,234364
945.076,0.079397,297271,247603
950.165,0.078177,315605,263613
953.978,0.077120,328029,274658
957.786,0.078006,340470,284494
961.59,0.078382,352317,294138
965.389,0.078048,363056,303337
969.185,0.077747,373162,311997
972.976,0.078620,382632,319272
976.763,0.078720,391202,326348
981.806,0.079316,400190,333388
985.583,0.079755,406088,337960
989.355,0.080418,410162,340830
993.124,0.081018,412868,342605
996.888,0.081114,414263,343686
1000.65,0.081827,415476,344127
1004.4,0.083089,415479,343131
1009.41,0.084241,414358,341299
1013.15,0.084399,412923,339993
1016.89,0.085278,411526,338158
1020.63,0.085214,409066,336186
1024.36,0.084986,406777,334480
1028.09,0.084708,404427,332761
1031.82,0.084600,401911,330773
1036.78,0.085018,398410,327576
1040.49,0.084523,396204,326134
1044.2,0.084257,394236,324713
1047.91,0.084343,392042,322842
1051.61,0.083903,389823,321340
1055.31,0.083617,388234,320241
1059,0.083299,387599,319951
1063.92,0.081750,386688,320340
1067.61,0.080622,386598,321098
1071.29,0.080923,387377,321522
1074.96,0.080741,388536,322619
1078.63,0.080046,389855,324233
1082.3,0.078640,391215,326419
1085.96,0.078068,393215,328520
1090.84,0.077350,396270,331620
1094.49,0.076625,398760,334262
1098.14,0.076314,400987,336369
1101.79,0.075807,403477,338853
1105.43,0.075114,406116,341614
1109.06,0.074748,407701,343237
1112.7,0.074444,409859,345295
1117.53,0.073710,412494,348103
1121.15,0.074292,414909,349672
1124.77,0.074532,416559,350869
1128.38,0.075430,418532,351802
1131.99,0.076789,419956,351896
1135.6,0.078023,421946,352561
1139.2,0.079627,423881,352872
1143.99,0.081859,426786,353469
1147.58,0.082737,428617,354268
1151.17,0.082483,431169,356586
1154.75,0.083987,433579,357340
1158.33,0.085955,436264,357927
1161.91,0.087018,439132,359399
1165.48,0.089688,442389,359846
1169.04,0.090935,446101,361825
1173.79,0.094887,451929,363231
1177.34,0.096836,456026,364883
1180.9,0.098940,461306,367324
1184.44,0.100774,467657,370812
1187.99,0.101925,473969,374822
1191.52,0.102448,479856,379021
1195.06,0.101886,487372,385456
1199.76,0.101057,497347,394096
1203.29,0.100544,504311,400087
1206.81,0.100381,511507,405948
1210.33,0.099207,519078,413072
1213.84,0.098884,527163,419818
1217.35,0.097634,534208,426655
1220.85,0.097372,540472,431918
1225.51,0.096201,549929,440662
1229.01,0.096115,556888,446327
1232.5,0.095257,562180,451459
1235.98,0.095081,567975,456298
1239.46,0.093772,574815,463187
1242.94,0.092769,582782,470692
1246.41,0.092034,591476,478523
1251.03,0.092282,604016,488390
1254.5,0.092619,612289,494695
1257.96,0.092512,619125,500341
1261.41,0.093640,624551,503417
1264.86,0.093618,629900,507754
1268.31,0.094268,634345,510573
1271.75,0.095130,638574,512957
1276.33,0.094996,642499,516269
1279.76,0.095000,645905,519002
1283.19,0.094207,648307,521884
1286.61,0.094174,650446,523645
1290.03,0.093821,652132,525429
1293.44,0.093352,653907,527429
1296.85,0.093443,655963,528977
1301.39,0.093090,657349,530525
1304.8,0.092970,657558,530841
1308.19,0.092947,658515,531641
1311.58,0.093224,658804,531535
1314.97,0.093361,659011,531535
1318.36,0.094361,658272,529717
1321.73,0.093909,658022,530068
1326.23,0.095634,657870,527844
1329.6,0.095613,656482,526756
1332.97,0.096941,654926,523904
1336.33,0.097551,653727,522210
1339.69,0.099230,652497,519216
1343.04,0.100714,649913,515396
1346.39,0.102958,647671,510971
1349.73,0.104719,645338,507070
1354.18,0.107593,641175,500476
1357.52,0.109519,638376,496087
1360.85,0.111463,635805,491882
1364.17,0.113437,633413,487809
1367.49,0.115764,631026,483374
1370.81,0.118397,628050,478186
1374.12,0.120142,625034,473982
1378.54,0.122775,620272,467528
1381.84,0.125776,616892,461778
1385.14,0.128920,613613,456010
1388.43,0.132876,611526,450338
1391.72,0.136864,610663,445592
1395.01,0.141042,610634,441305
1398.29,0.145701,611700,437358
1402.66,0.151852,614051,432865
1405.93,0.156471,616268,429832
1409.2,0.161968,617795,425477
1412.46,0.166299,618872,421990
1415.72,0.170081,619795,418955
1418.98,0.173974,620495,415685
1422.23,0.177098,621087,413099
1426.56,0.180743,621375,409837
1429.8,0.183297,621616,407592
1433.04,0.186167,622129,405241
1436.27,0.188519,621526,402662
1439.5,0.190433,621113,400625
1442.72,0.192769,620921,398352
1445.94,0.195200,620270,395713
1450.23,0.198490,618860,391834
1453.44,0.201478,617697,388416
1456.64,0.204009,616264,385263
1459.85,0.206606,614413,381816
1463.04,0.209738,612307,377773
1466.24,0.213047,610032,373513
1469.43,0.216603,607345,368835
1473.67,0.222830,603789,361456
1476.85,0.228409,601175,355297
1480.02,0.234244,597737,348551
1483.19,0.240551,594479,341653
1486.36,0.246138,591232,335444
1489.52,0.251372,587853,329531
1492.68,0.254267,583875,325127
1496.89,0.256259,578062,320417
1500.03,0.256669,574159,317953
1503.18,0.257102,570285,315493
1506.32,0.256198,565444,313467
1509.45,0.254742,560571,311809
1512.58,0.252915,555821,310470
1515.71,0.251074,550344,308717
1519.87,0.248194,543983,307179
1522.99,0.245450,538764,306160
1526.1,0.242422,533692,305400
1529.21,0.239981,527902,303789
1532.32,0.237458,521886,302077
1535.42,0.234444,515888,300685
1538.51,0.231352,509987,299369
1541.6,0.228264,503936,297928
1545.72,0.224241,494694,295186
1548.8,0.221477,488378,293278
1551.88,0.219264,481832,290825
1554.95,0.217822,474989,287648
1558.02,0.215603,467818,284757
1561.08,0.214749,460730,280994
1564.15,0.214273,454170,277297
1568.22,0.213301,444181,271806
1571.27,0.212352,436947,267964
1574.32,0.212067,429598,263630
1577.36,0.210849,422039,259719
1580.4,0.209478,414375,255809
1583.43,0.207885,406354,251779
1586.46,0.205708,398475,248138
1590.49,0.204574,388982,242860
1593.51,0.202492,380708,238836
1596.53,0.200024,372727,235162
1599.54,0.198127,365060,231333
1602.55,0.197214,357543,227046
1605.55,0.195372,349495,222879
1608.55,0.192427,341154,219040
1612.54,0.190924,330877,213178
1615.53,0.188522,322904,209195
1618.51,0.188381,315116,204216
1621.49,0.187483,307217,199509
1624.47,0.186165,299481,195076
1627.44,0.184600,292112,190963
1630.41,0.183165,284245,186435
1634.36,0.181952,274079,180270
1637.32,0.182120,266916,175491
1640.27,0.181306,259612,171009
1643.22,0.180191,251804,166292
1646.16,0.180385,244348,161296
1649.1,0.178628,236703,156883
1652.04,0.176597,228171,151937
1655.95,0.173965,215408,144310
1658.88,0.170990,204937,138239
1661.8,0.164649,193395,132372
1664.72,0.157483,179728,125064
1667.63,0.144582,163642,117304
1670.54,0.130411,146312,108360
1673.44,0.116303,128451,98273
1677.31,0.095250,105080,84386
1680.21,0.081729,88906,73655
1683.1,0.077106,75033,62827
1685.99,0.080375,63520,52788
1688.87,0.082343,53714,44437
1691.75,0.087342,45653,37336
1694.62,0.089778,39137,31828
1697.49,0.095960,33776,27080
1701.31,0.107520,28175,21996