Folder: textile_sorting_NIRSCAN_/samples/wool/wool-000811 (part 74)

File: Column 1_050570_20150331_120923.csv
Method:,Column 1,,
Host Date-Time:,31/3/15 @ 12:9:23,,
Header Version:,1,,
System Temp (C):,34.08,,
Detector Temp (C):,34.1,,
Humidity (%):,1.76,,
Lamp PD:,3818,,
Shift Vector Coefficients:,-10.5391,0.0761263,-0.000134223,,
Pixel to Wavelength Coefficients:,1775.68,-0.916766,-0.000235065,,
Serial Number:,5510004,,
Scan Config Name:,Column 1,,
Scan Config Type:,Slew,,
Section 1,,
Start wavelength (nm):,900,,
End wavelength (nm):,1700,,
Pattern Pixel Width (nm):,   7.03,,,,
Exposure (ms):,  0.635,,,,
Digital Resolution:,228,,
Num Repeats:,6,,
PGA Gain:,64,,
Total Measurement Time in sec:,  2.681,,
Wavelength (nm),Absorbance (AU),Reference Signal (unitless),Sample Signal (unitless)
901.51,0.034805,108485,100130
905.376,0.040579,121306,110485
909.237,0.044574,131909,119042
913.095,0.044047,143299,129478
916.948,0.045038,156982,141518
922.079,0.048179,179937,161043
925.923,0.049918,200504,178733
929.762,0.049025,222660,198892
933.597,0.049400,244426,218146
937.427,0.048401,263972,236133
941.254,0.048184,281845,252247
945.076,0.047605,297271,266408
950.165,0.046828,315605,283345
953.978,0.046662,328029,294612
957.786,0.046321,340470,306026
961.59,0.046906,352317,316248
965.389,0.046928,363056,325871
969.185,0.047618,373162,334410
972.976,0.047529,382632,342967
976.763,0.048314,391202,350015
981.806,0.048667,400190,357766
985.583,0.049141,406088,362643
989.355,0.050118,410162,365458
993.124,0.050643,412868,367425
996.888,0.050975,414263,368384
1000.65,0.052093,415476,368513
1004.4,0.053385,415479,367421
1009.41,0.054488,414358,365500
1013.15,0.054572,412923,364164
1016.89,0.055068,411526,362518
1020.63,0.055493,409066,359998
1024.36,0.054887,406777,358484
1028.09,0.055013,404427,356309
1031.82,0.054326,401911,354653
1036.78,0.054110,398410,351739
1040.49,0.053984,396204,349893
1044.2,0.054347,394236,347864
1047.91,0.053222,392042,346825
1051.61,0.052270,389823,345619
1055.31,0.052163,388234,344295
1059,0.051882,387599,343954
1063.92,0.050855,386688,343958
1067.61,0.049865,386598,344663
1071.29,0.049639,387377,345537
1074.96,0.048658,388536,347355
1078.63,0.048054,389855,349019
1082.3,0.047485,391215,350696
1085.96,0.046716,393215,353113
1090.84,0.045568,396270,356799
1094.49,0.045848,398760,358809
1098.14,0.045518,400987,361087
1101.79,0.044883,403477,363861
1105.43,0.045043,406116,366106
1109.06,0.044604,407701,367907
1112.7,0.044414,409859,370016
1117.53,0.044403,412494,372404
1121.15,0.045532,414909,373612
1124.77,0.045697,416559,374955
1128.38,0.046472,418532,376060
1131.99,0.047986,419956,376026
1135.6,0.050067,421946,376002
1139.2,0.052296,423881,375792
1143.99,0.054386,426786,376551
1147.58,0.054972,428617,377657
1151.17,0.056427,431169,378635
1154.75,0.057725,433579,379615
1158.33,0.059582,436264,380336
1161.91,0.061973,439132,380734
1165.48,0.063955,442389,381812
1169.04,0.066243,446101,382992
1173.79,0.070344,451929,384349
1177.34,0.072156,456026,386219
1180.9,0.074607,461306,388492
1184.44,0.076953,467657,391719
1187.99,0.077677,473969,396345
1191.52,0.077227,479856,401683
1195.06,0.077377,487372,407834
1199.76,0.075805,497347,417690
1203.29,0.075486,504311,423850
1206.81,0.074810,511507,430568
1210.33,0.073683,519078,438076
1213.84,0.073087,527163,445510
1217.35,0.072248,534208,452337
1220.85,0.071105,540472,458847
1225.51,0.070265,549929,467780
1229.01,0.069771,556888,474239
1232.5,0.069534,562180,479007
1235.98,0.068992,567975,484549
1239.46,0.067352,574815,492239
1242.94,0.066971,582782,499500
1246.41,0.065987,591476,508101
1251.03,0.065669,604016,519253
1254.5,0.066069,612289,525881
1257.96,0.066143,619125,531662
1261.41,0.067002,624551,535261
1264.86,0.067614,629900,539085
1268.31,0.068361,634345,541957
1271.75,0.069056,638574,544697
1276.33,0.069492,642499,547496
1279.76,0.069192,645905,550778
1283.19,0.068692,648307,553463
1286.61,0.068433,650446,555621
1290.03,0.067978,652132,557645
1293.44,0.067371,653907,559944
1296.85,0.067111,655963,562041
1301.39,0.067207,657349,563104
1304.8,0.066871,657558,563719
1308.19,0.067339,658515,563932
1311.58,0.067294,658804,564238
1314.97,0.067904,659011,563623
1318.36,0.068272,658272,562514
1321.73,0.068564,658022,561923
1326.23,0.069509,657870,560571
1329.6,0.070408,656482,558232
1332.97,0.071752,654926,555188
1336.33,0.072674,653727,552996
1339.69,0.074237,652497,549973
1343.04,0.075943,649913,545647
1346.39,0.077880,647671,541346
1349.73,0.080231,645338,536483
1354.18,0.083594,641175,528911
1357.52,0.086172,638376,523485
1360.85,0.087936,635805,519264
1364.17,0.090458,633413,514315
1367.49,0.092860,631026,509551
1370.81,0.095174,628050,504453
1374.12,0.097285,625034,499596
1378.54,0.101017,620272,491547
1381.84,0.104464,616892,485004
1385.14,0.107895,613613,478630
1388.43,0.112169,611526,472330
1391.72,0.116853,610663,466604
1395.01,0.121454,610634,461665
1398.29,0.126784,611700,456830
1402.66,0.133766,614051,451272
1405.93,0.139346,616268,447119
1409.2,0.144900,617795,442532
1412.46,0.150021,618872,438107
1415.72,0.153971,619795,434788
1418.98,0.158239,620495,431022
1422.23,0.162023,621087,427690
1426.56,0.165747,621375,424235
1429.8,0.168713,621616,421511
1433.04,0.171720,622129,418948
1436.27,0.173978,621526,416372
1439.5,0.176045,621113,414119
1442.72,0.178804,620921,411370
1445.94,0.181118,620270,408755
1450.23,0.184871,618860,404316
1453.44,0.188058,617697,400606
1456.64,0.191050,616264,396933
1459.85,0.193841,614413,393205
1463.04,0.196889,612307,389117
1466.24,0.200119,610032,384799
1469.43,0.203997,607345,379698
1473.67,0.209574,603789,372659
1476.85,0.215834,601175,365735
1480.02,0.222423,597737,358168
1483.19,0.229061,594479,350813
1486.36,0.235264,591232,343949
1489.52,0.240967,587853,337522
1492.68,0.243955,583875,332939
1496.89,0.246425,578062,327755
1500.03,0.247510,574159,324730
1503.18,0.247621,570285,322456
1506.32,0.247189,565444,320037
1509.45,0.245543,560571,318484
1512.58,0.243381,555821,317361
1515.71,0.241277,550344,315760
1519.87,0.238264,543983,314283
1522.99,0.235034,538764,313592
1526.1,0.232849,533692,312206
1529.21,0.229462,527902,311237
1532.32,0.226636,521886,309699
1535.42,0.222619,515888,308984
1538.51,0.219821,509987,307424
1541.6,0.217172,503936,305635
1545.72,0.212181,494694,303498
1548.8,0.209359,488378,301576
1551.88,0.206867,481832,299246
1554.95,0.204672,474989,296491
1558.02,0.202815,467818,293266
1561.08,0.202169,460730,289253
1564.15,0.201828,454170,285358
1568.22,0.199904,444181,280321
1571.27,0.199433,436947,276055
1574.32,0.197748,429598,272467
1577.36,0.196842,422039,268232
1580.4,0.194930,414375,264523
1583.43,0.193400,406354,260318
1586.46,0.192349,398475,255889
1590.49,0.189202,388982,251610
1593.51,0.187157,380708,247420
1596.53,0.185072,372727,243399
1599.54,0.183759,365060,239114
1602.55,0.180622,357543,235888
1605.55,0.179190,349495,231340
1608.55,0.176498,341154,227223
1612.54,0.174866,330877,221208
1615.53,0.171874,322904,217370
1618.51,0.171760,315116,212183
1621.49,0.169739,307217,207829
1624.47,0.167730,299481,203535
1627.44,0.167942,292112,198430
1630.41,0.165526,284245,194163
1634.36,0.165280,274079,187325
1637.32,0.163075,266916,183358
1640.27,0.163249,259612,178269
1643.22,0.160716,251804,173919
1646.16,0.161594,244348,168428
1649.1,0.159574,236703,163919
1652.04,0.159161,228171,158161
1655.95,0.156566,215408,150209
1658.88,0.151996,204937,144419
1661.8,0.148882,193395,137266
1664.72,0.139851,179728,130246
1667.63,0.130876,163642,121065
1670.54,0.120485,146312,110865
1673.44,0.105678,128451,100707
1677.31,0.089087,105080,85592
1680.21,0.083235,88906,73400
1683.1,0.076919,75033,62854
1685.99,0.079800,63520,52858
1688.87,0.082372,53714,44434
1691.75,0.087411,45653,37330
1694.62,0.091309,39137,31716
1697.49,0.099195,33776,26879
1701.31,0.104079,28175,22171

File: Column 1_050570_20150331_120935.csv
Method:,Column 1,,
Host Date-Time:,31/3/15 @ 12:9:35,,
Header Version:,1,,
System Temp (C):,34.09,,
Detector Temp (C):,34.18,,
Humidity (%):,1.76,,
Lamp PD:,3818,,
Shift Vector Coefficients:,-10.5391,0.0761263,-0.000134223,,
Pixel to Wavelength Coefficients:,1775.68,-0.916766,-0.000235065,,
Serial Number:,5510004,,
Scan Config Name:,Column 1,,
Scan Config Type:,Slew,,
Section 1,,
Start wavelength (nm):,900,,
End wavelength (nm):,1700,,
Pattern Pixel Width (nm):,   7.03,,,,
Exposure (ms):,  0.635,,,,
Digital Resolution:,228,,
Num Repeats:,6,,
PGA Gain:,64,,
Total Measurement Time in sec:,  2.730,,
Wavelength (nm),Absorbance (AU),Reference Signal (unitless),Sample Signal (unitless)
901.51,0.034108,108485,100291
905.376,0.040245,121306,110570
909.237,0.042514,131909,119608
913.095,0.043253,143299,129715
916.948,0.045622,156982,141328
922.079,0.046287,179937,161746
925.923,0.047440,200504,179756
929.762,0.048438,222660,199161
933.597,0.048553,244426,218572
937.427,0.048861,263972,235883
941.254,0.047441,281845,252679
945.076,0.047112,297271,266711
950.165,0.046438,315605,283600
953.978,0.046503,328029,294720
957.786,0.047449,340470,305232
961.59,0.046946,352317,316219
965.389,0.046451,363056,326229
969.185,0.047011,373162,334878
972.976,0.047885,382632,342686
976.763,0.048058,391202,350222
981.806,0.048831,400190,357631
985.583,0.049771,406088,362117
989.355,0.050025,410162,365536
993.124,0.050307,412868,367709
996.888,0.051106,414263,368273
1000.65,0.051842,415476,368726
1004.4,0.052453,415479,368210
1009.41,0.053809,414358,366072
1013.15,0.054319,412923,364376
1016.89,0.055241,411526,362373
1020.63,0.055024,409066,360387
1024.36,0.055154,406777,358263
1028.09,0.054734,404427,356538
1031.82,0.054430,401911,354568
1036.78,0.054132,398410,351721
1040.49,0.053433,396204,350337
1044.2,0.053453,394236,348581
1047.91,0.053250,392042,346803
1051.61,0.052569,389823,345381
1055.31,0.051071,388234,345162
1059,0.051499,387599,344258
1063.92,0.050454,386688,344276
1067.61,0.049925,386598,344615
1071.29,0.048526,387377,346424
1074.96,0.048787,388536,347252
1078.63,0.047747,389855,349266
1082.3,0.046599,391215,351412
1085.96,0.046918,393215,352949
1090.84,0.045604,396270,356769
1094.49,0.045211,398760,359336
1098.14,0.044885,400987,361614
1101.79,0.044612,403477,364088
1105.43,0.044509,406116,366557
1109.06,0.043916,407701,368490
1112.7,0.044334,409859,370084
1117.53,0.043893,412494,372842
1121.15,0.044916,414909,374142
1124.77,0.045527,416559,375102
1128.38,0.047022,418532,375584
1131.99,0.048267,419956,375783
1135.6,0.050393,421946,375720
1139.2,0.051891,423881,376143
1143.99,0.054270,426786,376652
1147.58,0.055149,428617,377503
1151.17,0.056546,431169,378531
1154.75,0.057490,433579,379820
1158.33,0.058628,436264,381172
1161.91,0.060915,439132,381663
1165.48,0.063785,442389,381961
1169.04,0.066321,446101,382924
1173.79,0.070119,451929,384549
1177.34,0.072171,456026,386206
1180.9,0.074743,461306,388370
1184.44,0.076516,467657,392113
1187.99,0.077142,473969,396833
1191.52,0.076822,479856,402058
1195.06,0.077191,487372,408009
1199.76,0.076148,497347,417361
1203.29,0.075062,504311,424264
1206.81,0.074225,511507,431148
1210.33,0.073645,519078,438114
1213.84,0.072606,527163,446004
1217.35,0.071845,534208,452757
1220.85,0.071458,540472,458474
1225.51,0.070661,549929,467354
1229.01,0.069665,556888,474354
1232.5,0.069009,562180,479586
1235.98,0.068388,567975,485223
1239.46,0.067353,574815,492238
1242.94,0.066650,582782,499869
1246.41,0.065915,591476,508185
1251.03,0.065505,604016,519450
1254.5,0.066029,612289,525929
1257.96,0.066721,619125,530955
1261.41,0.066646,624551,535700
1264.86,0.067605,629900,539097
1268.31,0.068136,634345,542237
1271.75,0.068830,638574,544981
1276.33,0.069312,642499,547722
1279.76,0.069102,645905,550892
1283.19,0.068329,648307,553926
1286.61,0.068285,650446,555810
1290.03,0.067616,652132,558110
1293.44,0.067164,653907,560212
1296.85,0.067140,655963,562004
1301.39,0.067050,657349,563308
1304.8,0.067087,657558,563439
1308.19,0.066987,658515,564389
1311.58,0.067513,658804,563954
1314.97,0.067869,659011,563669
1318.36,0.067957,658272,562922
1321.73,0.068325,658022,562232
1326.23,0.069584,657870,560475
1329.6,0.070277,656482,558400
1332.97,0.071303,654926,555762
1336.33,0.072580,653727,553116
1339.69,0.074162,652497,550068
1343.04,0.075680,649913,545978
1346.39,0.077783,647671,541466
1349.73,0.080149,645338,536585
1354.18,0.083329,641175,529234
1357.52,0.085383,638376,524437
1360.85,0.087984,635805,519206
1364.17,0.089854,633413,515030
1367.49,0.092342,631026,510159
1370.81,0.094668,628050,505040
1374.12,0.097288,625034,499592
1378.54,0.100471,620272,492166
1381.84,0.103846,616892,485694
1385.14,0.107878,613613,478648
1388.43,0.111973,611526,472544
1391.72,0.116154,610663,467356
1395.01,0.121630,610634,461478
1398.29,0.126382,611700,457253
1402.66,0.133560,614051,451486
1405.93,0.139299,616268,447168
1409.2,0.144635,617795,442802
1412.46,0.149570,618872,438562
1415.72,0.153827,619795,434932
1418.98,0.157743,620495,431514
1422.23,0.161906,621087,427806
1426.56,0.165745,621375,424237
1429.8,0.168284,621616,421928
1433.04,0.171685,622129,418982
1436.27,0.173660,621526,416677
1439.5,0.175850,621113,414305
1442.72,0.178469,620921,411687
1445.94,0.180721,620270,409129
1450.23,0.184501,618860,404661
1453.44,0.187311,617697,401296
1456.64,0.191013,616264,396966
1459.85,0.193675,614413,393356
1463.04,0.196424,612307,389534
1466.24,0.200062,610032,384849
1469.43,0.203421,607345,380202
1473.67,0.209675,603789,372572
1476.85,0.215224,601175,366249
1480.02,0.221735,597737,358736
1483.19,0.228545,594479,351230
1486.36,0.234661,591232,344427
1489.52,0.240147,587853,338160
1492.68,0.244652,583875,332405
1496.89,0.246187,578062,327935
1500.03,0.247640,574159,324633
1503.18,0.246955,570285,322951
1506.32,0.246430,565444,320597
1509.45,0.244886,560571,318966
1512.58,0.243364,555821,317374
1515.71,0.241021,550344,315946
1519.87,0.237449,543983,314874
1522.99,0.234787,538764,313770
1526.1,0.232321,533692,312586
1529.21,0.229265,527902,311378
1532.32,0.226578,521886,309740
1535.42,0.223692,515888,308222
1538.51,0.220500,509987,306944
1541.6,0.216548,503936,306075
1545.72,0.212141,494694,303526
1548.8,0.209316,488378,301606
1551.88,0.206618,481832,299418
1554.95,0.204473,474989,296627
1558.02,0.202327,467818,293596
1561.08,0.200914,460730,290090
1564.15,0.200819,454170,286022
1568.22,0.199333,444181,280690
1571.27,0.198661,436947,276546
1574.32,0.198254,429598,272150
1577.36,0.196476,422039,268458
1580.4,0.195420,414375,264225
1583.43,0.193652,406354,260167
1586.46,0.191546,398475,256363
1590.49,0.188957,388982,251752
1593.51,0.187110,380708,247447
1596.53,0.185058,372727,243407
1599.54,0.182945,365060,239563
1602.55,0.180560,357543,235922
1605.55,0.177667,349495,232153
1608.55,0.176021,341154,227473
1612.54,0.174913,330877,221184
1615.53,0.172938,322904,216838
1618.51,0.171089,315116,212511
1621.49,0.169986,307217,207711
1624.47,0.168865,299481,203004
1627.44,0.167561,292112,198604
1630.41,0.165517,284245,194167
1634.36,0.163404,274079,188136
1637.32,0.163473,266916,183190
1640.27,0.162443,259612,178600
1643.22,0.161143,251804,173748
1646.16,0.160616,244348,168808
1649.1,0.160710,236703,163491
1652.04,0.158157,228171,158527
1655.95,0.156141,215408,150356
1658.88,0.151719,204937,144511
1661.8,0.147628,193395,137663
1664.72,0.142088,179728,129577
1667.63,0.130206,163642,121252
1670.54,0.117064,146312,111742
1673.44,0.106170,128451,100593
1677.31,0.086860,105080,86032
1680.21,0.078299,88906,74239
1683.1,0.076961,75033,62848
1685.99,0.080104,63520,52821
1688.87,0.081806,53714,44492
1691.75,0.085913,45653,37459
1694.62,0.093409,39137,31563
1697.49,0.097068,33776,27011
1701.31,0.097701,28175,22499

File: Column 1_050571_20150331_120938.csv
Method:,Column 1,,
Host Date-Time:,31/3/15 @ 12:9:38,,
Header Version:,1,,
System Temp (C):,34.07,,
Detector Temp (C):,34.15,,
Humidity (%):,1.76,,
Lamp PD:,3818,,
Shift Vector Coefficients:,-10.5391,0.0761263,-0.000134223,,
Pixel to Wavelength Coefficients:,1775.68,-0.916766,-0.000235065,,
Serial Number:,5510004,,
Scan Config Name:,Column 1,,
Scan Config Type:,Slew,,
Section 1,,
Start wavelength (nm):,900,,
End wavelength (nm):,1700,,
Pattern Pixel Width (nm):,   7.03,,,,
Exposure (ms):,  0.635,,,,
Digital Resolution:,228,,
Num Repeats:,6,,
PGA Gain:,64,,
Total Measurement Time in sec:,  2.733,,
Wavelength (nm),Absorbance (AU),Reference Signal (unitless),Sample Signal (unitless)
901.51,0.036296,108485,99787
905.376,0.040469,121306,110513
909.237,0.043536,131909,119327
913.095,0.043059,143299,129773
916.948,0.045680,156982,141309
922.079,0.047777,179937,161192
925.923,0.048540,200504,179301
929.762,0.050429,222660,198250
933.597,0.049890,244426,217900
937.427,0.047692,263972,236519
941.254,0.048036,281845,252333
945.076,0.048139,297271,266081
950.165,0.046594,315605,283498
953.978,0.046065,328029,295017
957.786,0.046526,340470,305881
961.59,0.047105,352317,316103
965.389,0.046610,363056,326110
969.185,0.046488,373162,335281
972.976,0.047404,382632,343066
976.763,0.047895,391202,350353
981.806,0.048331,400190,358043
985.583,0.049497,406088,362346
989.355,0.049879,410162,365659
993.124,0.049945,412868,368016
996.888,0.050770,414263,368558
1000.65,0.051518,415476,369001
1004.4,0.053018,415479,367732
1009.41,0.054125,414358,365806
1013.15,0.055077,412923,363741
1016.89,0.055421,411526,362223
1020.63,0.055036,409066,360377
1024.36,0.054753,406777,358594
1028.09,0.054862,404427,356433
1031.82,0.054479,401911,354528
1036.78,0.053746,398410,352034
1040.49,0.053320,396204,350428
1044.2,0.053868,394236,348248
1047.91,0.053163,392042,346872
1051.61,0.052569,389823,345381
1055.31,0.051606,388234,344737
1059,0.051810,387599,344011
1063.92,0.050864,386688,343951
1067.61,0.049827,386598,344693
1071.29,0.049187,387377,345897
1074.96,0.048551,388536,347440
1078.63,0.048134,389855,348955
1082.3,0.047378,391215,350782
1085.96,0.046624,393215,353188
1090.84,0.045969,396270,356469
1094.49,0.045569,398760,359040
1098.14,0.044961,400987,361551
1101.79,0.045010,403477,363755
1105.43,0.045033,406116,366115
1109.06,0.044536,407701,367964
1112.7,0.044068,409859,370311
1117.53,0.044396,412494,372410
1121.15,0.045110,414909,373975
1124.77,0.045856,416559,374818
1128.38,0.047082,418532,375532
1131.99,0.048187,419956,375852
1135.6,0.049935,421946,376116
1139.2,0.051560,423881,376430
1143.99,0.053918,426786,376957
1147.58,0.054807,428617,377800
1151.17,0.056662,431169,378430
1154.75,0.057795,433579,379554
1158.33,0.059976,436264,379991
1161.91,0.061341,439132,381289
1165.48,0.063842,442389,381911
1169.04,0.066248,446101,382988
1173.79,0.070375,451929,384322
1177.34,0.072361,456026,386037
1180.9,0.074959,461306,388177
1184.44,0.076930,467657,391740
1187.99,0.078067,473969,395989
1191.52,0.077679,479856,401266
1195.06,0.076930,487372,408254
1199.76,0.076115,497347,417392
1203.29,0.075686,504311,423655
1206.81,0.074564,511507,430812
1210.33,0.073870,519078,437888
1213.84,0.073123,527163,445474
1217.35,0.072427,534208,452151
1220.85,0.070947,540472,459014
1225.51,0.070715,549929,467296
1229.01,0.069920,556888,474076
1232.5,0.069303,562180,479261
1235.98,0.068642,567975,484939
1239.46,0.067567,574815,491996
1242.94,0.066334,582782,500233
1246.41,0.065714,591476,508421
1251.03,0.065541,604016,519406
1254.5,0.065860,612289,526134
1257.96,0.066257,619125,531522
1261.41,0.067007,624551,535255
1264.86,0.067328,629900,539441
1268.31,0.068301,634345,542032
1271.75,0.069073,638574,544676
1276.33,0.069254,642499,547795
1279.76,0.069228,645905,550732
1283.19,0.068682,648307,553476
1286.61,0.068204,650446,555914
1290.03,0.068035,652132,557572
1293.44,0.067261,653907,560086
1296.85,0.067300,655963,561797
1301.39,0.066929,657349,563465
1304.8,0.067230,657558,563254
1308.19,0.067377,658515,563883
1311.58,0.067150,658804,564425
1314.97,0.067724,659011,563856
1318.36,0.068244,658272,562550
1321.73,0.068367,658022,562178
1326.23,0.069414,657870,560694
1329.6,0.070380,656482,558268
1332.97,0.071219,654926,555870
1336.33,0.072341,653727,553421
1339.69,0.074300,652497,549894
1343.04,0.075829,649913,545791
1346.39,0.078258,647671,540875
1349.73,0.080060,645338,536694
1354.18,0.083321,641175,529243
1357.52,0.086083,638376,523593
1360.85,0.087628,635805,519632
1364.17,0.090107,633413,514730
1367.49,0.092271,631026,510242
1370.81,0.094902,628050,504768
1374.12,0.097433,625034,499425
1378.54,0.100423,620272,492220
1381.84,0.104024,616892,485495
1385.14,0.108073,613613,478433
1388.43,0.112271,611526,472219
1391.72,0.116575,610663,466903
1395.01,0.121416,610634,461705
1398.29,0.126160,611700,457487
1402.66,0.133371,614051,451683
1405.93,0.139153,616268,447318
1409.2,0.144762,617795,442672
1412.46,0.149533,618872,438599
1415.72,0.154129,619795,434629
1418.98,0.157706,620495,431551
1422.23,0.161843,621087,427868
1426.56,0.165957,621375,424030
1429.8,0.168667,621616,421556
1433.04,0.171627,622129,419038
1436.27,0.173715,621526,416624
1439.5,0.175760,621113,414391
1442.72,0.178563,620921,411598
1445.94,0.180499,620270,409338
1450.23,0.184757,618860,404423
1453.44,0.187789,617697,400854
1456.64,0.190338,616264,397584
1459.85,0.193830,614413,393215
1463.04,0.196377,612307,389576
1466.24,0.199613,610032,385247
1469.43,0.203443,607345,380183
1473.67,0.209799,603789,372466
1476.85,0.215809,601175,365756
1480.02,0.221734,597737,358737
1483.19,0.229009,594479,350855
1486.36,0.234871,591232,344260
1489.52,0.240094,587853,338201
1492.68,0.244049,583875,332867
1496.89,0.246741,578062,327517
1500.03,0.246938,574159,325158
1503.18,0.247200,570285,322769
1506.32,0.245922,565444,320972
1509.45,0.245194,560571,318740
1512.58,0.243605,555821,317198
1515.71,0.241111,550344,315881
1519.87,0.238179,543983,314345
1522.99,0.235527,538764,313236
1526.1,0.232281,533692,312615
1529.21,0.229116,527902,311485
1532.32,0.225864,521886,310250
1535.42,0.222642,515888,308968
1538.51,0.220186,509987,307166
1541.6,0.217127,503936,305667
1545.72,0.212221,494694,303470
1548.8,0.208831,488378,301943
1551.88,0.207264,481832,298973
1554.95,0.204826,474989,296386
1558.02,0.202808,467818,293271
1561.08,0.201035,460730,290009
1564.15,0.201092,454170,285842
1568.22,0.199582,444181,280529
1571.27,0.198818,436947,276446
1574.32,0.197544,429598,272595
1577.36,0.196431,422039,268486
1580.4,0.195236,414375,264337
1583.43,0.192925,406354,260603
1586.46,0.192263,398475,255940
1590.49,0.188951,388982,251755
1593.51,0.186982,380708,247520
1596.53,0.185477,372727,243172
1599.54,0.182912,365060,239581
1602.55,0.181337,357543,235500
1605.55,0.178099,349495,231922
1608.55,0.176017,341154,227475
1612.54,0.174169,330877,221563
1615.53,0.172546,322904,217034
1618.51,0.171124,315116,212494
1621.49,0.170465,307217,207482
1624.47,0.168604,299481,203126
1627.44,0.168220,292112,198303
1630.41,0.165334,284245,194249
1634.36,0.164652,274079,187596
1637.32,0.164085,266916,182932
1640.27,0.163400,259612,178207
1643.22,0.161535,251804,173591
1646.16,0.161961,244348,168286
1649.1,0.160689,236703,163499
1652.04,0.158878,228171,158264
1655.95,0.156470,215408,150242
1658.88,0.152595,204937,144220
1661.8,0.148737,193395,137312
1664.72,0.141679,179728,129699
1667.63,0.130751,163642,121100
1670.54,0.118067,146312,111484
1673.44,0.104704,128451,100933
1677.31,0.086663,105080,86071
1680.21,0.078428,88906,74217
1683.1,0.075429,75033,63070
1685.99,0.077522,63520,53136
1688.87,0.083978,53714,44270
1691.75,0.087028,45653,37363
1694.62,0.096641,39137,31329
1697.49,0.095463,33776,27111
1701.31,0.106278,28175,22059