Folder: textile_sorting_NIRSCAN_/samples/wool/wool-000811 (part 4)

File: Column 1_050532_20150331_115130.csv
Method:,Column 1,,
Host Date-Time:,31/3/15 @ 11:51:30,,
Header Version:,1,,
System Temp (C):,30.53,,
Detector Temp (C):,31.1,,
Humidity (%):,4.68,,
Lamp PD:,3830,,
Shift Vector Coefficients:,-10.5391,0.0761263,-0.000134223,,
Pixel to Wavelength Coefficients:,1775.68,-0.916766,-0.000235065,,
Serial Number:,5510004,,
Scan Config Name:,Column 1,,
Scan Config Type:,Slew,,
Section 1,,
Start wavelength (nm):,900,,
End wavelength (nm):,1700,,
Pattern Pixel Width (nm):,   7.03,,,,
Exposure (ms):,  0.635,,,,
Digital Resolution:,228,,
Num Repeats:,6,,
PGA Gain:,64,,
Total Measurement Time in sec:,  2.694,,
Wavelength (nm),Absorbance (AU),Reference Signal (unitless),Sample Signal (unitless)
901.51,0.044880,108485,97834
905.376,0.048961,121306,108373
909.237,0.051907,131909,117049
913.095,0.051452,143299,127289
916.948,0.052869,156982,138989
922.079,0.051960,179937,159647
925.923,0.051806,200504,177958
929.762,0.051704,222660,197669
933.597,0.053686,244426,216004
937.427,0.052333,263972,234005
941.254,0.054506,281845,248602
945.076,0.053871,297271,262592
950.165,0.053672,315605,278915
953.978,0.054216,328029,289532
957.786,0.055311,340470,299756
961.59,0.055454,352317,310084
965.389,0.055760,363056,319311
969.185,0.055687,373162,328254
972.976,0.056698,382632,335802
976.763,0.057088,391202,343015
981.806,0.057712,400190,350392
985.583,0.058894,406088,354590
989.355,0.059480,410162,357664
993.124,0.059877,412868,359695
996.888,0.060677,414263,360246
1000.65,0.061211,415476,360857
1004.4,0.062237,415479,360008
1009.41,0.063530,414358,357969
1013.15,0.064053,412923,356300
1016.89,0.064472,411526,354752
1020.63,0.064093,409066,352940
1024.36,0.064435,406777,350688
1028.09,0.063439,404427,349463
1031.82,0.063762,401911,347031
1036.78,0.062319,398410,345153
1040.49,0.062722,396204,342923
1044.2,0.062052,394236,341747
1047.91,0.061633,392042,340173
1051.61,0.060134,389823,339417
1055.31,0.060018,388234,338124
1059,0.058760,387599,338550
1063.92,0.058450,386688,337995
1067.61,0.057097,386598,338971
1071.29,0.056505,387377,340117
1074.96,0.056164,388536,341403
1078.63,0.055189,389855,343332
1082.3,0.054104,391215,345391
1085.96,0.053765,393215,347428
1090.84,0.052605,396270,351064
1094.49,0.052652,398760,353232
1098.14,0.051955,400987,355775
1101.79,0.051596,403477,358280
1105.43,0.051418,406116,360771
1109.06,0.051317,407701,362264
1112.7,0.050820,409859,364598
1117.53,0.051434,412494,366424
1121.15,0.052301,414909,367834
1124.77,0.053279,416559,368466
1128.38,0.054178,418532,369446
1131.99,0.055699,419956,369407
1135.6,0.057786,421946,369378
1139.2,0.060061,423881,369133
1143.99,0.062394,426786,369672
1147.58,0.064173,428617,369740
1151.17,0.066130,431169,370269
1154.75,0.066876,433579,371700
1158.33,0.068821,436264,372330
1161.91,0.071366,439132,372588
1165.48,0.074457,442389,372690
1169.04,0.077528,446101,373169
1173.79,0.081506,451929,374597
1177.34,0.084679,456026,375241
1180.9,0.086618,461306,377895
1184.44,0.089114,467657,380902
1187.99,0.089602,473969,385610
1191.52,0.089495,479856,390495
1195.06,0.088682,487372,397355
1199.76,0.087298,497347,406782
1203.29,0.085659,504311,414037
1206.81,0.084486,511507,421081
1210.33,0.083634,519078,428153
1213.84,0.082327,527163,436132
1217.35,0.080782,534208,443536
1220.85,0.080266,540472,449270
1225.51,0.078740,549929,458740
1229.01,0.078112,556888,465217
1232.5,0.077077,562180,470759
1235.98,0.076376,567975,476380
1239.46,0.074710,574815,483970
1242.94,0.073915,582782,491576
1246.41,0.073192,591476,499741
1251.03,0.072707,604016,510907
1254.5,0.072647,612289,517976
1257.96,0.073244,619125,523039
1261.41,0.073789,624551,526961
1264.86,0.074427,629900,530694
1268.31,0.075014,634345,533717
1271.75,0.075779,638574,536330
1276.33,0.076189,642499,539117
1279.76,0.076406,645905,541705
1283.19,0.075504,648307,544850
1286.61,0.075085,650446,547175
1290.03,0.075156,652132,548504
1293.44,0.073947,653907,551530
1296.85,0.074060,655963,553120
1301.39,0.073674,657349,554782
1304.8,0.073665,657558,554970
1308.19,0.073854,658515,555535
1311.58,0.074434,658804,555037
1314.97,0.075275,659011,554138
1318.36,0.075432,658272,553316
1321.73,0.076067,658022,552298
1326.23,0.077290,657870,550617
1329.6,0.078570,656482,547839
1332.97,0.079457,654926,545425
1336.33,0.081008,653727,542486
1339.69,0.082922,652497,539084
1343.04,0.084653,649913,534813
1346.39,0.087279,647671,529755
1349.73,0.089966,645338,524592
1354.18,0.093483,641175,517004
1357.52,0.096357,638376,511351
1360.85,0.098292,635805,507028
1364.17,0.100922,633413,502071
1367.49,0.103657,631026,497039
1370.81,0.105997,628050,492036
1374.12,0.109257,625034,486012
1378.54,0.113235,620272,477911
1381.84,0.117092,616892,471104
1385.14,0.121797,613613,463551
1388.43,0.127198,611526,456265
1391.72,0.133480,610663,449078
1395.01,0.139712,610634,442659
1398.29,0.146456,611700,436599
1402.66,0.155504,614051,429240
1405.93,0.163023,616268,423396
1409.2,0.169420,617795,418239
1412.46,0.175797,618872,412861
1415.72,0.181298,619795,408272
1418.98,0.186609,620495,403766
1422.23,0.191642,621087,399494
1426.56,0.196430,621375,395297
1429.8,0.199826,621616,392370
1433.04,0.202578,622129,390214
1436.27,0.205274,621526,387423
1439.5,0.207678,621113,385028
1442.72,0.210319,620921,382576
1445.94,0.213314,620270,379548
1450.23,0.216885,618860,375584
1453.44,0.219809,617697,372363
1456.64,0.222655,616264,369073
1459.85,0.224957,614413,366019
1463.04,0.227749,612307,362427
1466.24,0.230707,610032,358629
1469.43,0.233194,607345,355011
1473.67,0.238466,603789,348674
1476.85,0.242843,601175,343683
1480.02,0.247681,597737,337932
1483.19,0.253846,594479,331353
1486.36,0.258782,591232,325819
1489.52,0.263381,587853,320544
1492.68,0.267468,583875,315393
1496.89,0.269692,578062,310658
1500.03,0.271170,574159,307512
1503.18,0.271310,570285,305339
1506.32,0.270721,565444,303158
1509.45,0.269130,560571,301648
1512.58,0.268374,555821,299613
1515.71,0.265591,550344,298568
1519.87,0.263303,543983,296676
1522.99,0.259402,538764,296481
1526.1,0.258472,533692,294319
1529.21,0.254504,527902,293798
1532.32,0.251600,521886,292399
1535.42,0.248276,515888,291259
1538.51,0.244963,509987,290132
1541.6,0.241889,503936,288726
1545.72,0.236394,494694,287040
1548.8,0.233317,488378,285390
1551.88,0.230724,481832,283251
1554.95,0.228249,474989,280824
1558.02,0.226720,467818,277560
1561.08,0.225257,460730,274277
1564.15,0.223500,454170,271468
1568.22,0.222562,444181,266071
1571.27,0.222280,436947,261908
1574.32,0.220493,429598,258565
1577.36,0.218385,422039,255251
1580.4,0.217251,414375,251271
1583.43,0.215005,406354,247685
1586.46,0.213175,398475,243908
1590.49,0.211283,388982,239137
1593.51,0.208415,380708,235601
1596.53,0.205852,372727,232027
1599.54,0.203689,365060,228389
1602.55,0.201362,357543,224888
1605.55,0.198458,349495,221301
1608.55,0.196363,341154,217064
1612.54,0.194291,330877,211532
1615.53,0.191718,322904,207661
1618.51,0.190463,315116,203239
1621.49,0.188998,307217,198814
1624.47,0.187097,299481,194658
1627.44,0.184575,292112,190974
1630.41,0.183503,284245,186290
1634.36,0.181707,274079,180372
1637.32,0.180425,266916,176177
1640.27,0.180139,259612,171469
1643.22,0.177959,251804,167149
1646.16,0.178105,244348,162145
1649.1,0.177983,236703,157116
1652.04,0.177335,228171,151679
1655.95,0.174715,215408,144061
1658.88,0.174729,204937,137054
1661.8,0.173700,193395,129642
1664.72,0.171285,179728,121152
1667.63,0.168294,163642,111071
1670.54,0.163261,146312,100466
1673.44,0.160388,128451,88787
1677.31,0.157205,105080,73167
1680.21,0.160635,88906,61418
1683.1,0.160512,75033,51849
1685.99,0.169846,63520,42960
1688.87,0.172376,53714,36117
1691.75,0.173805,45653,30596
1694.62,0.177213,39137,26024
1697.49,0.178205,33776,22408
1701.31,0.182974,28175,18488

File: Column 1_050533_20150331_115136.csv
Method:,Column 1,,
Host Date-Time:,31/3/15 @ 11:51:36,,
Header Version:,1,,
System Temp (C):,30.62,,
Detector Temp (C):,30.89,,
Humidity (%):,4.63,,
Lamp PD:,3830,,
Shift Vector Coefficients:,-10.5391,0.0761263,-0.000134223,,
Pixel to Wavelength Coefficients:,1775.68,-0.916766,-0.000235065,,
Serial Number:,5510004,,
Scan Config Name:,Column 1,,
Scan Config Type:,Slew,,
Section 1,,
Start wavelength (nm):,900,,
End wavelength (nm):,1700,,
Pattern Pixel Width (nm):,   7.03,,,,
Exposure (ms):,  0.635,,,,
Digital Resolution:,228,,
Num Repeats:,6,,
PGA Gain:,64,,
Total Measurement Time in sec:,  2.677,,
Wavelength (nm),Absorbance (AU),Reference Signal (unitless),Sample Signal (unitless)
901.51,0.042688,108485,98329
905.376,0.049820,121306,108159
909.237,0.047947,131909,118121
913.095,0.050011,143299,127712
916.948,0.050051,156982,139894
922.079,0.049884,179937,160412
925.923,0.049348,200504,178968
929.762,0.050753,222660,198102
933.597,0.051522,244426,217083
937.427,0.051187,263972,234623
941.254,0.052849,281845,249552
945.076,0.052365,297271,263504
950.165,0.052953,315605,279377
953.978,0.052844,328029,290448
957.786,0.053727,340470,300851
961.59,0.054341,352317,310880
965.389,0.054106,363056,320529
969.185,0.054581,373162,329091
972.976,0.054957,382632,337151
976.763,0.055892,391202,343961
981.806,0.056578,400190,351308
985.583,0.057606,406088,355643
989.355,0.058082,410162,358817
993.124,0.058446,412868,360882
996.888,0.059238,414263,361442
1000.65,0.059764,415476,362061
1004.4,0.061228,415479,360845
1009.41,0.062569,414358,358762
1013.15,0.063195,412923,357005
1016.89,0.062917,411526,356025
1020.63,0.063059,409066,353781
1024.36,0.062974,406777,351870
1028.09,0.062659,404427,350091
1031.82,0.062883,401911,347734
1036.78,0.062071,398410,345350
1040.49,0.061344,396204,344013
1044.2,0.060893,394236,342660
1047.91,0.060586,392042,340994
1051.61,0.059553,389823,339871
1055.31,0.059157,388234,338795
1059,0.058150,387599,339026
1063.92,0.056932,386688,339179
1067.61,0.055722,386598,340046
1071.29,0.055054,387377,341256
1074.96,0.054567,388536,342661
1078.63,0.054263,389855,344065
1082.3,0.052875,391215,346370
1085.96,0.052123,393215,348744
1090.84,0.051695,396270,351800
1094.49,0.051048,398760,354539
1098.14,0.050618,400987,356872
1101.79,0.050125,403477,359496
1105.43,0.050704,406116,361365
1109.06,0.049566,407701,363727
1112.7,0.050063,409859,365234
1117.53,0.049918,412494,367705
1121.15,0.051389,414909,368607
1124.77,0.051413,416559,370053
1128.38,0.052699,418532,370706
1131.99,0.054711,419956,370248
1135.6,0.056632,421946,370361
1139.2,0.059073,423881,369974
1143.99,0.061836,426786,370147
1147.58,0.062831,428617,370884
1151.17,0.064941,431169,371284
1154.75,0.066410,433579,372099
1158.33,0.068004,436264,373031
1161.91,0.071324,439132,372624
1165.48,0.073572,442389,373450
1169.04,0.076550,446101,374010
1173.79,0.080934,451929,375091
1177.34,0.083317,456026,376420
1180.9,0.086060,461306,378381
1184.44,0.087495,467657,382325
1187.99,0.088870,473969,386260
1191.52,0.087933,479856,391902
1195.06,0.087644,487372,398306
1199.76,0.086291,497347,407726
1203.29,0.084517,504311,415127
1206.81,0.083508,511507,422030
1210.33,0.082643,519078,429131
1213.84,0.081461,527163,437002
1217.35,0.079899,534208,444438
1220.85,0.079336,540472,450233
1225.51,0.077790,549929,459745
1229.01,0.077000,556888,466410
1232.5,0.076420,562180,471471
1235.98,0.075400,567975,477451
1239.46,0.074441,574815,484269
1242.94,0.072997,582782,492617
1246.41,0.072077,591476,501026
1251.03,0.072166,604016,511543
1254.5,0.072061,612289,518675
1257.96,0.072615,619125,523798
1261.41,0.073053,624551,527855
1264.86,0.073722,629900,531557
1268.31,0.074085,634345,534860
1271.75,0.074886,638574,537434
1276.33,0.075197,642499,540350
1279.76,0.074890,645905,543599
1283.19,0.074843,648307,545680
1286.61,0.074443,650446,547985
1290.03,0.073827,652132,550185
1293.44,0.073108,653907,552596
1296.85,0.072876,655963,554630
1301.39,0.072960,657349,555695
1304.8,0.073027,657558,555785
1308.19,0.073430,658515,556078
1311.58,0.073442,658804,556307
1314.97,0.073933,659011,555852
1318.36,0.074619,658272,554353
1321.73,0.075102,658022,553526
1326.23,0.076337,657870,551827
1329.6,0.077411,656482,549303
1332.97,0.078869,654926,546164
1336.33,0.079914,653727,543854
1339.69,0.082350,652497,539794
1343.04,0.084079,649913,535521
1346.39,0.086412,647671,530814
1349.73,0.089024,645338,525731
1354.18,0.092702,641175,517934
1357.52,0.095145,638376,512781
1360.85,0.097579,635805,507861
1364.17,0.100168,633413,502943
1367.49,0.102911,631026,497893
1370.81,0.105441,628050,492667
1374.12,0.108283,625034,487103
1378.54,0.111890,620272,479394
1381.84,0.115903,616892,472396
1385.14,0.121117,613613,464277
1388.43,0.126540,611526,456957
1391.72,0.132382,610663,450215
1395.01,0.138131,610634,444273
1398.29,0.144926,611700,438140
1402.66,0.154378,614051,430355
1405.93,0.161594,616268,424791
1409.2,0.168597,617795,419032
1412.46,0.175209,618872,413420
1415.72,0.180334,619795,409180
1418.98,0.185514,620495,404785
1422.23,0.190091,621087,400923
1426.56,0.195047,621375,396558
1429.8,0.199013,621616,393106
1433.04,0.201840,622129,390877
1436.27,0.204555,621526,388065
1439.5,0.206700,621113,385896
1442.72,0.209663,620921,383154
1445.94,0.212150,620270,380567
1450.23,0.216000,618860,376350
1453.44,0.218480,617697,373504
1456.64,0.221834,616264,369771
1459.85,0.224190,614413,366666
1463.04,0.226613,612307,363376
1466.24,0.229498,610032,359629
1469.43,0.232077,607345,355925
1473.67,0.236710,603789,350086
1476.85,0.241284,601175,344919
1480.02,0.246683,597737,338709
1483.19,0.252267,594479,332560
1486.36,0.257916,591232,326469
1489.52,0.263350,587853,320567
1492.68,0.266339,583875,316214
1496.89,0.269397,578062,310869
1500.03,0.268724,574159,309249
1503.18,0.270619,570285,305825
1506.32,0.269476,565444,304028
1509.45,0.269080,560571,301683
1512.58,0.267393,555821,300291
1515.71,0.265056,550344,298936
1519.87,0.261747,543983,297741
1522.99,0.258942,538764,296795
1526.1,0.256622,533692,295576
1529.21,0.253241,527902,294654
1532.32,0.251036,521886,292779
1535.42,0.246908,515888,292178
1538.51,0.243909,509987,290837
1541.6,0.240028,503936,289966
1545.72,0.235697,494694,287501
1548.8,0.232419,488378,285981
1551.88,0.230428,481832,283444
1554.95,0.226817,474989,281752
1558.02,0.224993,467818,278666
1561.08,0.223412,460730,275445
1564.15,0.223086,454170,271727
1568.22,0.221456,444181,266750
1571.27,0.221331,436947,262481
1574.32,0.218702,429598,259633
1577.36,0.217503,422039,255770
1580.4,0.215841,414375,252088
1583.43,0.214554,406354,247942
1586.46,0.212307,398475,244396
1590.49,0.209702,388982,240009
1593.51,0.207755,380708,235959
1596.53,0.204529,372727,232735
1599.54,0.203317,365060,228585
1602.55,0.199831,357543,225682
1605.55,0.198526,349495,221266
1608.55,0.195943,341154,217274
1612.54,0.193275,330877,212027
1615.53,0.190918,322904,208044
1618.51,0.188238,315116,204283
1621.49,0.187100,307217,199685
1624.47,0.185921,299481,195186
1627.44,0.184673,292112,190931
1630.41,0.182851,284245,186570
1634.36,0.180752,274079,180769
1637.32,0.180223,266916,176259
1640.27,0.178809,259612,171995
1643.22,0.177767,251804,167223
1646.16,0.176816,244348,162627
1649.1,0.177558,236703,157270
1652.04,0.175558,228171,152301
1655.95,0.173989,215408,144302
1658.88,0.172813,204937,137660
1661.8,0.171104,193395,130419
1664.72,0.170340,179728,121416
1667.63,0.165601,163642,111762
1670.54,0.163187,146312,100483
1673.44,0.159948,128451,88877
1677.31,0.155505,105080,73454
1680.21,0.154039,88906,62358
1683.1,0.160805,75033,51814
1685.99,0.168081,63520,43135
1688.87,0.167093,53714,36559
1691.75,0.173592,45653,30611
1694.62,0.172632,39137,26300
1697.49,0.180401,33776,22295
1701.31,0.181169,28175,18565

File: Column 1_050533_20150331_115144.csv
Method:,Column 1,,
Host Date-Time:,31/3/15 @ 11:51:44,,
Header Version:,1,,
System Temp (C):,30.7,,
Detector Temp (C):,30.75,,
Humidity (%):,4.58,,
Lamp PD:,3829,,
Shift Vector Coefficients:,-10.5391,0.0761263,-0.000134223,,
Pixel to Wavelength Coefficients:,1775.68,-0.916766,-0.000235065,,
Serial Number:,5510004,,
Scan Config Name:,Column 1,,
Scan Config Type:,Slew,,
Section 1,,
Start wavelength (nm):,900,,
End wavelength (nm):,1700,,
Pattern Pixel Width (nm):,   7.03,,,,
Exposure (ms):,  0.635,,,,
Digital Resolution:,228,,
Num Repeats:,6,,
PGA Gain:,64,,
Total Measurement Time in sec:,  2.677,,
Wavelength (nm),Absorbance (AU),Reference Signal (unitless),Sample Signal (unitless)
901.51,0.042657,108485,98336
905.376,0.049017,121306,108359
909.237,0.051002,131909,117293
913.095,0.050188,143299,127660
916.948,0.050510,156982,139746
922.079,0.050428,179937,160211
925.923,0.051094,200504,178250
929.762,0.050591,222660,198176
933.597,0.052930,244426,216380
937.427,0.052312,263972,234016
941.254,0.053631,281845,249103
945.076,0.053316,297271,262928
950.165,0.053424,315605,279074
953.978,0.053004,328029,290341
957.786,0.053348,340470,301114
961.59,0.054406,352317,310833
965.389,0.054520,363056,320224
969.185,0.055180,373162,328638
972.976,0.055576,382632,336671
976.763,0.056334,391202,343611
981.806,0.056046,400190,351739
985.583,0.057411,406088,355803
989.355,0.058113,410162,358792
993.124,0.058521,412868,360820
996.888,0.058990,414263,361648
1000.65,0.060430,415476,361506
1004.4,0.061320,415479,360769
1009.41,0.062463,414358,358850
1013.15,0.062681,412923,357428
1016.89,0.063600,411526,355465
1020.63,0.063531,409066,353397
1024.36,0.062980,406777,351865
1028.09,0.062438,404427,350269
1031.82,0.062062,401911,348392
1036.78,0.061758,398410,345599
1040.49,0.061761,396204,343683
1044.2,0.060979,394236,342592
1047.91,0.060433,392042,341114
1051.61,0.059604,389823,339831
1055.31,0.058864,388234,339023
1059,0.057929,387599,339198
1063.92,0.056874,386688,339224
1067.61,0.056073,386598,339771
1071.29,0.055292,387377,341069
1074.96,0.054537,388536,342684
1078.63,0.054562,389855,343828
1082.3,0.053639,391215,345761
1085.96,0.052557,393215,348396
1090.84,0.052149,396270,351433
1094.49,0.051608,398760,354082
1098.14,0.051439,400987,356198
1101.79,0.050116,403477,359503
1105.43,0.050581,406116,361467
1109.06,0.049624,407701,363679
1112.7,0.050113,409859,365192
1117.53,0.049993,412494,367642
1121.15,0.051177,414909,368787
1124.77,0.051746,416559,369769
1128.38,0.053349,418532,370152
1131.99,0.055296,419956,369750
1135.6,0.057137,421946,369930
1139.2,0.059277,423881,369800
1143.99,0.062074,426786,369944
1147.58,0.062854,428617,370865
1151.17,0.064564,431169,371607
1154.75,0.066318,433579,372178
1158.33,0.068164,436264,372894
1161.91,0.070422,439132,373399
1165.48,0.073650,442389,373383
1169.04,0.076745,446101,373842
1173.79,0.080483,451929,375480
1177.34,0.083836,456026,375970
1180.9,0.086107,461306,378340
1184.44,0.088068,467657,381821
1187.99,0.089041,473969,386108
1191.52,0.088063,479856,391785
1195.06,0.087548,487372,398394
1199.76,0.086095,497347,407910
1203.29,0.084682,504311,414970
1206.81,0.083812,511507,421735
1210.33,0.082526,519078,429246
1213.84,0.081513,527163,436950
1217.35,0.080134,534208,444198
1220.85,0.078855,540472,450732
1225.51,0.077891,549929,459638
1229.01,0.077259,556888,466132
1232.5,0.076180,562180,471732
1235.98,0.075510,567975,477330
1239.46,0.074259,574815,484473
1242.94,0.073385,582782,492177
1246.41,0.072495,591476,500544
1251.03,0.071687,604016,512108
1254.5,0.071989,612289,518761
1257.96,0.072075,619125,524449
1261.41,0.072774,624551,528195
1264.86,0.073353,629900,532009
1268.31,0.073975,634345,534996
1271.75,0.075087,638574,537186
1276.33,0.075170,642499,540384
1279.76,0.075160,645905,543261
1283.19,0.074680,648307,545885
1286.61,0.074149,650446,548356
1290.03,0.073813,652132,550202
1293.44,0.073049,653907,552671
1296.85,0.073115,655963,554325
1301.39,0.073094,657349,555523
1304.8,0.072954,657558,555879
1308.19,0.073284,658515,556265
1311.58,0.073867,658804,555762
1314.97,0.074105,659011,555633
1318.36,0.075139,658272,553690
1321.73,0.074903,658022,553780
1326.23,0.076472,657870,551656
1329.6,0.077239,656482,549520
1332.97,0.078689,654926,546390
1336.33,0.080246,653727,543439
1339.69,0.082045,652497,540174
1343.04,0.083988,649913,535633
1346.39,0.086636,647671,530540
1349.73,0.089067,645338,525678
1354.18,0.092605,641175,518050
1357.52,0.095074,638376,512864
1360.85,0.097533,635805,507915
1364.17,0.100184,633413,502925
1367.49,0.102903,631026,497902
1370.81,0.105457,628050,492649
1374.12,0.108537,625034,486818
1378.54,0.112456,620272,478769
1381.84,0.116074,616892,472210
1385.14,0.121008,613613,464394
1388.43,0.126616,611526,456877
1391.72,0.132823,610663,449758
1395.01,0.138708,610634,443683
1398.29,0.145168,611700,437896
1402.66,0.154404,614051,430329
1405.93,0.161682,616268,424705
1409.2,0.168643,617795,418988
1412.46,0.175340,618872,413296
1415.72,0.180193,619795,409313
1418.98,0.185781,620495,404536
1422.23,0.190441,621087,400600
1426.56,0.194920,621375,396674
1429.8,0.198048,621616,393980
1433.04,0.201220,622129,391436
1436.27,0.204342,621526,388255
1439.5,0.206327,621113,386228
1442.72,0.209212,620921,383552
1445.94,0.212015,620270,380685
1450.23,0.215099,618860,377132
1453.44,0.218493,617697,373493
1456.64,0.221135,616264,370367
1459.85,0.223968,614413,366853
1463.04,0.226361,612307,363587
1466.24,0.229762,610032,359410
1469.43,0.232558,607345,355531
1473.67,0.237485,603789,349462
1476.85,0.241712,601175,344579
1480.02,0.246790,597737,338626
1483.19,0.252460,594479,332412
1486.36,0.258210,591232,326248
1489.52,0.263284,587853,320616
1492.68,0.266759,583875,315908
1496.89,0.269449,578062,310832
1500.03,0.269997,574159,308344
1503.18,0.270092,570285,306196
1506.32,0.269272,565444,304171
1509.45,0.268694,560571,301951
1512.58,0.267859,555821,299969
1515.71,0.265124,550344,298889
1519.87,0.262274,543983,297380
1522.99,0.259685,538764,296288
1526.1,0.257130,533692,295230
1529.21,0.253551,527902,294444
1532.32,0.250077,521886,293426
1535.42,0.247272,515888,291933
1538.51,0.244001,509987,290776
1541.6,0.240827,503936,289433
1545.72,0.235644,494694,287536
1548.8,0.232960,488378,285625
1551.88,0.230136,481832,283635
1554.95,0.227310,474989,281432
1558.02,0.225199,467818,278534
1561.08,0.224051,460730,275040
1564.15,0.222913,454170,271835
1568.22,0.221649,444181,266631
1571.27,0.221334,436947,262479
1574.32,0.219890,429598,258924
1577.36,0.217588,422039,255720
1580.4,0.216281,414375,251833
1583.43,0.214507,406354,247969
1586.46,0.212485,398475,244296
1590.49,0.210006,388982,239841
1593.51,0.207612,380708,236037
1596.53,0.204678,372727,232655
1599.54,0.202821,365060,228846
1602.55,0.199941,357543,225625
1605.55,0.198385,349495,221338
1608.55,0.196547,341154,216972
1612.54,0.193419,330877,211957
1615.53,0.190211,322904,208383
1618.51,0.189558,315116,203663
1621.49,0.188950,307217,198836
1624.47,0.187104,299481,194655
1627.44,0.185556,292112,190543
1630.41,0.184241,284245,185974
1634.36,0.182251,274079,180146
1637.32,0.181099,266916,175904
1640.27,0.179909,259612,171560
1643.22,0.179124,251804,166701
1646.16,0.178397,244348,162036
1649.1,0.177931,236703,157135
1652.04,0.175914,228171,152176
1655.95,0.175222,215408,143893
1658.88,0.174545,204937,137112
1661.8,0.174065,193395,129533
1664.72,0.170583,179728,121348
1667.63,0.167080,163642,111382
1670.54,0.165828,146312,99874
1673.44,0.161902,128451,88478
1677.31,0.158733,105080,72910
1680.21,0.155784,88906,62108
1683.1,0.163496,75033,51494
1685.99,0.169907,63520,42954
1688.87,0.174703,53714,35924
1691.75,0.171497,45653,30759
1694.62,0.180228,39137,25844
1697.49,0.197606,33776,21429
1701.31,0.181824,28175,18537