Folder: textile_sorting_NIRSCAN_/samples/wool/wool-000811 (part 131)

File: Column 1_050604_20150331_122535.csv
Method:,Column 1,,
Host Date-Time:,31/3/15 @ 12:25:35,,
Header Version:,1,,
System Temp (C):,33.99,,
Detector Temp (C):,34.82,,
Humidity (%):,1.71,,
Lamp PD:,3818,,
Shift Vector Coefficients:,-10.5391,0.0761263,-0.000134223,,
Pixel to Wavelength Coefficients:,1775.68,-0.916766,-0.000235065,,
Serial Number:,5510004,,
Scan Config Name:,Column 1,,
Scan Config Type:,Slew,,
Section 1,,
Start wavelength (nm):,900,,
End wavelength (nm):,1700,,
Pattern Pixel Width (nm):,   7.03,,,,
Exposure (ms):,  0.635,,,,
Digital Resolution:,228,,
Num Repeats:,6,,
PGA Gain:,64,,
Total Measurement Time in sec:,  2.729,,
Wavelength (nm),Absorbance (AU),Reference Signal (unitless),Sample Signal (unitless)
901.51,0.068585,108485,92637
905.376,0.075308,121306,101994
909.237,0.075915,131909,110754
913.095,0.075905,143299,120320
916.948,0.078433,156982,131044
922.079,0.081119,179937,149280
925.923,0.081926,200504,166034
929.762,0.081556,222660,184538
933.597,0.081864,244426,202434
937.427,0.080830,263972,219143
941.254,0.080108,281845,234370
945.076,0.079314,297271,247650
950.165,0.078619,315605,263345
953.978,0.077352,328029,274511
957.786,0.077937,340470,284539
961.59,0.077713,352317,294592
965.389,0.077423,363056,303774
969.185,0.077375,373162,312264
972.976,0.078006,382632,319724
976.763,0.078423,391202,326571
981.806,0.078956,400190,333665
985.583,0.079856,406088,337881
989.355,0.079633,410162,341446
993.124,0.080315,412868,343160
996.888,0.080393,414263,344257
1000.65,0.081673,415476,344249
1004.4,0.082268,415479,343780
1009.41,0.084035,414358,341461
1013.15,0.084533,412923,339888
1016.89,0.085032,411526,338349
1020.63,0.084797,409066,336509
1024.36,0.085203,406777,334313
1028.09,0.084624,404427,332825
1031.82,0.083943,401911,331274
1036.78,0.084234,398410,328168
1040.49,0.084143,396204,326419
1044.2,0.083763,394236,325082
1047.91,0.083859,392042,323202
1051.61,0.082863,389823,322110
1055.31,0.082750,388234,320881
1059,0.082384,387599,320626
1063.92,0.080968,386688,320917
1067.61,0.081081,386598,320759
1071.29,0.080085,387377,322143
1074.96,0.079617,388536,323455
1078.63,0.079551,389855,324603
1082.3,0.078398,391215,326601
1085.96,0.077595,393215,328878
1090.84,0.077182,396270,331749
1094.49,0.076321,398760,334496
1098.14,0.075160,400987,337264
1101.79,0.075376,403477,339190
1105.43,0.074482,406116,342112
1109.06,0.074334,407701,343564
1112.7,0.073558,409859,346000
1117.53,0.073181,412494,348527
1121.15,0.073939,414909,349956
1124.77,0.074283,416559,351070
1128.38,0.075117,418532,352056
1131.99,0.076144,419956,352419
1135.6,0.077522,421946,352968
1139.2,0.078886,423881,353474
1143.99,0.080992,426786,354175
1147.58,0.081687,428617,355126
1151.17,0.082865,431169,356273
1154.75,0.083576,433579,357678
1158.33,0.085301,436264,358466
1161.91,0.086420,439132,359894
1165.48,0.089042,442389,360381
1169.04,0.091051,446101,361728
1173.79,0.094101,451929,363889
1177.34,0.095766,456026,365783
1180.9,0.098927,461306,367335
1184.44,0.100274,467657,371239
1187.99,0.101495,473969,375193
1191.52,0.101517,479856,379834
1195.06,0.101352,487372,385930
1199.76,0.100622,497347,394491
1203.29,0.099826,504311,400749
1206.81,0.099224,511507,407031
1210.33,0.098800,519078,413459
1213.84,0.098334,527163,420350
1217.35,0.097513,534208,426773
1220.85,0.097147,540472,432142
1225.51,0.095938,549929,440929
1229.01,0.096147,556888,446294
1232.5,0.094815,562180,451919
1235.98,0.094478,567975,456932
1239.46,0.093217,574815,463779
1242.94,0.091969,582782,471560
1246.41,0.091837,591476,478740
1251.03,0.091826,604016,488903
1254.5,0.092078,612289,495311
1257.96,0.092563,619125,500283
1261.41,0.092877,624551,504302
1264.86,0.093584,629900,507794
1268.31,0.093822,634345,511097
1271.75,0.094466,638574,513742
1276.33,0.094910,642499,516372
1279.76,0.094387,645905,519735
1283.19,0.094321,648307,521747
1286.61,0.093592,650446,524347
1290.03,0.093787,652132,525471
1293.44,0.092801,653907,528098
1296.85,0.092629,655963,529969
1301.39,0.092510,657349,531234
1304.8,0.092077,657558,531933
1308.19,0.092777,658515,531849
1311.58,0.092496,658804,532427
1314.97,0.093280,659011,531634
1318.36,0.093723,658272,530496
1321.73,0.093817,658022,530180
1326.23,0.094702,657870,528978
1329.6,0.095338,656482,527090
1332.97,0.096159,654926,524848
1336.33,0.097660,653727,522079
1339.69,0.098950,652497,519551
1343.04,0.100400,649913,515769
1346.39,0.101975,647671,512129
1349.73,0.103953,645338,507966
1354.18,0.107261,641175,500859
1357.52,0.109366,638376,496262
1360.85,0.111116,635805,492275
1364.17,0.112837,633413,488484
1367.49,0.115201,631026,484001
1370.81,0.117595,628050,479070
1374.12,0.119615,625034,474557
1378.54,0.121795,620272,468584
1381.84,0.125506,616892,462065
1385.14,0.128456,613613,456498
1388.43,0.131775,611526,451481
1391.72,0.136243,610663,446230
1395.01,0.140741,610634,441611
1398.29,0.145070,611700,437994
1402.66,0.151044,614051,433671
1405.93,0.156226,616268,430074
1409.2,0.160732,617795,426690
1412.46,0.165371,618872,422892
1415.72,0.168853,619795,420141
1418.98,0.173189,620495,416437
1422.23,0.176466,621087,413701
1426.56,0.180345,621375,410212
1429.8,0.182406,621616,408429
1433.04,0.185046,622129,406288
1436.27,0.187152,621526,403931
1439.5,0.189699,621113,401302
1442.72,0.191232,620921,399765
1445.94,0.193982,620270,396825
1450.23,0.197681,618860,392565
1453.44,0.200251,617697,389515
1456.64,0.203465,616264,385746
1459.85,0.206005,614413,382345
1463.04,0.208904,612307,378499
1466.24,0.212482,610032,373999
1469.43,0.216097,607345,369265
1473.67,0.222207,603789,361975
1476.85,0.227369,601175,356149
1480.02,0.233790,597737,348915
1483.19,0.239446,594479,342524
1486.36,0.245570,591232,335883
1489.52,0.249794,587853,330731
1492.68,0.253338,583875,325823
1496.89,0.255472,578062,320998
1500.03,0.256766,574159,317882
1503.18,0.256380,570285,316018
1506.32,0.255381,565444,314057
1509.45,0.253893,560571,312419
1512.58,0.252861,555821,310509
1515.71,0.250131,550344,309388
1519.87,0.247848,543983,307424
1522.99,0.244788,538764,306627
1526.1,0.242073,533692,305645
1529.21,0.239079,527902,304421
1532.32,0.236557,521886,302704
1535.42,0.233696,515888,301203
1538.51,0.231249,509987,299440
1541.6,0.228076,503936,298057
1545.72,0.223347,494694,295794
1548.8,0.221104,488378,293530
1551.88,0.218935,481832,291045
1554.95,0.217448,474989,287896
1558.02,0.214687,467818,285358
1561.08,0.213334,460730,281911
1564.15,0.213657,454170,277691
1568.22,0.212335,444181,272411
1571.27,0.212516,436947,267863
1574.32,0.211419,429598,264024
1577.36,0.210433,422039,259968
1580.4,0.209174,414375,255988
1583.43,0.207239,406354,252154
1586.46,0.205267,398475,248390
1590.49,0.203129,388982,243669
1593.51,0.201286,380708,239500
1596.53,0.200341,372727,234990
1599.54,0.197187,365060,231834
1602.55,0.196080,357543,227640
1605.55,0.193430,349495,223878
1608.55,0.192272,341154,219118
1612.54,0.190015,330877,213625
1615.53,0.188699,322904,209110
1618.51,0.187255,315116,204746
1621.49,0.185957,307217,200211
1624.47,0.185694,299481,195288
1627.44,0.183814,292112,191309
1630.41,0.183492,284245,186295
1634.36,0.182386,274079,180090
1637.32,0.180805,266916,176023
1640.27,0.180720,259612,171240
1643.22,0.180008,251804,166362
1646.16,0.180541,244348,161238
1649.1,0.178196,236703,157039
1652.04,0.176200,228171,152076
1655.95,0.174544,215408,144118
1658.88,0.170673,204937,138340
1661.8,0.165477,193395,132120
1664.72,0.157348,179728,125103
1667.63,0.144678,163642,117278
1670.54,0.130732,146312,108280
1673.44,0.116967,128451,98123
1677.31,0.094463,105080,84539
1680.21,0.078931,88906,74131
1683.1,0.076795,75033,62872
1685.99,0.077301,63520,53163
1688.87,0.081464,53714,44527
1691.75,0.082276,45653,37774
1694.62,0.089424,39137,31854
1697.49,0.094407,33776,27177
1701.31,0.097083,28175,22531

File: Column 1_050604_20150331_122538.csv
Method:,Column 1,,
Host Date-Time:,31/3/15 @ 12:25:38,,
Header Version:,1,,
System Temp (C):,33.95,,
Detector Temp (C):,34.82,,
Humidity (%):,1.76,,
Lamp PD:,3818,,
Shift Vector Coefficients:,-10.5391,0.0761263,-0.000134223,,
Pixel to Wavelength Coefficients:,1775.68,-0.916766,-0.000235065,,
Serial Number:,5510004,,
Scan Config Name:,Column 1,,
Scan Config Type:,Slew,,
Section 1,,
Start wavelength (nm):,900,,
End wavelength (nm):,1700,,
Pattern Pixel Width (nm):,   7.03,,,,
Exposure (ms):,  0.635,,,,
Digital Resolution:,228,,
Num Repeats:,6,,
PGA Gain:,64,,
Total Measurement Time in sec:,  2.672,,
Wavelength (nm),Absorbance (AU),Reference Signal (unitless),Sample Signal (unitless)
901.51,0.067798,108485,92805
905.376,0.074648,121306,102149
909.237,0.075982,131909,110737
913.095,0.079348,143299,119370
916.948,0.079006,156982,130871
922.079,0.080907,179937,149353
925.923,0.081855,200504,166061
929.762,0.081891,222660,184396
933.597,0.081566,244426,202573
937.427,0.080220,263972,219451
941.254,0.080405,281845,234210
945.076,0.079104,297271,247770
950.165,0.077793,315605,263846
953.978,0.077322,328029,274530
957.786,0.078304,340470,284299
961.59,0.077047,352317,295044
965.389,0.077742,363056,303551
969.185,0.078031,373162,311793
972.976,0.077830,382632,319854
976.763,0.078366,391202,326614
981.806,0.079012,400190,333622
985.583,0.079385,406088,338248
989.355,0.079492,410162,341557
993.124,0.079585,412868,343737
996.888,0.080932,414263,343830
1000.65,0.081623,415476,344289
1004.4,0.082878,415479,343298
1009.41,0.083810,414358,341638
1013.15,0.084248,412923,340111
1016.89,0.084936,411526,338424
1020.63,0.084633,409066,336636
1024.36,0.084828,406777,334602
1028.09,0.084228,404427,333129
1031.82,0.084769,401911,330644
1036.78,0.084192,398410,328200
1040.49,0.084013,396204,326517
1044.2,0.083486,394236,325290
1047.91,0.083464,392042,323496
1051.61,0.083063,389823,321962
1055.31,0.083068,388234,320646
1059,0.082476,387599,320558
1063.92,0.080944,386688,320935
1067.61,0.081094,386598,320749
1071.29,0.079886,387377,322291
1074.96,0.080039,388536,323141
1078.63,0.079276,389855,324808
1082.3,0.077880,391215,326991
1085.96,0.077698,393215,328800
1090.84,0.076572,396270,332215
1094.49,0.076106,398760,334661
1098.14,0.075725,400987,336826
1101.79,0.075133,403477,339380
1105.43,0.074856,406116,341817
1109.06,0.073985,407701,343840
1112.7,0.073699,409859,345888
1117.53,0.073757,412494,348065
1121.15,0.073931,414909,349963
1124.77,0.074325,416559,351036
1128.38,0.074888,418532,352242
1131.99,0.076057,419956,352490
1135.6,0.078103,421946,352496
1139.2,0.078882,423881,353478
1143.99,0.080805,426786,354328
1147.58,0.081407,428617,355355
1151.17,0.082851,431169,356284
1154.75,0.083690,433579,357584
1158.33,0.084879,436264,358815
1161.91,0.086597,439132,359748
1165.48,0.088665,442389,360694
1169.04,0.091274,446101,361542
1173.79,0.094651,451929,363429
1177.34,0.096446,456026,365211
1180.9,0.098729,461306,367502
1184.44,0.099966,467657,371502
1187.99,0.101625,473969,375081
1191.52,0.100848,479856,380420
1195.06,0.101367,487372,385917
1199.76,0.100200,497347,394875
1203.29,0.099190,504311,401336
1206.81,0.099394,511507,406872
1210.33,0.098575,519078,413673
1213.84,0.098695,527163,420001
1217.35,0.097704,534208,426586
1220.85,0.097559,540472,431732
1225.51,0.096094,549929,440771
1229.01,0.095852,556888,446597
1232.5,0.095334,562180,451379
1235.98,0.095030,567975,456351
1239.46,0.093347,574815,463640
1242.94,0.092384,582782,471110
1246.41,0.091860,591476,478715
1251.03,0.092501,604016,488143
1254.5,0.091714,612289,495727
1257.96,0.092160,619125,500747
1261.41,0.093045,624551,504107
1264.86,0.093725,629900,507629
1268.31,0.094045,634345,510835
1271.75,0.094740,638574,513418
1276.33,0.094785,642499,516520
1279.76,0.094861,645905,519168
1283.19,0.094282,648307,521793
1286.61,0.093546,650446,524403
1290.03,0.093332,652132,526022
1293.44,0.093092,653907,527745
1296.85,0.092788,655963,529775
1301.39,0.092535,657349,531203
1304.8,0.092396,657558,531543
1308.19,0.092581,658515,532090
1311.58,0.092672,658804,532211
1314.97,0.093059,659011,531904
1318.36,0.093649,658272,530587
1321.73,0.093877,658022,530107
1326.23,0.094404,657870,529342
1329.6,0.095157,656482,527310
1332.97,0.096006,654926,525033
1336.33,0.097738,653727,521986
1339.69,0.098480,652497,520114
1343.04,0.100046,649913,516189
1346.39,0.102385,647671,511646
1349.73,0.104237,645338,507634
1354.18,0.107303,641175,500811
1357.52,0.109362,638376,496266
1360.85,0.110897,635805,492524
1364.17,0.113304,633413,487959
1367.49,0.115227,631026,483972
1370.81,0.117569,628050,479099
1374.12,0.119745,625034,474415
1378.54,0.122297,620272,468042
1381.84,0.125323,616892,462260
1385.14,0.128477,613613,456476
1388.43,0.132337,611526,450898
1391.72,0.135886,610663,446597
1395.01,0.140804,610634,441547
1398.29,0.145123,611700,437941
1402.66,0.151346,614051,433370
1405.93,0.156546,616268,429758
1409.2,0.161016,617795,426411
1412.46,0.165379,618872,422885
1415.72,0.169426,619795,419587
1418.98,0.172437,620495,417159
1422.23,0.176409,621087,413755
1426.56,0.180183,621375,410365
1429.8,0.182575,621616,408270
1433.04,0.184933,622129,406394
1436.27,0.187449,621526,403655
1439.5,0.189745,621113,401260
1442.72,0.192135,620921,398934
1445.94,0.194321,620270,396515
1450.23,0.197714,618860,392535
1453.44,0.200377,617697,389402
1456.64,0.203491,616264,385723
1459.85,0.205517,614413,382775
1463.04,0.209071,612307,378354
1466.24,0.212057,610032,374365
1469.43,0.216001,607345,369347
1473.67,0.222030,603789,362122
1476.85,0.227389,601175,356133
1480.02,0.233543,597737,349114
1483.19,0.240060,594479,342040
1486.36,0.245578,591232,335877
1489.52,0.250702,587853,330040
1492.68,0.254117,583875,325239
1496.89,0.255896,578062,320685
1500.03,0.256309,574159,318217
1503.18,0.256133,570285,316198
1506.32,0.254867,565444,314429
1509.45,0.253536,560571,312676
1512.58,0.252711,555821,310616
1515.71,0.250318,550344,309255
1519.87,0.247245,543983,307851
1522.99,0.244695,538764,306693
1526.1,0.242813,533692,305125
1529.21,0.239534,527902,304102
1532.32,0.236580,521886,302688
1535.42,0.233787,515888,301140
1538.51,0.230533,509987,299934
1541.6,0.228034,503936,298086
1545.72,0.223352,494694,295791
1548.8,0.221339,488378,293371
1551.88,0.218959,481832,291029
1554.95,0.216732,474989,288371
1558.02,0.215284,467818,284966
1561.08,0.214389,460730,281227
1564.15,0.214112,454170,277400
1568.22,0.212431,444181,272351
1571.27,0.211955,436947,268209
1574.32,0.210839,429598,264377
1577.36,0.209857,422039,260313
1580.4,0.208523,414375,256372
1583.43,0.207516,406354,251993
1586.46,0.205946,398475,248002
1590.49,0.203666,388982,243368
1593.51,0.201747,380708,239246
1596.53,0.199000,372727,235717
1599.54,0.198405,365060,231185
1602.55,0.195708,357543,227835
1605.55,0.193932,349495,223619
1608.55,0.191870,341154,219321
1612.54,0.190045,330877,213610
1615.53,0.188589,322904,209163
1618.51,0.187762,315116,204507
1621.49,0.187232,307217,199624
1624.47,0.185838,299481,195223
1627.44,0.184264,292112,191111
1630.41,0.183874,284245,186131
1634.36,0.182131,274079,180196
1637.32,0.182907,266916,175173
1640.27,0.181911,259612,170771
1643.22,0.179408,251804,166592
1646.16,0.180186,244348,161370
1649.1,0.178196,236703,157039
1652.04,0.177249,228171,151709
1655.95,0.174339,215408,144186
1658.88,0.168449,204937,139050
1661.8,0.164876,193395,132303
1664.72,0.155626,179728,125600
1667.63,0.145049,163642,117178
1670.54,0.129714,146312,108534
1673.44,0.114702,128451,98636
1677.31,0.094412,105080,84549
1680.21,0.083963,88906,73277
1683.1,0.077002,75033,62842
1685.99,0.076436,63520,53269
1688.87,0.074987,53714,45196
1691.75,0.085809,45653,37468
1694.62,0.094222,39137,31504
1697.49,0.092859,33776,27274
1701.31,0.104686,28175,22140

File: Column 1_050605_20150331_122546.csv
Method:,Column 1,,
Host Date-Time:,31/3/15 @ 12:25:46,,
Header Version:,1,,
System Temp (C):,34.04,,
Detector Temp (C):,34.84,,
Humidity (%):,1.71,,
Lamp PD:,3818,,
Shift Vector Coefficients:,-10.5391,0.0761263,-0.000134223,,
Pixel to Wavelength Coefficients:,1775.68,-0.916766,-0.000235065,,
Serial Number:,5510004,,
Scan Config Name:,Column 1,,
Scan Config Type:,Slew,,
Section 1,,
Start wavelength (nm):,900,,
End wavelength (nm):,1700,,
Pattern Pixel Width (nm):,   7.03,,,,
Exposure (ms):,  0.635,,,,
Digital Resolution:,228,,
Num Repeats:,6,,
PGA Gain:,64,,
Total Measurement Time in sec:,  2.660,,
Wavelength (nm),Absorbance (AU),Reference Signal (unitless),Sample Signal (unitless)
901.51,0.068351,108485,92687
905.376,0.074185,121306,102258
909.237,0.076574,131909,110586
913.095,0.079101,143299,119438
916.948,0.077671,156982,131274
922.079,0.079047,179937,149994
925.923,0.081348,200504,166255
929.762,0.081686,222660,184483
933.597,0.082364,244426,202201
937.427,0.080547,263972,219286
941.254,0.079756,281845,234560
945.076,0.079370,297271,247618
950.165,0.077055,315605,264295
953.978,0.077079,328029,274684
957.786,0.077223,340470,285007
961.59,0.077117,352317,294996
965.389,0.077731,363056,303559
969.185,0.077597,373162,312105
972.976,0.077835,382632,319850
976.763,0.078727,391202,326343
981.806,0.078424,400190,334074
985.583,0.079480,406088,338174
989.355,0.079492,410162,341557
993.124,0.080182,412868,343265
996.888,0.080769,414263,343959
1000.65,0.081494,415476,344391
1004.4,0.082323,415479,343737
1009.41,0.083482,414358,341896
1013.15,0.084123,412923,340209
1016.89,0.084454,411526,338800
1020.63,0.084768,409066,336531
1024.36,0.084795,406777,334627
1028.09,0.084312,404427,333064
1031.82,0.083936,401911,331279
1036.78,0.084024,398410,328327
1040.49,0.084062,396204,326480
1044.2,0.083548,394236,325243
1047.91,0.083803,392042,323243
1051.61,0.083159,389823,321891
1055.31,0.081998,388234,321437
1059,0.082014,387599,320899
1063.92,0.081710,386688,320369
1067.61,0.081165,386598,320697
1071.29,0.080667,387377,321712
1074.96,0.079651,388536,323430
1078.63,0.078954,389855,325049
1082.3,0.077781,391215,327065
1085.96,0.078009,393215,328565
1090.84,0.076735,396270,332090
1094.49,0.076596,398760,334284
1098.14,0.074965,400987,337416
1101.79,0.075135,403477,339378
1105.43,0.074755,406116,341897
1109.06,0.073883,407701,343921
1112.7,0.073435,409859,346098
1117.53,0.073630,412494,348167
1121.15,0.074071,414909,349850
1124.77,0.074087,416559,351228
1128.38,0.074928,418532,352209
1131.99,0.076333,419956,352266
1135.6,0.077438,421946,353036
1139.2,0.078808,423881,353538
1143.99,0.080873,426786,354272
1147.58,0.081381,428617,355376
1151.17,0.082377,431169,356673
1154.75,0.083415,433579,357811
1158.33,0.084800,436264,358880
1161.91,0.086305,439132,359990
1165.48,0.088715,442389,360653
1169.04,0.091347,446101,361482
1173.79,0.094401,451929,363638
1177.34,0.095956,456026,365623
1180.9,0.098577,461306,367631
1184.44,0.099759,467657,371679
1187.99,0.101149,473969,375492
1191.52,0.101307,479856,380018
1195.06,0.101611,487372,385700
1199.76,0.100458,497347,394640
1203.29,0.099637,504311,400923
1206.81,0.099350,511507,406913
1210.33,0.098683,519078,413571
1213.84,0.098297,527163,420386
1217.35,0.097194,534208,427087
1220.85,0.097075,540472,432213
1225.51,0.095933,549929,440934
1229.01,0.095549,556888,446909
1232.5,0.095451,562180,451257
1235.98,0.094384,567975,457031
1239.46,0.093364,574815,463622
1242.94,0.092448,582782,471040
1246.41,0.091809,591476,478771
1251.03,0.091534,604016,489231
1254.5,0.091715,612289,495726
1257.96,0.092483,619125,500375
1261.41,0.092823,624551,504365
1264.86,0.093250,629900,508185
1268.31,0.093670,634345,511276
1271.75,0.094497,638574,513705
1276.33,0.094857,642499,516435
1279.76,0.094771,645905,519275
1283.19,0.094216,648307,521873
1286.61,0.093518,650446,524437
1290.03,0.093282,652132,526082
1293.44,0.092932,653907,527939
1296.85,0.092553,655963,530061
1301.39,0.092356,657349,531422
1304.8,0.092454,657558,531472
1308.19,0.092632,658515,532027
1311.58,0.092853,658804,531990
1314.97,0.093293,659011,531618
1318.36,0.093521,658272,530743
1321.73,0.093646,658022,530389
1326.23,0.094923,657870,528710
1329.6,0.095175,656482,527288
1332.97,0.096180,654926,524822
1336.33,0.097327,653727,522480
1339.69,0.098674,652497,519882
1343.04,0.100254,649913,515942
1346.39,0.101942,647671,512168
1349.73,0.103974,645338,507941
1354.18,0.106878,641175,501301
1357.52,0.108911,638376,496782
1360.85,0.111006,635805,492400
1364.17,0.112468,633413,488899
1367.49,0.115005,631026,484219
1370.81,0.116928,628050,479807
1374.12,0.119607,625034,474566
1378.54,0.122348,620272,467987
1381.84,0.125007,616892,462596
1385.14,0.128503,613613,456448
1388.43,0.132307,611526,450929
1391.72,0.136193,610663,446281
1395.01,0.140334,610634,442025
1398.29,0.144894,611700,438172
1402.66,0.150966,614051,433749
1405.93,0.156092,616268,430207
1409.2,0.160806,617795,426617
1412.46,0.165374,618872,422889
1415.72,0.168793,619795,420199
1418.98,0.172686,620495,416920
1422.23,0.176550,621087,413621
1426.56,0.179988,621375,410550
1429.8,0.182480,621616,408359
1433.04,0.184672,622129,406638
1436.27,0.187073,621526,404005
1439.5,0.189191,621113,401772
1442.72,0.191985,620921,399072
1445.94,0.194041,620270,396771
1450.23,0.197775,618860,392480
1453.44,0.200215,617697,389548
1456.64,0.202669,616264,386454
1459.85,0.206222,614413,382154
1463.04,0.208555,612307,378804
1466.24,0.212038,610032,374382
1469.43,0.215772,607345,369542
1473.67,0.222161,603789,362013
1476.85,0.227664,601175,355907
1480.02,0.233269,597737,349334
1483.19,0.240424,594479,341753
1486.36,0.245249,591232,336131
1489.52,0.250258,587853,330378
1492.68,0.253411,583875,325768
1496.89,0.255820,578062,320741
1500.03,0.256449,574159,318114
1503.18,0.255974,570285,316314
1506.32,0.255573,565444,313918
1509.45,0.254020,560571,312328
1512.58,0.252707,555821,310619
1515.71,0.250186,550344,309349
1519.87,0.247016,543983,308013
1522.99,0.244110,538764,307106
1526.1,0.242393,533692,305420
1529.21,0.239661,527902,304013
1532.32,0.236157,521886,302983
1535.42,0.233921,515888,301047
1538.51,0.230925,509987,299664
1541.6,0.228123,503936,298025
1545.72,0.223077,494694,295978
1548.8,0.220957,488378,293629
1551.88,0.218680,481832,291216
1554.95,0.216743,474989,288364
1558.02,0.214932,467818,285197
1561.08,0.213977,460730,281494
1564.15,0.213603,454170,277725
1568.22,0.212410,444181,272364
1571.27,0.211478,436947,268504
1574.32,0.211476,429598,263989
1577.36,0.209688,422039,260414
1580.4,0.208858,414375,256174
1583.43,0.207120,406354,252223
1586.46,0.205333,398475,248352
1590.49,0.203234,388982,243610
1593.51,0.201715,380708,239264
1596.53,0.199702,372727,235336
1599.54,0.197283,365060,231783
1602.55,0.195958,357543,227704
1605.55,0.193746,349495,223715
1608.55,0.192368,341154,219070
1612.54,0.189511,330877,213873
1615.53,0.187332,322904,209769
1618.51,0.186888,315116,204919
1621.49,0.186654,307217,199890
1624.47,0.184852,299481,195667
1627.44,0.184091,292112,191187
1630.41,0.183177,284245,186430
1634.36,0.182314,274079,180120
1637.32,0.181151,266916,175883
1640.27,0.181029,259612,171118
1643.22,0.180152,251804,166307
1646.16,0.179922,244348,161468
1649.1,0.177318,236703,157357
1652.04,0.176891,228171,151834
1655.95,0.173283,215408,144537
1658.88,0.170167,204937,138501
1661.8,0.164577,193395,132394
1664.72,0.156059,179728,125475
1667.63,0.144264,163642,117390
1670.54,0.129882,146312,108492
1673.44,0.115231,128451,98516
1677.31,0.093534,105080,84720
1680.21,0.080857,88906,73803
1683.1,0.076312,75033,62942
1685.99,0.076151,63520,53304
1688.87,0.079586,53714,44720
1691.75,0.087446,45653,37327
1694.62,0.085826,39137,32119
1697.49,0.091794,33776,27341
1701.31,0.101209,28175,22318