Folder: textile_sorting_NIRSCAN_/samples/wool/wool-000811 (part 115)

File: Column 1_050595_20150331_122121.csv
Method:,Column 1,,
Host Date-Time:,31/3/15 @ 12:21:21,,
Header Version:,1,,
System Temp (C):,33.91,,
Detector Temp (C):,34.66,,
Humidity (%):,1.76,,
Lamp PD:,3818,,
Shift Vector Coefficients:,-10.5391,0.0761263,-0.000134223,,
Pixel to Wavelength Coefficients:,1775.68,-0.916766,-0.000235065,,
Serial Number:,5510004,,
Scan Config Name:,Column 1,,
Scan Config Type:,Slew,,
Section 1,,
Start wavelength (nm):,900,,
End wavelength (nm):,1700,,
Pattern Pixel Width (nm):,   7.03,,,,
Exposure (ms):,  0.635,,,,
Digital Resolution:,228,,
Num Repeats:,6,,
PGA Gain:,64,,
Total Measurement Time in sec:,  2.678,,
Wavelength (nm),Absorbance (AU),Reference Signal (unitless),Sample Signal (unitless)
901.51,0.070780,108485,92170
905.376,0.076954,121306,101608
909.237,0.079530,131909,109836
913.095,0.078058,143299,119725
916.948,0.078870,156982,130912
922.079,0.081221,179937,149245
925.923,0.082415,200504,165847
929.762,0.083287,222660,183804
933.597,0.083732,244426,201565
937.427,0.082335,263972,218385
941.254,0.081359,281845,233696
945.076,0.080709,297271,246856
950.165,0.079234,315605,262972
953.978,0.078097,328029,274041
957.786,0.078788,340470,283982
961.59,0.079598,352317,293316
965.389,0.079502,363056,302323
969.185,0.079342,373162,310853
972.976,0.079553,382632,318587
976.763,0.079467,391202,325787
981.806,0.079947,400190,332904
985.583,0.080943,406088,337037
989.355,0.081142,410162,340262
993.124,0.082132,412868,341727
996.888,0.082058,414263,342940
1000.65,0.082781,415476,343372
1004.4,0.083741,415479,342616
1009.41,0.085178,414358,340563
1013.15,0.085459,412923,339164
1016.89,0.086535,411526,337180
1020.63,0.086189,409066,335432
1024.36,0.086891,406777,333016
1028.09,0.086379,404427,331483
1031.82,0.086029,401911,329686
1036.78,0.085496,398410,327216
1040.49,0.085596,396204,325329
1044.2,0.085623,394236,323693
1047.91,0.084636,392042,322624
1051.61,0.084748,389823,320715
1055.31,0.083999,388234,319959
1059,0.083697,387599,319658
1063.92,0.083540,386688,319022
1067.61,0.082173,386598,319953
1071.29,0.081870,387377,320822
1074.96,0.081392,388536,322136
1078.63,0.080543,389855,323862
1082.3,0.080061,391215,325353
1085.96,0.079090,393215,327748
1090.84,0.078266,396270,330922
1094.49,0.077506,398760,333584
1098.14,0.077517,400987,335439
1101.79,0.076596,403477,338238
1105.43,0.076060,406116,340871
1109.06,0.076179,407701,342108
1112.7,0.074958,409859,344887
1117.53,0.075051,412494,347030
1121.15,0.075845,414909,348424
1124.77,0.075841,416559,349813
1128.38,0.076701,418532,350774
1131.99,0.077769,419956,351103
1135.6,0.078910,421946,351841
1139.2,0.080867,423881,351866
1143.99,0.082277,426786,353129
1147.58,0.083730,428617,353459
1151.17,0.084351,431169,355056
1154.75,0.084939,433579,356557
1158.33,0.086887,436264,357160
1161.91,0.088269,439132,358365
1165.48,0.090496,442389,359177
1169.04,0.092418,446101,360591
1173.79,0.095801,451929,362468
1177.34,0.097919,456026,363974
1180.9,0.100098,461306,366346
1184.44,0.101735,467657,369992
1187.99,0.103256,473969,373675
1191.52,0.103139,479856,378418
1195.06,0.102825,487372,384623
1199.76,0.102134,497347,393120
1203.29,0.101483,504311,399223
1206.81,0.100565,511507,405776
1210.33,0.100303,519078,412031
1213.84,0.099765,527163,418967
1217.35,0.099177,534208,425141
1220.85,0.098166,540472,431129
1225.51,0.097750,549929,439093
1229.01,0.097453,556888,444954
1232.5,0.096755,562180,449905
1235.98,0.096412,567975,454901
1239.46,0.095042,574815,461834
1242.94,0.094066,582782,469289
1246.41,0.093385,591476,477037
1251.03,0.092761,604016,487851
1254.5,0.093568,612289,493615
1257.96,0.094012,619125,498616
1261.41,0.094669,624551,502226
1264.86,0.094968,629900,506178
1268.31,0.095351,634345,509301
1271.75,0.095983,638574,511951
1276.33,0.096314,642499,514705
1279.76,0.096299,645905,517452
1283.19,0.095839,648307,519926
1286.61,0.095381,650446,522192
1290.03,0.095009,652132,523994
1293.44,0.094704,653907,525789
1296.85,0.094765,655963,527369
1301.39,0.093632,657349,529864
1304.8,0.094104,657558,529456
1308.19,0.094755,658515,529432
1311.58,0.094297,658804,530224
1314.97,0.095096,659011,529415
1318.36,0.095414,658272,528435
1321.73,0.096079,658022,527426
1326.23,0.096893,657870,526317
1329.6,0.097643,656482,524300
1332.97,0.098434,654926,522106
1336.33,0.099599,653727,519754
1339.69,0.100829,652497,517308
1343.04,0.102497,649913,513284
1346.39,0.104524,647671,509132
1349.73,0.106304,645338,505223
1354.18,0.109197,641175,498631
1357.52,0.111233,638376,494133
1360.85,0.113133,635805,489994
1364.17,0.115166,633413,485871
1367.49,0.117507,631026,481438
1370.81,0.119983,628050,476443
1374.12,0.121326,625034,472691
1378.54,0.124403,620272,465778
1381.84,0.127584,616892,459859
1385.14,0.130963,613613,453870
1388.43,0.135277,611526,447856
1391.72,0.139149,610663,443254
1395.01,0.143803,610634,438508
1398.29,0.148477,611700,434572
1402.66,0.155194,614051,429547
1405.93,0.160098,616268,426257
1409.2,0.164861,617795,422652
1412.46,0.169620,618872,418775
1415.72,0.173542,619795,415629
1418.98,0.177647,620495,412184
1422.23,0.181012,621087,409393
1426.56,0.184863,621375,405967
1429.8,0.187531,621616,403637
1433.04,0.189785,622129,401879
1436.27,0.192321,621526,399152
1439.5,0.194319,621113,397056
1442.72,0.196924,620921,394559
1445.94,0.199359,620270,391942
1450.23,0.202666,618860,388085
1453.44,0.205257,617697,385051
1456.64,0.208071,616264,381677
1459.85,0.210450,614413,378452
1463.04,0.213780,612307,374274
1466.24,0.216493,610032,370561
1469.43,0.220094,607345,365882
1473.67,0.226494,603789,358419
1476.85,0.231462,601175,352808
1480.02,0.237164,597737,346215
1483.19,0.243691,594479,339192
1486.36,0.249425,591232,332915
1489.52,0.253538,587853,327892
1492.68,0.256344,583875,323576
1496.89,0.258295,578062,318918
1500.03,0.259459,574159,315917
1503.18,0.259593,570285,313689
1506.32,0.257900,565444,312241
1509.45,0.256978,560571,310208
1512.58,0.255498,555821,308629
1515.71,0.252759,550344,307521
1519.87,0.249850,543983,306010
1522.99,0.247808,538764,304502
1526.1,0.245148,533692,303489
1529.21,0.242405,527902,302098
1532.32,0.239491,521886,300666
1535.42,0.236742,515888,299098
1538.51,0.234567,509987,297161
1541.6,0.230471,503936,296418
1545.72,0.226490,494694,293661
1548.8,0.224168,488378,291466
1551.88,0.221732,481832,289177
1554.95,0.219695,474989,286410
1558.02,0.218574,467818,282815
1561.08,0.216395,460730,279931
1564.15,0.216394,454170,275946
1568.22,0.214939,444181,270783
1571.27,0.214399,436947,266704
1574.32,0.214034,429598,262439
1577.36,0.213242,422039,258292
1580.4,0.211670,414375,254521
1583.43,0.209027,406354,251118
1586.46,0.208727,398475,246419
1590.49,0.206813,388982,241611
1593.51,0.204492,380708,237739
1596.53,0.201776,372727,234215
1599.54,0.201381,365060,229606
1602.55,0.198580,357543,226333
1605.55,0.197241,349495,221922
1608.55,0.195098,341154,217697
1612.54,0.193265,330877,212032
1615.53,0.191048,322904,207982
1618.51,0.190748,315116,203106
1621.49,0.189138,307217,198750
1624.47,0.187380,299481,194531
1627.44,0.188890,292112,189086
1630.41,0.186326,284245,185083
1634.36,0.185028,274079,178998
1637.32,0.184587,266916,174497
1640.27,0.184914,259612,169594
1643.22,0.182582,251804,165379
1646.16,0.182390,244348,160553
1649.1,0.180142,236703,156337
1652.04,0.178459,228171,151287
1655.95,0.177786,215408,143046
1658.88,0.172762,204937,137676
1661.8,0.167404,193395,131535
1664.72,0.159760,179728,124410
1667.63,0.147987,163642,116388
1670.54,0.134401,146312,107369
1673.44,0.115928,128451,98358
1677.31,0.098421,105080,83772
1680.21,0.086132,88906,72912
1683.1,0.079289,75033,62512
1685.99,0.086089,63520,52098
1688.87,0.087119,53714,43951
1691.75,0.091279,45653,36999
1694.62,0.098224,39137,31215
1697.49,0.096778,33776,27029
1701.31,0.108251,28175,21959

File: Column 1_050595_20150331_122124.csv
Method:,Column 1,,
Host Date-Time:,31/3/15 @ 12:21:24,,
Header Version:,1,,
System Temp (C):,33.94,,
Detector Temp (C):,34.7,,
Humidity (%):,1.76,,
Lamp PD:,3818,,
Shift Vector Coefficients:,-10.5391,0.0761263,-0.000134223,,
Pixel to Wavelength Coefficients:,1775.68,-0.916766,-0.000235065,,
Serial Number:,5510004,,
Scan Config Name:,Column 1,,
Scan Config Type:,Slew,,
Section 1,,
Start wavelength (nm):,900,,
End wavelength (nm):,1700,,
Pattern Pixel Width (nm):,   7.03,,,,
Exposure (ms):,  0.635,,,,
Digital Resolution:,228,,
Num Repeats:,6,,
PGA Gain:,64,,
Total Measurement Time in sec:,  2.675,,
Wavelength (nm),Absorbance (AU),Reference Signal (unitless),Sample Signal (unitless)
901.51,0.069280,108485,92489
905.376,0.075785,121306,101882
909.237,0.078298,131909,110148
913.095,0.078258,143299,119670
916.948,0.079269,156982,130792
922.079,0.081756,179937,149061
925.923,0.082355,200504,165870
929.762,0.082881,222660,183976
933.597,0.082579,244426,202101
937.427,0.081552,263972,218779
941.254,0.081331,281845,233711
945.076,0.079920,297271,247305
950.165,0.078983,315605,263124
953.978,0.078595,328029,273727
957.786,0.078635,340470,284082
961.59,0.078155,352317,294292
965.389,0.078660,363056,302910
969.185,0.079229,373162,310934
972.976,0.079429,382632,318678
976.763,0.079783,391202,325550
981.806,0.079831,400190,332993
985.583,0.081230,406088,336814
989.355,0.081097,410162,340297
993.124,0.081696,412868,342070
996.888,0.082107,414263,342901
1000.65,0.082546,415476,343558
1004.4,0.084069,415479,342358
1009.41,0.084694,414358,340943
1013.15,0.085395,412923,339214
1016.89,0.085784,411526,337764
1020.63,0.085401,409066,336041
1024.36,0.085388,406777,334171
1028.09,0.085740,404427,331971
1031.82,0.085283,401911,330253
1036.78,0.085198,398410,327440
1040.49,0.085286,396204,325561
1044.2,0.084447,394236,324571
1047.91,0.084538,392042,322697
1051.61,0.084375,389823,320991
1055.31,0.084322,388234,319721
1059,0.083708,387599,319650
1063.92,0.082651,386688,319676
1067.61,0.081732,386598,320278
1071.29,0.081848,387377,320838
1074.96,0.080883,388536,322514
1078.63,0.080507,389855,323889
1082.3,0.079567,391215,325723
1085.96,0.078762,393215,327996
1090.84,0.078096,396270,331051
1094.49,0.077646,398760,333477
1098.14,0.077307,400987,335601
1101.79,0.076491,403477,338320
1105.43,0.076116,406116,340827
1109.06,0.075884,407701,342340
1112.7,0.075223,409859,344676
1117.53,0.074340,412494,347598
1121.15,0.075532,414909,348675
1124.77,0.075537,416559,350058
1128.38,0.076402,418532,351016
1131.99,0.077376,419956,351421
1135.6,0.078633,421946,352066
1139.2,0.080219,423881,352391
1143.99,0.082459,426786,352981
1147.58,0.083309,428617,353802
1151.17,0.084104,431169,355258
1154.75,0.085170,433579,356368
1158.33,0.086901,436264,357148
1161.91,0.088237,439132,358392
1165.48,0.090372,442389,359279
1169.04,0.092211,446101,360763
1173.79,0.095771,451929,362493
1177.34,0.098183,456026,363753
1180.9,0.099737,461306,366650
1184.44,0.101294,467657,370368
1187.99,0.102276,473969,374519
1191.52,0.102607,479856,378882
1195.06,0.102512,487372,384901
1199.76,0.102433,497347,392850
1203.29,0.101487,504311,399219
1206.81,0.100237,511507,406083
1210.33,0.099986,519078,412332
1213.84,0.099599,527163,419127
1217.35,0.098944,534208,425370
1220.85,0.097945,540472,431348
1225.51,0.097568,549929,439277
1229.01,0.097494,556888,444912
1232.5,0.096611,562180,450054
1235.98,0.095967,567975,455368
1239.46,0.094689,574815,462210
1242.94,0.093653,582782,469735
1246.41,0.093348,591476,477078
1251.03,0.093275,604016,487274
1254.5,0.093580,612289,493602
1257.96,0.094106,619125,498508
1261.41,0.094372,624551,502569
1264.86,0.095227,629900,505877
1268.31,0.095152,634345,509534
1271.75,0.096173,638574,511727
1276.33,0.096042,642499,515027
1279.76,0.096254,645905,517505
1283.19,0.095470,648307,520368
1286.61,0.095211,650446,522396
1290.03,0.094606,652132,524481
1293.44,0.094336,653907,526235
1296.85,0.094366,655963,527853
1301.39,0.093719,657349,529757
1304.8,0.094011,657558,529570
1308.19,0.094305,658515,529981
1311.58,0.094370,658804,530135
1314.97,0.094628,659011,529986
1318.36,0.095264,658272,528617
1321.73,0.095436,658022,528207
1326.23,0.096590,657870,526684
1329.6,0.097205,656482,524829
1332.97,0.097780,654926,522892
1336.33,0.099389,653727,520005
1339.69,0.100410,652497,517808
1343.04,0.102218,649913,513614
1346.39,0.103970,647671,509782
1349.73,0.106038,645338,505533
1354.18,0.109083,641175,498762
1357.52,0.111129,638376,494251
1360.85,0.113036,635805,490104
1364.17,0.114722,633413,486368
1367.49,0.117259,631026,481713
1370.81,0.119282,628050,477213
1374.12,0.121611,625034,472381
1378.54,0.124476,620272,465700
1381.84,0.127487,616892,459962
1385.14,0.131244,613613,453577
1388.43,0.134670,611526,448482
1391.72,0.139245,610663,443156
1395.01,0.143685,610634,438628
1398.29,0.147945,611700,435104
1402.66,0.154791,614051,429946
1405.93,0.159719,616268,426629
1409.2,0.164684,617795,422825
1412.46,0.169680,618872,418717
1415.72,0.173605,619795,415569
1418.98,0.177547,620495,412279
1422.23,0.180340,621087,410027
1426.56,0.184621,621375,406193
1429.8,0.187420,621616,403740
1433.04,0.190267,622129,401433
1436.27,0.191866,621526,399570
1439.5,0.193170,621113,398108
1442.72,0.196028,620921,395374
1445.94,0.198342,620270,392861
1450.23,0.202152,618860,388544
1453.44,0.204724,617697,385524
1456.64,0.207738,616264,381970
1459.85,0.209930,614413,378905
1463.04,0.213038,612307,374914
1466.24,0.215742,610032,371202
1469.43,0.219788,607345,366140
1473.67,0.226531,603789,358389
1476.85,0.231060,601175,353135
1480.02,0.236553,597737,346703
1483.19,0.242881,594479,339825
1486.36,0.248073,591232,333953
1489.52,0.253130,587853,328200
1492.68,0.256196,583875,323686
1496.89,0.258264,578062,318941
1500.03,0.258981,574159,316265
1503.18,0.258886,570285,314200
1506.32,0.257865,565444,312266
1509.45,0.256734,560571,310382
1512.58,0.254801,555821,309125
1515.71,0.252306,550344,307842
1519.87,0.249860,543983,306003
1522.99,0.247170,538764,304950
1526.1,0.244637,533692,303846
1529.21,0.242213,527902,302232
1532.32,0.239182,521886,300880
1535.42,0.236206,515888,299467
1538.51,0.233414,509987,297951
1541.6,0.230368,503936,296488
1545.72,0.226351,494694,293755
1548.8,0.223936,488378,291622
1551.88,0.221444,481832,289369
1554.95,0.219554,474989,286503
1558.02,0.217505,467818,283512
1561.08,0.216835,460730,279648
1564.15,0.216086,454170,276142
1568.22,0.215361,444181,270520
1571.27,0.214323,436947,266751
1574.32,0.213379,429598,262835
1577.36,0.212526,422039,258718
1580.4,0.211196,414375,254799
1583.43,0.210012,406354,250549
1586.46,0.207810,398475,246940
1590.49,0.205503,388982,242341
1593.51,0.204190,380708,237904
1596.53,0.202398,372727,233880
1599.54,0.200674,365060,229980
1602.55,0.198984,357543,226123
1605.55,0.196271,349495,222418
1608.55,0.193690,341154,218404
1612.54,0.192827,330877,212246
1615.53,0.190774,322904,208113
1618.51,0.190288,315116,203321
1621.49,0.189169,307217,198736
1624.47,0.187834,299481,194328
1627.44,0.186444,292112,190154
1630.41,0.185890,284245,185269
1634.36,0.184543,274079,179198
1637.32,0.183900,266916,174773
1640.27,0.182644,259612,170483
1643.22,0.182055,251804,165580
1646.16,0.182004,244348,160696
1649.1,0.181963,236703,155683
1652.04,0.179419,228171,150953
1655.95,0.175156,215408,143915
1658.88,0.172346,204937,137808
1661.8,0.168879,193395,131089
1664.72,0.159823,179728,124392
1667.63,0.146999,163642,116653
1670.54,0.133250,146312,107654
1673.44,0.116852,128451,98149
1677.31,0.098810,105080,83697
1680.21,0.087194,88906,72734
1683.1,0.078817,75033,62580
1685.99,0.081529,63520,52648
1688.87,0.085127,53714,44153
1691.75,0.088728,45653,37217
1694.62,0.090652,39137,31764
1697.49,0.100004,33776,26829
1701.31,0.107323,28175,22006

File: Column 1_050596_20150331_122138.csv
Method:,Column 1,,
Host Date-Time:,31/3/15 @ 12:21:38,,
Header Version:,1,,
System Temp (C):,33.93,,
Detector Temp (C):,34.66,,
Humidity (%):,1.76,,
Lamp PD:,3818,,
Shift Vector Coefficients:,-10.5391,0.0761263,-0.000134223,,
Pixel to Wavelength Coefficients:,1775.68,-0.916766,-0.000235065,,
Serial Number:,5510004,,
Scan Config Name:,Column 1,,
Scan Config Type:,Slew,,
Section 1,,
Start wavelength (nm):,900,,
End wavelength (nm):,1700,,
Pattern Pixel Width (nm):,   7.03,,,,
Exposure (ms):,  0.635,,,,
Digital Resolution:,228,,
Num Repeats:,6,,
PGA Gain:,64,,
Total Measurement Time in sec:,  2.730,,
Wavelength (nm),Absorbance (AU),Reference Signal (unitless),Sample Signal (unitless)
901.51,0.069524,108485,92437
905.376,0.075533,121306,101941
909.237,0.077109,131909,110450
913.095,0.078196,143299,119687
916.948,0.078482,156982,131029
922.079,0.081424,179937,149175
925.923,0.081876,200504,166053
929.762,0.082711,222660,184048
933.597,0.082932,244426,201937
937.427,0.081592,263972,218759
941.254,0.080822,281845,233985
945.076,0.080287,297271,247096
950.165,0.078995,315605,263117
953.978,0.077945,328029,274137
957.786,0.078256,340470,284330
961.59,0.078780,352317,293869
965.389,0.078590,363056,302959
969.185,0.079013,373162,311089
972.976,0.079536,382632,318600
976.763,0.079703,391202,325610
981.806,0.079621,400190,333154
985.583,0.080681,406088,337240
989.355,0.080722,410162,340591
993.124,0.081439,412868,342273
996.888,0.081828,414263,343122
1000.65,0.082641,415476,343483
1004.4,0.083773,415479,342591
1009.41,0.085331,414358,340443
1013.15,0.085676,412923,338995
1016.89,0.086118,411526,337504
1020.63,0.085550,409066,335926
1024.36,0.085909,406777,333770
1028.09,0.085403,404427,332229
1031.82,0.085554,401911,330047
1036.78,0.085069,398410,327538
1040.49,0.084432,396204,326202
1044.2,0.085302,394236,323932
1047.91,0.084703,392042,322574
1051.61,0.084266,389823,321071
1055.31,0.083439,388234,320372
1059,0.083358,387599,319908
1063.92,0.082530,386688,319765
1067.61,0.082275,386598,319878
1071.29,0.081392,387377,321175
1074.96,0.080876,388536,322519
1078.63,0.080683,389855,323758
1082.3,0.080033,391215,325374
1085.96,0.078820,393215,327952
1090.84,0.078191,396270,330979
1094.49,0.077435,398760,333639
1098.14,0.076648,400987,336111
1101.79,0.076165,403477,338574
1105.43,0.076172,406116,340783
1109.06,0.075412,407701,342712
1112.7,0.075383,409859,344549
1117.53,0.074913,412494,347140
1121.15,0.075507,414909,348695
1124.77,0.075550,416559,350047
1128.38,0.076434,418532,350990
1131.99,0.076622,419956,352032
1135.6,0.078988,421946,351778
1139.2,0.080440,423881,352212
1143.99,0.082657,426786,352820
1147.58,0.083235,428617,353862
1151.17,0.084516,431169,354921
1154.75,0.084902,433579,356588
1158.33,0.086272,436264,357666
1161.91,0.087869,439132,358696
1165.48,0.089905,442389,359666
1169.04,0.092014,446101,360927
1173.79,0.095432,451929,362776
1177.34,0.097616,456026,364228
1180.9,0.099750,461306,366639
1184.44,0.101549,467657,370151
1187.99,0.102910,473969,373973
1191.52,0.102266,479856,379180
1195.06,0.102454,487372,384952
1199.76,0.101697,497347,393516
1203.29,0.100781,504311,399869
1206.81,0.100638,511507,405708
1210.33,0.099902,519078,412411
1213.84,0.099574,527163,419151
1217.35,0.098736,534208,425573
1220.85,0.098270,540472,431026
1225.51,0.097407,549929,439440
1229.01,0.097486,556888,444920
1232.5,0.096107,562180,450576
1235.98,0.096349,567975,454967
1239.46,0.094766,574815,462128
1242.94,0.093635,582782,469755
1246.41,0.093327,591476,477101
1251.03,0.093257,604016,487294
1254.5,0.093193,612289,494041
1257.96,0.093587,619125,499104
1261.41,0.094342,624551,502604
1264.86,0.095173,629900,505940
1268.31,0.095189,634345,509491
1271.75,0.095987,638574,511946
1276.33,0.096056,642499,515011
1279.76,0.095624,645905,518256
1283.19,0.095712,648307,520078
1286.61,0.095351,650446,522228
1290.03,0.094790,652132,524259
1293.44,0.094260,653907,526327
1296.85,0.094231,655963,528018
1301.39,0.094042,657349,529364
1304.8,0.093633,657558,530031
1308.19,0.093780,658515,530622
1311.58,0.094149,658804,530405
1314.97,0.094745,659011,529843
1318.36,0.095002,658272,528936
1321.73,0.095368,658022,528290
1326.23,0.096503,657870,526790
1329.6,0.097471,656482,524508
1332.97,0.097875,654926,522778
1336.33,0.099644,653727,519700
1339.69,0.100673,652497,517494
1343.04,0.102421,649913,513374
1346.39,0.104288,647671,509409
1349.73,0.105778,645338,505835
1354.18,0.108928,641175,498940
1357.52,0.110602,638376,494851
1360.85,0.112958,635805,490192
1364.17,0.115103,633413,485941
1367.49,0.117249,631026,481724
1370.81,0.119332,628050,477158
1374.12,0.121315,625034,472703
1378.54,0.124044,620272,466163
1381.84,0.127469,616892,459981
1385.14,0.130806,613613,454034
1388.43,0.134472,611526,448686
1391.72,0.139259,610663,443142
1395.01,0.143182,610634,439136
1398.29,0.147923,611700,435126
1402.66,0.154552,614051,430182
1405.93,0.159398,616268,426945
1409.2,0.164312,617795,423187
1412.46,0.168984,618872,419389
1415.72,0.173468,619795,415700
1418.98,0.176931,620495,412864
1422.23,0.180291,621087,410073
1426.56,0.184236,621375,406554
1429.8,0.186931,621616,404195
1433.04,0.189314,622129,402315
1436.27,0.191558,621526,399854
1439.5,0.193105,621113,398167
1442.72,0.196108,620921,395301
1445.94,0.198527,620270,392694
1450.23,0.202313,618860,388400
1453.44,0.204501,617697,385722
1456.64,0.207242,616264,382406
1459.85,0.210092,614413,378764
1463.04,0.212851,612307,375075
1466.24,0.216027,610032,370959
1469.43,0.219332,607345,366525
1473.67,0.225132,603789,359545
1476.85,0.230511,601175,353582
1480.02,0.236395,597737,346829
1483.19,0.242743,594479,339933
1486.36,0.248080,591232,333947
1489.52,0.253143,587853,328190
1492.68,0.256181,583875,323697
1496.89,0.258453,578062,318802
1500.03,0.258696,574159,316473
1503.18,0.258197,570285,314699
1506.32,0.257809,565444,312306
1509.45,0.255881,560571,310992
1512.58,0.255260,555821,308798
1515.71,0.252796,550344,307495
1519.87,0.250002,543983,305903
1522.99,0.246616,538764,305339
1526.1,0.244377,533692,304028
1529.21,0.242400,527902,302102
1532.32,0.238900,521886,301076
1535.42,0.236086,515888,299550
1538.51,0.233615,509987,297813
1541.6,0.230735,503936,296238
1545.72,0.226452,494694,293687
1548.8,0.223195,488378,292120
1551.88,0.221214,481832,289522
1554.95,0.219310,474989,286664
1558.02,0.217270,467818,283666
1561.08,0.216634,460730,279777
1564.15,0.215762,454170,276348
1568.22,0.215125,444181,270667
1571.27,0.213869,436947,267030
1574.32,0.213039,429598,263041
1577.36,0.212076,422039,258986
1580.4,0.211895,414375,254389
1583.43,0.208895,406354,251194
1586.46,0.207602,398475,247058
1590.49,0.205990,388982,242069
1593.51,0.204041,380708,237986
1596.53,0.202444,372727,233855
1599.54,0.199906,365060,230387
1602.55,0.198371,357543,226442
1605.55,0.195385,349495,222872
1608.55,0.193921,341154,218288
1612.54,0.192075,330877,212614
1615.53,0.190797,322904,208102
1618.51,0.189328,315116,203771
1621.49,0.187833,307217,199348
1624.47,0.187240,299481,194594
1627.44,0.187466,292112,189707
1630.41,0.185714,284245,185344
1634.36,0.183569,274079,179600
1637.32,0.182610,266916,175293
1640.27,0.182993,259612,170346
1643.22,0.182808,251804,165293
1646.16,0.180461,244348,161268
1649.1,0.178761,236703,156835
1652.04,0.178353,228171,151324
1655.95,0.175403,215408,143833
1658.88,0.172876,204937,137640
1661.8,0.166754,193395,131732
1664.72,0.159077,179728,124606
1667.63,0.147520,163642,116513
1670.54,0.132738,146312,107781
1673.44,0.116511,128451,98226
1677.31,0.097867,105080,83879
1680.21,0.083034,88906,73434
1683.1,0.080242,75033,62375
1685.99,0.081999,63520,52591
1688.87,0.076094,53714,45081
1691.75,0.086226,45653,37432
1694.62,0.097099,39137,31296
1697.49,0.105002,33776,26522
1701.31,0.105590,28175,22094