Folder: textile_sorting_NIRSCAN_/samples/wool/wool-000811 (part 154)

File: Column 1_050616_20150331_123100.csv
Method:,Column 1,,
Host Date-Time:,31/3/15 @ 12:31:0,,
Header Version:,1,,
System Temp (C):,34.1,,
Detector Temp (C):,34.92,,
Humidity (%):,1.66,,
Lamp PD:,3818,,
Shift Vector Coefficients:,-10.5391,0.0761263,-0.000134223,,
Pixel to Wavelength Coefficients:,1775.68,-0.916766,-0.000235065,,
Serial Number:,5510004,,
Scan Config Name:,Column 1,,
Scan Config Type:,Slew,,
Section 1,,
Start wavelength (nm):,900,,
End wavelength (nm):,1700,,
Pattern Pixel Width (nm):,   7.03,,,,
Exposure (ms):,  0.635,,,,
Digital Resolution:,228,,
Num Repeats:,6,,
PGA Gain:,64,,
Total Measurement Time in sec:,  2.731,,
Wavelength (nm),Absorbance (AU),Reference Signal (unitless),Sample Signal (unitless)
901.51,0.069129,108485,92521
905.376,0.074678,121306,102142
909.237,0.077675,131909,110306
913.095,0.077055,143299,120002
916.948,0.078589,156982,130997
922.079,0.080561,179937,149472
925.923,0.082371,200504,165864
929.762,0.082063,222660,184323
933.597,0.082036,244426,202354
937.427,0.081566,263972,218772
941.254,0.080144,281845,234351
945.076,0.079806,297271,247370
950.165,0.078972,315605,263131
953.978,0.077555,328029,274383
957.786,0.077887,340470,284572
961.59,0.077238,352317,294914
965.389,0.077324,363056,303843
969.185,0.077214,373162,312380
972.976,0.077653,382632,319984
976.763,0.078419,391202,326574
981.806,0.078370,400190,334115
985.583,0.079475,406088,338178
989.355,0.079761,410162,341346
993.124,0.080734,412868,342829
996.888,0.080983,414263,343790
1000.65,0.081493,415476,344392
1004.4,0.082572,415479,343540
1009.41,0.083187,414358,342128
1013.15,0.084816,412923,339667
1016.89,0.085029,411526,338352
1020.63,0.084981,409066,336366
1024.36,0.084786,406777,334634
1028.09,0.084636,404427,332816
1031.82,0.084289,401911,331010
1036.78,0.084239,398410,328164
1040.49,0.084109,396204,326445
1044.2,0.084164,394236,324782
1047.91,0.083076,392042,323785
1051.61,0.082843,389823,322125
1055.31,0.082686,388234,320928
1059,0.082008,387599,320904
1063.92,0.081942,386688,320198
1067.61,0.080913,386598,320883
1071.29,0.080019,387377,322192
1074.96,0.079491,388536,323549
1078.63,0.079061,389855,324969
1082.3,0.078716,391215,326362
1085.96,0.077595,393215,328878
1090.84,0.076683,396270,332130
1094.49,0.075625,398760,335032
1098.14,0.075453,400987,337037
1101.79,0.075133,403477,339380
1105.43,0.074859,406116,341815
1109.06,0.074491,407701,343440
1112.7,0.073228,409859,346263
1117.53,0.072991,412494,348680
1121.15,0.073867,414909,350014
1124.77,0.073857,416559,351414
1128.38,0.074560,418532,352508
1131.99,0.076050,419956,352496
1135.6,0.077485,421946,352998
1139.2,0.078029,423881,354173
1143.99,0.080553,426786,354533
1147.58,0.081372,428617,355384
1151.17,0.082522,431169,356554
1154.75,0.083077,433579,358089
1158.33,0.084331,436264,359268
1161.91,0.085986,439132,360254
1165.48,0.088001,442389,361246
1169.04,0.090299,446101,362355
1173.79,0.094144,451929,363853
1177.34,0.095567,456026,365951
1180.9,0.098331,461306,367839
1184.44,0.100191,467657,371310
1187.99,0.100942,473969,375671
1191.52,0.100965,479856,380317
1195.06,0.100910,487372,386323
1199.76,0.100228,497347,394849
1203.29,0.099776,504311,400795
1206.81,0.098945,511507,407293
1210.33,0.098721,519078,413534
1213.84,0.097766,527163,420900
1217.35,0.097260,534208,427022
1220.85,0.096531,540472,432755
1225.51,0.095484,549929,441390
1229.01,0.095320,556888,447144
1232.5,0.094630,562180,452111
1235.98,0.093863,567975,457579
1239.46,0.093189,574815,463809
1242.94,0.092380,582782,471114
1246.41,0.091924,591476,478645
1251.03,0.091250,604016,489552
1254.5,0.091545,612289,495920
1257.96,0.092041,619125,500884
1261.41,0.092355,624551,504909
1264.86,0.092994,629900,508484
1268.31,0.093521,634345,511452
1271.75,0.094609,638574,513573
1276.33,0.094337,642499,517053
1279.76,0.094294,645905,519846
1283.19,0.093651,648307,522552
1286.61,0.093453,650446,524516
1290.03,0.092942,652132,526494
1293.44,0.092805,653907,528094
1296.85,0.092645,655963,529949
1301.39,0.091981,657349,531882
1304.8,0.092112,657558,531890
1308.19,0.092661,658515,531992
1311.58,0.092213,658804,532774
1314.97,0.092390,659011,532724
1318.36,0.093117,658272,531237
1321.73,0.093116,658022,531036
1326.23,0.094373,657870,529379
1329.6,0.094936,656482,527578
1332.97,0.095220,654926,525984
1336.33,0.096688,653727,523249
1339.69,0.098247,652497,520393
1343.04,0.099324,649913,517048
1346.39,0.101562,647671,512616
1349.73,0.103189,645338,508860
1354.18,0.106239,641175,502039
1357.52,0.108004,638376,497820
1360.85,0.110443,635805,493039
1364.17,0.111913,633413,489524
1367.49,0.114615,631026,484654
1370.81,0.116458,628050,480326
1374.12,0.118482,625034,475797
1378.54,0.121370,620272,469042
1381.84,0.124348,616892,463299
1385.14,0.127199,613613,457821
1388.43,0.130835,611526,452460
1391.72,0.134485,610663,448040
1395.01,0.138567,610634,443827
1398.29,0.142855,611700,440234
1402.66,0.148633,614051,436085
1405.93,0.154040,616268,432245
1409.2,0.158373,617795,429014
1412.46,0.162888,618872,425317
1415.72,0.166203,619795,422712
1418.98,0.169815,620495,419685
1422.23,0.173549,621087,416489
1426.56,0.177162,621375,413230
1429.8,0.179473,621616,411196
1433.04,0.182435,622129,408738
1436.27,0.183856,621526,407008
1439.5,0.185571,621113,405135
1442.72,0.188428,620921,402354
1445.94,0.191169,620270,399403
1450.23,0.194689,618860,395279
1453.44,0.196939,617697,392497
1456.64,0.200479,616264,388408
1459.85,0.203084,614413,384925
1463.04,0.205759,612307,381250
1466.24,0.209017,610032,376995
1469.43,0.213047,607345,371868
1473.67,0.219774,603789,364008
1476.85,0.225472,601175,357708
1480.02,0.231826,597737,350497
1483.19,0.238320,594479,343413
1486.36,0.243957,591232,337133
1489.52,0.248929,587853,331390
1492.68,0.252245,583875,326644
1496.89,0.254575,578062,321662
1500.03,0.255254,574159,318991
1503.18,0.254725,570285,317225
1506.32,0.254468,565444,314718
1509.45,0.252889,560571,313142
1512.58,0.250691,555821,312064
1515.71,0.248645,550344,310448
1519.87,0.247605,543983,307596
1522.99,0.242928,538764,307943
1526.1,0.240658,533692,306643
1529.21,0.237369,527902,305622
1532.32,0.234839,521886,303904
1535.42,0.232002,515888,302380
1538.51,0.229137,509987,300900
1541.6,0.227155,503936,298690
1545.72,0.221756,494694,296880
1548.8,0.219984,488378,294288
1551.88,0.217146,481832,292247
1554.95,0.215089,474989,289464
1558.02,0.213889,467818,285883
1561.08,0.212883,460730,282204
1564.15,0.211549,454170,279042
1568.22,0.210517,444181,273554
1571.27,0.210609,436947,269042
1574.32,0.209834,429598,264989
1577.36,0.208740,422039,260983
1580.4,0.206777,414375,257405
1583.43,0.205849,406354,252962
1586.46,0.204064,398475,249079
1590.49,0.202602,388982,243965
1593.51,0.200241,380708,240077
1596.53,0.198663,372727,235900
1599.54,0.196225,365060,232348
1602.55,0.194326,357543,228561
1605.55,0.192759,349495,224224
1608.55,0.190840,341154,219842
1612.54,0.189314,330877,213970
1615.53,0.187436,322904,209719
1618.51,0.186316,315116,205189
1621.49,0.184878,307217,200709
1624.47,0.183411,299481,196317
1627.44,0.182445,292112,191913
1630.41,0.181902,284245,186978
1634.36,0.180680,274079,180799
1637.32,0.179871,266916,176402
1640.27,0.180499,259612,171327
1643.22,0.177517,251804,167319
1646.16,0.177466,244348,162384
1649.1,0.177782,236703,157189
1652.04,0.177874,228171,151491
1655.95,0.172104,215408,144930
1658.88,0.167666,204937,139301
1661.8,0.163614,193395,132688
1664.72,0.155661,179728,125590
1667.63,0.143665,163642,117552
1670.54,0.128156,146312,108924
1673.44,0.112138,128451,99220
1677.31,0.089905,105080,85431
1680.21,0.079564,88906,74023
1683.1,0.074542,75033,63199
1685.99,0.074216,63520,53542
1688.87,0.075516,53714,45141
1691.75,0.084085,45653,37617
1694.62,0.090119,39137,31803
1697.49,0.093481,33776,27235
1701.31,0.096429,28175,22565

File: Column 1_050616_20150331_123105.csv
Method:,Column 1,,
Host Date-Time:,31/3/15 @ 12:31:5,,
Header Version:,1,,
System Temp (C):,34.13,,
Detector Temp (C):,34.93,,
Humidity (%):,1.66,,
Lamp PD:,3818,,
Shift Vector Coefficients:,-10.5391,0.0761263,-0.000134223,,
Pixel to Wavelength Coefficients:,1775.68,-0.916766,-0.000235065,,
Serial Number:,5510004,,
Scan Config Name:,Column 1,,
Scan Config Type:,Slew,,
Section 1,,
Start wavelength (nm):,900,,
End wavelength (nm):,1700,,
Pattern Pixel Width (nm):,   7.03,,,,
Exposure (ms):,  0.635,,,,
Digital Resolution:,228,,
Num Repeats:,6,,
PGA Gain:,64,,
Total Measurement Time in sec:,  2.668,,
Wavelength (nm),Absorbance (AU),Reference Signal (unitless),Sample Signal (unitless)
901.51,0.069641,108485,92412
905.376,0.072688,121306,102611
909.237,0.075484,131909,110864
913.095,0.076281,143299,120216
916.948,0.078171,156982,131123
922.079,0.080235,179937,149584
925.923,0.081257,200504,166290
929.762,0.081648,222660,184499
933.597,0.082347,244426,202209
937.427,0.080377,263972,219372
941.254,0.080509,281845,234154
945.076,0.078472,297271,248131
950.165,0.077708,315605,263898
953.978,0.076218,328029,275229
957.786,0.076652,340470,285382
961.59,0.076897,352317,295146
965.389,0.076980,363056,304084
969.185,0.077805,373162,311955
972.976,0.077752,382632,319911
976.763,0.078667,391202,326388
981.806,0.078178,400190,334263
985.583,0.078945,406088,338591
989.355,0.079384,410162,341642
993.124,0.080048,412868,343371
996.888,0.080338,414263,344301
1000.65,0.081029,415476,344760
1004.4,0.082098,415479,343915
1009.41,0.083620,414358,341787
1013.15,0.083901,412923,340383
1016.89,0.084130,411526,339053
1020.63,0.084249,409066,336934
1024.36,0.084436,406777,334904
1028.09,0.084335,404427,333047
1031.82,0.083707,401911,331454
1036.78,0.083495,398410,328727
1040.49,0.083261,396204,327083
1044.2,0.083767,394236,325079
1047.91,0.082943,392042,323884
1051.61,0.082989,389823,322017
1055.31,0.082322,388234,321197
1059,0.081852,387599,321019
1063.92,0.081637,386688,320423
1067.61,0.079590,386598,321862
1071.29,0.080761,387377,321642
1074.96,0.079852,388536,323280
1078.63,0.079271,389855,324812
1082.3,0.078197,391215,326752
1085.96,0.077350,393215,329064
1090.84,0.076256,396270,332457
1094.49,0.075261,398760,335313
1098.14,0.075701,400987,336844
1101.79,0.075134,403477,339379
1105.43,0.075010,406116,341696
1109.06,0.073595,407701,344149
1112.7,0.073023,409859,346427
1117.53,0.073009,412494,348665
1121.15,0.073072,414909,350656
1124.77,0.074179,416559,351154
1128.38,0.075103,418532,352067
1131.99,0.076077,419956,352474
1135.6,0.076549,421946,353759
1139.2,0.078789,423881,353553
1143.99,0.079853,426786,355105
1147.58,0.081413,428617,355350
1151.17,0.081855,431169,357102
1154.75,0.082710,433579,358392
1158.33,0.084363,436264,359241
1161.91,0.086314,439132,359982
1165.48,0.088152,442389,361121
1169.04,0.090491,446101,362195
1173.79,0.093188,451929,364655
1177.34,0.095437,456026,366060
1180.9,0.097815,461306,368277
1184.44,0.099523,467657,371881
1187.99,0.100600,473969,375967
1191.52,0.100627,479856,380613
1195.06,0.100720,487372,386492
1199.76,0.099813,497347,395227
1203.29,0.099201,504311,401326
1206.81,0.099090,511507,407157
1210.33,0.097795,519078,414417
1213.84,0.097313,527163,421339
1217.35,0.097202,534208,427079
1220.85,0.096782,540472,432505
1225.51,0.095161,549929,441719
1229.01,0.095522,556888,446937
1232.5,0.094476,562180,452272
1235.98,0.093603,567975,457853
1239.46,0.092902,574815,464115
1242.94,0.091925,582782,471608
1246.41,0.091477,591476,479137
1251.03,0.090824,604016,490032
1254.5,0.091294,612289,496207
1257.96,0.091925,619125,501018
1261.41,0.092278,624551,504998
1264.86,0.092602,629900,508944
1268.31,0.093588,634345,511373
1271.75,0.093827,638574,514499
1276.33,0.094242,642499,517166
1279.76,0.094258,645905,519889
1283.19,0.093629,648307,522579
1286.61,0.093369,650446,524617
1290.03,0.093040,652132,526375
1293.44,0.092255,653907,528763
1296.85,0.092667,655963,529923
1301.39,0.091839,657349,532056
1304.8,0.091925,657558,532119
1308.19,0.091944,658515,532870
1311.58,0.092170,658804,532827
1314.97,0.092649,659011,532407
1318.36,0.092778,658272,531652
1321.73,0.093131,658022,531018
1326.23,0.094234,657870,529549
1329.6,0.094325,656482,528321
1332.97,0.095273,654926,525919
1336.33,0.096393,653727,523605
1339.69,0.097887,652497,520825
1343.04,0.099151,649913,517254
1346.39,0.100967,647671,513319
1349.73,0.103204,645338,508842
1354.18,0.106008,641175,502306
1357.52,0.108225,638376,497567
1360.85,0.109865,635805,493695
1364.17,0.111988,633413,489439
1367.49,0.114244,631026,485069
1370.81,0.116158,628050,480658
1374.12,0.118404,625034,475882
1378.54,0.120756,620272,469706
1381.84,0.124125,616892,463537
1385.14,0.127052,613613,457976
1388.43,0.130269,611526,453050
1391.72,0.134373,610663,448155
1395.01,0.138770,610634,443620
1398.29,0.142554,611700,440539
1402.66,0.148660,614051,436058
1405.93,0.153066,616268,433215
1409.2,0.158048,617795,429335
1412.46,0.162363,618872,425832
1415.72,0.166035,619795,422876
1418.98,0.169567,620495,419925
1422.23,0.173331,621087,416698
1426.56,0.177299,621375,413100
1429.8,0.179341,621616,411321
1433.04,0.181725,622129,409407
1436.27,0.183656,621526,407196
1439.5,0.185867,621113,404859
1442.72,0.188146,620921,402615
1445.94,0.190341,620270,400166
1450.23,0.194596,618860,395363
1453.44,0.196655,617697,392754
1456.64,0.200247,616264,388615
1459.85,0.202763,614413,385210
1463.04,0.205491,612307,381486
1466.24,0.209369,610032,376690
1469.43,0.212666,607345,372194
1473.67,0.219676,603789,364090
1476.85,0.225653,601175,357559
1480.02,0.231413,597737,350830
1483.19,0.237555,594479,344018
1486.36,0.244057,591232,337055
1489.52,0.248853,587853,331448
1492.68,0.252009,583875,326822
1496.89,0.253869,578062,322185
1500.03,0.254432,574159,319595
1503.18,0.255030,570285,317002
1506.32,0.253973,565444,315077
1509.45,0.252515,560571,313412
1512.58,0.250865,555821,311939
1515.71,0.247993,550344,310915
1519.87,0.245652,543983,308982
1522.99,0.242958,538764,307922
1526.1,0.239910,533692,307171
1529.21,0.236784,527902,306034
1532.32,0.235046,521886,303759
1535.42,0.231577,515888,302676
1538.51,0.228830,509987,301113
1541.6,0.226245,503936,299316
1545.72,0.222187,494694,296585
1548.8,0.219576,488378,294564
1551.88,0.217400,481832,292076
1554.95,0.214903,474989,289588
1558.02,0.213831,467818,285921
1561.08,0.212207,460730,282644
1564.15,0.211874,454170,278833
1568.22,0.210760,444181,273401
1571.27,0.210418,436947,269160
1574.32,0.209138,429598,265414
1577.36,0.208103,422039,261366
1580.4,0.207498,414375,256978
1583.43,0.205355,406354,253250
1586.46,0.203944,398475,249148
1590.49,0.200620,388982,245081
1593.51,0.200191,380708,240105
1596.53,0.198356,372727,236067
1599.54,0.196485,365060,232209
1602.55,0.194043,357543,228710
1605.55,0.192321,349495,224450
1608.55,0.190291,341154,220120
1612.54,0.187926,330877,214655
1615.53,0.186751,322904,210050
1618.51,0.185802,315116,205432
1621.49,0.185021,307217,200643
1624.47,0.183228,299481,196400
1627.44,0.183170,292112,191593
1630.41,0.181517,284245,187144
1634.36,0.178970,274079,181512
1637.32,0.180489,266916,176151
1640.27,0.180045,259612,171506
1643.22,0.178141,251804,167079
1646.16,0.177458,244348,162387
1649.1,0.176394,236703,157692
1652.04,0.174837,228171,152554
1655.95,0.172229,215408,144888
1658.88,0.167239,204937,139438
1661.8,0.163133,193395,132835
1664.72,0.155664,179728,125589
1667.63,0.142329,163642,117914
1670.54,0.128428,146312,108856
1673.44,0.110073,128451,99693
1677.31,0.089874,105080,85437
1680.21,0.078674,88906,74175
1683.1,0.072656,75033,63474
1685.99,0.076876,63520,53215
1688.87,0.074719,53714,45224
1691.75,0.084420,45653,37588
1694.62,0.081172,39137,32465
1697.49,0.087463,33776,27615
1701.31,0.099248,28175,22419

File: Column 1_050616_20150331_123108.csv
Method:,Column 1,,
Host Date-Time:,31/3/15 @ 12:31:8,,
Header Version:,1,,
System Temp (C):,34.11,,
Detector Temp (C):,34.9,,
Humidity (%):,1.66,,
Lamp PD:,3818,,
Shift Vector Coefficients:,-10.5391,0.0761263,-0.000134223,,
Pixel to Wavelength Coefficients:,1775.68,-0.916766,-0.000235065,,
Serial Number:,5510004,,
Scan Config Name:,Column 1,,
Scan Config Type:,Slew,,
Section 1,,
Start wavelength (nm):,900,,
End wavelength (nm):,1700,,
Pattern Pixel Width (nm):,   7.03,,,,
Exposure (ms):,  0.635,,,,
Digital Resolution:,228,,
Num Repeats:,6,,
PGA Gain:,64,,
Total Measurement Time in sec:,  2.702,,
Wavelength (nm),Absorbance (AU),Reference Signal (unitless),Sample Signal (unitless)
901.51,0.068885,108485,92573
905.376,0.076352,121306,101749
909.237,0.079704,131909,109792
913.095,0.077594,143299,119853
916.948,0.079003,156982,130872
922.079,0.080343,179937,149547
925.923,0.082303,200504,165890
929.762,0.082515,222660,184131
933.597,0.082373,244426,202197
937.427,0.080955,263972,219080
941.254,0.080728,281845,234036
945.076,0.079297,297271,247660
950.165,0.078245,315605,263572
953.978,0.076712,328029,274916
957.786,0.077595,340470,284763
961.59,0.077590,352317,294675
965.389,0.077557,363056,303680
969.185,0.077481,373162,312188
972.976,0.078483,382632,319373
976.763,0.078841,391202,326257
981.806,0.078636,400190,333911
985.583,0.079389,406088,338245
989.355,0.080071,410162,341102
993.124,0.080170,412868,343274
996.888,0.080648,414263,344055
1000.65,0.081710,415476,344220
1004.4,0.082644,415479,343483
1009.41,0.083660,414358,341756
1013.15,0.084454,412923,339950
1016.89,0.084964,411526,338402
1020.63,0.085282,409066,336133
1024.36,0.085577,406777,334025
1028.09,0.084615,404427,332832
1031.82,0.084844,401911,330587
1036.78,0.084163,398410,328222
1040.49,0.083714,396204,326742
1044.2,0.083797,394236,325057
1047.91,0.083139,392042,323738
1051.61,0.082696,389823,322234
1055.31,0.082771,388234,320865
1059,0.082648,387599,320431
1063.92,0.081294,386688,320676
1067.61,0.080560,386598,321144
1071.29,0.080244,387377,322025
1074.96,0.079756,388536,323352
1078.63,0.078727,389855,325219
1082.3,0.078552,391215,326485
1085.96,0.077067,393215,329278
1090.84,0.076678,396270,332134
1094.49,0.075887,398760,334830
1098.14,0.075339,400987,337125
1101.79,0.075176,403477,339346
1105.43,0.075314,406116,341457
1109.06,0.073867,407701,343934
1112.7,0.073744,409859,345852
1117.53,0.073675,412494,348131
1121.15,0.074340,414909,349633
1124.77,0.073701,416559,351541
1128.38,0.074685,418532,352406
1131.99,0.076087,419956,352466
1135.6,0.077182,421946,353244
1139.2,0.079023,423881,353363
1143.99,0.080938,426786,354219
1147.58,0.081622,428617,355179
1151.17,0.082344,431169,356700
1154.75,0.083338,433579,357874
1158.33,0.084677,436264,358982
1161.91,0.086143,439132,360124
1165.48,0.088275,442389,361018
1169.04,0.090233,446101,362410
1173.79,0.094111,451929,363881
1177.34,0.096273,456026,365356
1180.9,0.098314,461306,367854
1184.44,0.099935,467657,371529
1187.99,0.100656,473969,375919
1191.52,0.100931,479856,380347
1195.06,0.100913,487372,386320
1199.76,0.100343,497347,394745
1203.29,0.099249,504311,401282
1206.81,0.099206,511507,407048
1210.33,0.098565,519078,413683
1213.84,0.098114,527163,420563
1217.35,0.097372,534208,426912
1220.85,0.097010,540472,432278
1225.51,0.095835,549929,441034
1229.01,0.095313,556888,447152
1232.5,0.094773,562180,451963
1235.98,0.094376,567975,457039
1239.46,0.093335,574815,463653
1242.94,0.092181,582782,471330
1246.41,0.091746,591476,478841
1251.03,0.091506,604016,489263
1254.5,0.091451,612289,496027
1257.96,0.092154,619125,500754
1261.41,0.092756,624551,504443
1264.86,0.093233,629900,508205
1268.31,0.093726,634345,511210
1271.75,0.094340,638574,513891
1276.33,0.094142,642499,517286
1279.76,0.093926,645905,520287
1283.19,0.093866,648307,522294
1286.61,0.093592,650446,524348
1290.03,0.092854,652132,526601
1293.44,0.092925,653907,527948
1296.85,0.092467,655963,530166
1301.39,0.091972,657349,531893
1304.8,0.092222,657558,531755
1308.19,0.091938,658515,532878
1311.58,0.092092,658804,532923
1314.97,0.092854,659011,532156
1318.36,0.093209,658272,531125
1321.73,0.093148,658022,530997
1326.23,0.093987,657870,529850
1329.6,0.094535,656482,528066
1332.97,0.095877,654926,525189
1336.33,0.096605,653727,523349
1339.69,0.098064,652497,520612
1343.04,0.099491,649913,516850
1346.39,0.101881,647671,512240
1349.73,0.103362,645338,508657
1354.18,0.106171,641175,502118
1357.52,0.108111,638376,497698
1360.85,0.110707,635805,492739
1364.17,0.112210,633413,489189
1367.49,0.114338,631026,484964
1370.81,0.116796,628050,479953
1374.12,0.118440,625034,475843
1378.54,0.121240,620272,469183
1381.84,0.124000,616892,463670
1385.14,0.127353,613613,457659
1388.43,0.131045,611526,452241
1391.72,0.134982,610663,447527
1395.01,0.138792,610634,443597
1398.29,0.142968,611700,440119
1402.66,0.149364,614051,435352
1405.93,0.153817,616268,432467
1409.2,0.158726,617795,428665
1412.46,0.162577,618872,425622
1415.72,0.166379,619795,422541
1418.98,0.169869,620495,419633
1422.23,0.173299,621087,416729
1426.56,0.176964,621375,413418
1429.8,0.179469,621616,411200
1433.04,0.182004,622129,409144
1436.27,0.184247,621526,406642
1439.5,0.185972,621113,404761
1442.72,0.188533,620921,402257
1445.94,0.191034,620270,399528
1450.23,0.194415,618860,395528
1453.44,0.197493,617697,391997
1456.64,0.200141,616264,388710
1459.85,0.202914,614413,385076
1463.04,0.206329,612307,380750
1466.24,0.209379,610032,376681
1469.43,0.213624,607345,371374
1473.67,0.219731,603789,364044
1476.85,0.225578,601175,357621
1480.02,0.231862,597737,350468
1483.19,0.238265,594479,343456
1486.36,0.244306,591232,336862
1489.52,0.248839,587853,331459
1492.68,0.252426,583875,326508
1496.89,0.254310,578062,321858
1500.03,0.255013,574159,319168
1503.18,0.255057,570285,316982
1506.32,0.254080,565444,314999
1509.45,0.252461,560571,313451
1512.58,0.250922,555821,311898
1515.71,0.248998,550344,310196
1519.87,0.246004,543983,308732
1522.99,0.242703,538764,308103
1526.1,0.240496,533692,306757
1529.21,0.238272,527902,304987
1532.32,0.235054,521886,303754
1535.42,0.231631,515888,302639
1538.51,0.229978,509987,300318
1541.6,0.226517,503936,299129
1545.72,0.222417,494694,296428
1548.8,0.219551,488378,294581
1551.88,0.217013,481832,292336
1554.95,0.214780,474989,289670
1558.02,0.213596,467818,286076
1561.08,0.212247,460730,282618
1564.15,0.211367,454170,279159
1568.22,0.211043,444181,273223
1571.27,0.210522,436947,269096
1574.32,0.210408,429598,264639
1577.36,0.208556,422039,261094
1580.4,0.207205,414375,257151
1583.43,0.206598,406354,252526
1586.46,0.204572,398475,248788
1590.49,0.203286,388982,243581
1593.51,0.200341,380708,240022
1596.53,0.198402,372727,236042
1599.54,0.197271,365060,231789
1602.55,0.195195,357543,228104
1605.55,0.192937,349495,224132
1608.55,0.191073,341154,219724
1612.54,0.188725,330877,214260
1615.53,0.186893,322904,209981
1618.51,0.187138,315116,204801
1621.49,0.185981,307217,200200
1624.47,0.184730,299481,195722
1627.44,0.184236,292112,191123
1630.41,0.182518,284245,186713
1634.36,0.180204,274079,180997
1637.32,0.180322,266916,176219
1640.27,0.180527,259612,171316
1643.22,0.178006,251804,167131
1646.16,0.178153,244348,162127
1649.1,0.176543,236703,157638
1652.04,0.175969,228171,152157
1655.95,0.173439,215408,144485
1658.88,0.169171,204937,138819
1661.8,0.163244,193395,132801
1664.72,0.157602,179728,125030
1667.63,0.143846,163642,117503
1670.54,0.127909,146312,108986
1673.44,0.111373,128451,99395
1677.31,0.092474,105080,84927
1680.21,0.079717,88906,73997
1683.1,0.075602,75033,63045
1685.99,0.073527,63520,53627
1688.87,0.081552,53714,44518
1691.75,0.080784,45653,37904
1694.62,0.091323,39137,31715
1697.49,0.090731,33776,27408
1701.31,0.098725,28175,22446