Folder: textile_sorting_NIRSCAN_/samples/wool/wool-000811 (part 141)

File: Column 1_050610_20150331_122809.csv
Method:,Column 1,,
Host Date-Time:,31/3/15 @ 12:28:9,,
Header Version:,1,,
System Temp (C):,34.06,,
Detector Temp (C):,34.88,,
Humidity (%):,1.66,,
Lamp PD:,3818,,
Shift Vector Coefficients:,-10.5391,0.0761263,-0.000134223,,
Pixel to Wavelength Coefficients:,1775.68,-0.916766,-0.000235065,,
Serial Number:,5510004,,
Scan Config Name:,Column 1,,
Scan Config Type:,Slew,,
Section 1,,
Start wavelength (nm):,900,,
End wavelength (nm):,1700,,
Pattern Pixel Width (nm):,   7.03,,,,
Exposure (ms):,  0.635,,,,
Digital Resolution:,228,,
Num Repeats:,6,,
PGA Gain:,64,,
Total Measurement Time in sec:,  2.667,,
Wavelength (nm),Absorbance (AU),Reference Signal (unitless),Sample Signal (unitless)
901.51,0.068351,108485,92687
905.376,0.074219,121306,102250
909.237,0.076268,131909,110664
913.095,0.077975,143299,119748
916.948,0.078771,156982,130942
922.079,0.080189,179937,149600
925.923,0.081014,200504,166383
929.762,0.082386,222660,184186
933.597,0.081101,244426,202790
937.427,0.080323,263972,219399
941.254,0.080459,281845,234181
945.076,0.078659,297271,248024
950.165,0.078492,315605,263422
953.978,0.077691,328029,274297
957.786,0.076861,340470,285245
961.59,0.077878,352317,294480
965.389,0.077692,363056,303586
969.185,0.077350,373162,312282
972.976,0.076997,382632,320468
976.763,0.078304,391202,326661
981.806,0.078307,400190,334164
985.583,0.079741,406088,337971
989.355,0.079673,410162,341415
993.124,0.080127,412868,343308
996.888,0.080720,414263,343998
1000.65,0.081473,415476,344408
1004.4,0.082277,415479,343773
1009.41,0.083999,414358,341489
1013.15,0.084033,412923,340280
1016.89,0.084952,411526,338412
1020.63,0.084479,409066,336755
1024.36,0.084196,406777,335089
1028.09,0.083658,404427,333566
1031.82,0.084831,401911,330597
1036.78,0.084107,398410,328264
1040.49,0.083533,396204,326878
1044.2,0.083308,394236,325423
1047.91,0.083289,392042,323626
1051.61,0.082848,389823,322121
1055.31,0.082828,388234,320823
1059,0.082223,387599,320745
1063.92,0.081698,386688,320378
1067.61,0.080679,386598,321056
1071.29,0.080549,387377,321799
1074.96,0.079536,388536,323516
1078.63,0.079299,389855,324791
1082.3,0.077718,391215,327113
1085.96,0.077226,393215,329158
1090.84,0.076460,396270,332301
1094.49,0.076241,398760,334557
1098.14,0.075602,400987,336921
1101.79,0.074710,403477,339710
1105.43,0.074517,406116,342084
1109.06,0.073857,407701,343942
1112.7,0.073533,409859,346020
1117.53,0.073030,412494,348648
1121.15,0.073680,414909,350165
1124.77,0.073870,416559,351404
1128.38,0.075008,418532,352144
1131.99,0.076181,419956,352389
1135.6,0.076971,421946,353416
1139.2,0.078932,423881,353437
1143.99,0.081089,426786,354096
1147.58,0.081653,428617,355154
1151.17,0.082488,431169,356582
1154.75,0.083229,433579,357964
1158.33,0.084453,436264,359167
1161.91,0.086624,439132,359725
1165.48,0.088203,442389,361078
1169.04,0.090833,446101,361910
1173.79,0.093735,451929,364196
1177.34,0.096531,456026,365139
1180.9,0.098307,461306,367860
1184.44,0.099733,467657,371702
1187.99,0.101916,473969,374830
1191.52,0.100576,479856,380658
1195.06,0.101292,487372,385983
1199.76,0.100563,497347,394545
1203.29,0.099561,504311,400994
1206.81,0.099404,511507,406862
1210.33,0.098400,519078,413840
1213.84,0.097973,527163,420699
1217.35,0.097567,534208,426720
1220.85,0.096943,540472,432345
1225.51,0.095795,549929,441074
1229.01,0.094770,556888,447711
1232.5,0.094749,562180,451987
1235.98,0.093906,567975,457534
1239.46,0.093595,574815,463376
1242.94,0.092239,582782,471267
1246.41,0.091709,591476,478882
1251.03,0.091862,604016,488862
1254.5,0.091977,612289,495427
1257.96,0.092551,619125,500296
1261.41,0.092368,624551,504894
1264.86,0.093324,629900,508098
1268.31,0.093620,634345,511335
1271.75,0.094620,638574,513560
1276.33,0.094778,642499,516529
1279.76,0.094273,645905,519871
1283.19,0.094237,648307,521848
1286.61,0.093609,650446,524327
1290.03,0.093453,652132,525875
1293.44,0.092707,653907,528213
1296.85,0.092640,655963,529955
1301.39,0.092097,657349,531739
1304.8,0.092334,657558,531619
1308.19,0.092456,658515,532243
1311.58,0.092468,658804,532461
1314.97,0.092842,659011,532170
1318.36,0.093549,658272,530709
1321.73,0.093347,658022,530754
1326.23,0.094102,657870,529710
1329.6,0.095313,656482,527120
1332.97,0.095859,654926,525210
1336.33,0.096321,653727,523691
1339.69,0.098327,652497,520297
1343.04,0.099650,649913,516660
1346.39,0.101785,647671,512353
1349.73,0.103847,645338,508089
1354.18,0.106639,641175,501577
1357.52,0.108429,638376,497333
1360.85,0.110542,635805,492926
1364.17,0.112579,633413,488774
1367.49,0.115100,631026,484114
1370.81,0.116786,628050,479964
1374.12,0.119398,625034,474794
1378.54,0.121975,620272,468389
1381.84,0.124578,616892,463053
1385.14,0.127726,613613,457266
1388.43,0.131415,611526,451856
1391.72,0.135497,610663,446997
1395.01,0.139301,610634,443078
1398.29,0.144931,611700,438135
1402.66,0.150057,614051,434658
1405.93,0.154569,616268,431718
1409.2,0.159860,617795,427548
1412.46,0.164075,618872,424156
1415.72,0.168129,619795,420842
1418.98,0.171342,620495,418212
1422.23,0.174557,621087,415523
1426.56,0.178280,621375,412168
1429.8,0.181457,621616,409322
1433.04,0.183674,622129,407574
1436.27,0.185836,621526,405157
1439.5,0.187412,621113,403421
1442.72,0.190150,620921,400762
1445.94,0.192313,620270,398353
1450.23,0.196279,618860,393834
1453.44,0.198617,617697,390984
1456.64,0.201488,616264,387506
1459.85,0.204393,614413,383767
1463.04,0.207331,612307,379873
1466.24,0.210573,610032,375647
1469.43,0.214591,607345,370548
1473.67,0.220316,603789,363554
1476.85,0.226748,601175,356659
1480.02,0.232427,597737,350012
1483.19,0.239111,594479,342788
1486.36,0.244862,591232,336431
1489.52,0.249611,587853,330870
1492.68,0.252864,583875,326179
1496.89,0.255974,578062,320627
1500.03,0.255816,574159,318578
1503.18,0.256153,570285,316183
1506.32,0.254356,565444,314799
1509.45,0.253662,560571,312585
1512.58,0.252467,555821,310791
1515.71,0.249301,550344,309980
1519.87,0.247101,543983,307953
1522.99,0.243883,538764,307267
1526.1,0.241490,533692,306056
1529.21,0.238655,527902,304718
1532.32,0.236350,521886,302849
1535.42,0.232685,515888,301905
1538.51,0.229845,509987,300410
1541.6,0.226661,503936,299030
1545.72,0.222976,494694,296047
1548.8,0.219743,488378,294451
1551.88,0.218197,481832,291540
1554.95,0.216298,474989,288659
1558.02,0.214628,467818,285397
1561.08,0.213023,460730,282113
1564.15,0.212329,454170,278541
1568.22,0.211615,444181,272863
1571.27,0.211502,436947,268489
1574.32,0.210449,429598,264614
1577.36,0.209382,422039,260598
1580.4,0.207990,414375,256687
1583.43,0.206972,406354,252309
1586.46,0.203944,398475,249148
1590.49,0.202960,388982,243764
1593.51,0.201332,380708,239475
1596.53,0.199453,372727,235471
1599.54,0.197916,365060,231445
1602.55,0.195582,357543,227901
1605.55,0.193511,349495,223836
1608.55,0.190486,341154,220021
1612.54,0.188938,330877,214155
1615.53,0.187912,322904,209489
1618.51,0.186869,315116,204928
1621.49,0.186791,307217,199827
1624.47,0.184821,299481,195681
1627.44,0.184641,292112,190945
1630.41,0.182590,284245,186682
1634.36,0.181579,274079,180425
1637.32,0.181383,266916,175789
1640.27,0.180821,259612,171200
1643.22,0.179755,251804,166459
1646.16,0.178456,244348,162014
1649.1,0.177298,236703,157364
1652.04,0.176440,228171,151992
1655.95,0.172517,215408,144792
1658.88,0.170660,204937,138344
1661.8,0.163015,193395,132871
1664.72,0.156301,179728,125405
1667.63,0.144053,163642,117447
1670.54,0.128855,146312,108749
1673.44,0.114315,128451,98724
1677.31,0.093329,105080,84760
1680.21,0.080216,88906,73912
1683.1,0.078574,75033,62615
1685.99,0.075247,63520,53415
1688.87,0.075430,53714,45150
1691.75,0.081909,45653,37806
1694.62,0.092639,39137,31619
1697.49,0.092589,33776,27291
1701.31,0.095448,28175,22616

File: Column 1_050610_20150331_122817.csv
Method:,Column 1,,
Host Date-Time:,31/3/15 @ 12:28:17,,
Header Version:,1,,
System Temp (C):,34.07,,
Detector Temp (C):,34.9,,
Humidity (%):,1.66,,
Lamp PD:,3818,,
Shift Vector Coefficients:,-10.5391,0.0761263,-0.000134223,,
Pixel to Wavelength Coefficients:,1775.68,-0.916766,-0.000235065,,
Serial Number:,5510004,,
Scan Config Name:,Column 1,,
Scan Config Type:,Slew,,
Section 1,,
Start wavelength (nm):,900,,
End wavelength (nm):,1700,,
Pattern Pixel Width (nm):,   7.03,,,,
Exposure (ms):,  0.635,,,,
Digital Resolution:,228,,
Num Repeats:,6,,
PGA Gain:,64,,
Total Measurement Time in sec:,  2.673,,
Wavelength (nm),Absorbance (AU),Reference Signal (unitless),Sample Signal (unitless)
901.51,0.069078,108485,92532
905.376,0.074096,121306,102279
909.237,0.077923,131909,110243
913.095,0.076772,143299,120080
916.948,0.076957,156982,131490
922.079,0.080471,179937,149503
925.923,0.080847,200504,166447
929.762,0.082600,222660,184095
933.597,0.081740,244426,202492
937.427,0.080517,263972,219301
941.254,0.080099,281845,234375
945.076,0.078937,297271,247865
950.165,0.077716,315605,263893
953.978,0.077367,328029,274502
957.786,0.077856,340470,284592
961.59,0.077834,352317,294510
965.389,0.077121,363056,303985
969.185,0.077920,373162,311873
972.976,0.077910,382632,319795
976.763,0.078884,391202,326225
981.806,0.078301,400190,334168
985.583,0.079720,406088,337987
989.355,0.079922,410162,341219
993.124,0.080079,412868,343346
996.888,0.080711,414263,344005
1000.65,0.081386,415476,344477
1004.4,0.082226,415479,343814
1009.41,0.083620,414358,341787
1013.15,0.084107,412923,340222
1016.89,0.084497,411526,338766
1020.63,0.084513,409066,336729
1024.36,0.084509,406777,334848
1028.09,0.084412,404427,332988
1031.82,0.084088,401911,331163
1036.78,0.083784,398410,328508
1040.49,0.083776,396204,326695
1044.2,0.083360,394236,325384
1047.91,0.083256,392042,323651
1051.61,0.083272,389823,321807
1055.31,0.082463,388234,321093
1059,0.082418,387599,320601
1063.92,0.081420,386688,320583
1067.61,0.080492,386598,321194
1071.29,0.080735,387377,321661
1074.96,0.079573,388536,323488
1078.63,0.079492,389855,324647
1082.3,0.078639,391215,326420
1085.96,0.077544,393215,328917
1090.84,0.076669,396270,332141
1094.49,0.076296,398760,334515
1098.14,0.075500,400987,337000
1101.79,0.075161,403477,339358
1105.43,0.075195,406116,341551
1109.06,0.074006,407701,343824
1112.7,0.073492,409859,346053
1117.53,0.073079,412494,348609
1121.15,0.074009,414909,349900
1124.77,0.073920,416559,351363
1128.38,0.074687,418532,352405
1131.99,0.076283,419956,352307
1135.6,0.077257,421946,353183
1139.2,0.078632,423881,353681
1143.99,0.081139,426786,354055
1147.58,0.081676,428617,355135
1151.17,0.082833,431169,356299
1154.75,0.083572,433579,357681
1158.33,0.084702,436264,358961
1161.91,0.085850,439132,360367
1165.48,0.088312,442389,360988
1169.04,0.090738,446101,361989
1173.79,0.094188,451929,363816
1177.34,0.095320,456026,366159
1180.9,0.098341,461306,367831
1184.44,0.099848,467657,371603
1187.99,0.100588,473969,375978
1191.52,0.100966,479856,380316
1195.06,0.100571,487372,386625
1199.76,0.100154,497347,394917
1203.29,0.099790,504311,400782
1206.81,0.098970,511507,407269
1210.33,0.098538,519078,413709
1213.84,0.097903,527163,420767
1217.35,0.097390,534208,426894
1220.85,0.096406,540472,432880
1225.51,0.095645,549929,441227
1229.01,0.095392,556888,447070
1232.5,0.094675,562180,452064
1235.98,0.094249,567975,457173
1239.46,0.093146,574815,463855
1242.94,0.092318,582782,471181
1246.41,0.091856,591476,478720
1251.03,0.091443,604016,489334
1254.5,0.091904,612289,495510
1257.96,0.092320,619125,500562
1261.41,0.092987,624551,504174
1264.86,0.093128,629900,508328
1268.31,0.093850,634345,511064
1271.75,0.094002,638574,514291
1276.33,0.094495,642499,516865
1279.76,0.094672,645905,519394
1283.19,0.093797,648307,522376
1286.61,0.093631,650446,524301
1290.03,0.093096,652132,526307
1293.44,0.092700,653907,528221
1296.85,0.092721,655963,529857
1301.39,0.092535,657349,531203
1304.8,0.091783,657558,532293
1308.19,0.092446,658515,532255
1311.58,0.092668,658804,532216
1314.97,0.092580,659011,532492
1318.36,0.093227,658272,531103
1321.73,0.093214,658022,530917
1326.23,0.094438,657870,529300
1329.6,0.095420,656482,526991
1332.97,0.096078,654926,524945
1336.33,0.096950,653727,522933
1339.69,0.098430,652497,520174
1343.04,0.099691,649913,516612
1346.39,0.101803,647671,512332
1349.73,0.103964,645338,507953
1354.18,0.106560,641175,501668
1357.52,0.108737,638376,496981
1360.85,0.110229,635805,493282
1364.17,0.112009,633413,489416
1367.49,0.114779,631026,484471
1370.81,0.117003,628050,479724
1374.12,0.118888,625034,475352
1378.54,0.121150,620272,469280
1381.84,0.124662,616892,462964
1385.14,0.127694,613613,457299
1388.43,0.131058,611526,452227
1391.72,0.135059,610663,447448
1395.01,0.139260,610634,443120
1398.29,0.144000,611700,439075
1402.66,0.149810,614051,434905
1405.93,0.154954,616268,431336
1409.2,0.159523,617795,427879
1412.46,0.163660,618872,424562
1415.72,0.168392,619795,420587
1418.98,0.171683,620495,417884
1422.23,0.174998,621087,415102
1426.56,0.178680,621375,411788
1429.8,0.180712,621616,410025
1433.04,0.183236,622129,407985
1436.27,0.185559,621526,405415
1439.5,0.187867,621113,402999
1442.72,0.189866,620921,401024
1445.94,0.192198,620270,398458
1450.23,0.195826,618860,394245
1453.44,0.198700,617697,390909
1456.64,0.201479,616264,387514
1459.85,0.204690,614413,383504
1463.04,0.207540,612307,379690
1466.24,0.210821,610032,375432
1469.43,0.214610,607345,370532
1473.67,0.220773,603789,363172
1476.85,0.226497,601175,356865
1480.02,0.232564,597737,349902
1483.19,0.239107,594479,342791
1486.36,0.244787,591232,336489
1489.52,0.249758,587853,330758
1492.68,0.253213,583875,325917
1496.89,0.255026,578062,321328
1500.03,0.255808,574159,318584
1503.18,0.255691,570285,316520
1506.32,0.254453,565444,314729
1509.45,0.253041,560571,313033
1512.58,0.251838,555821,311241
1515.71,0.249898,550344,309554
1519.87,0.246268,543983,308544
1522.99,0.243760,538764,307354
1526.1,0.241742,533692,305878
1529.21,0.238474,527902,304845
1532.32,0.235504,521886,303439
1535.42,0.233003,515888,301684
1538.51,0.230109,509987,300227
1541.6,0.226996,503936,298799
1545.72,0.222519,494694,296359
1548.8,0.219966,488378,294300
1551.88,0.217572,481832,291960
1554.95,0.216002,474989,288856
1558.02,0.213893,467818,285880
1561.08,0.213274,460730,281950
1564.15,0.212513,454170,278423
1568.22,0.211413,444181,272990
1571.27,0.210961,436947,268824
1574.32,0.209948,429598,264920
1577.36,0.209313,422039,260639
1580.4,0.207585,414375,256926
1583.43,0.206153,406354,252785
1586.46,0.204750,398475,248686
1590.49,0.202992,388982,243746
1593.51,0.201020,380708,239647
1596.53,0.198845,372727,235801
1599.54,0.197200,365060,231827
1602.55,0.195131,357543,228138
1605.55,0.193175,349495,224009
1608.55,0.191170,341154,219675
1612.54,0.189925,330877,213669
1615.53,0.188551,322904,209181
1618.51,0.187399,315116,204678
1621.49,0.185617,307217,200368
1624.47,0.184200,299481,195961
1627.44,0.184541,292112,190989
1630.41,0.183373,284245,186346
1634.36,0.181370,274079,180512
1637.32,0.180581,266916,176114
1640.27,0.180694,259612,171250
1643.22,0.180202,251804,166288
1646.16,0.178405,244348,162033
1649.1,0.177111,236703,157432
1652.04,0.175854,228171,152197
1655.95,0.172379,215408,144838
1658.88,0.169744,204937,138636
1661.8,0.163790,193395,132634
1664.72,0.157098,179728,125175
1667.63,0.143864,163642,117498
1670.54,0.127853,146312,109000
1673.44,0.113682,128451,98868
1677.31,0.092633,105080,84896
1680.21,0.082449,88906,73533
1683.1,0.076643,75033,62894
1685.99,0.073381,63520,53645
1688.87,0.080305,53714,44646
1691.75,0.078886,45653,38070
1694.62,0.085988,39137,32107
1697.49,0.093353,33776,27243
1701.31,0.099345,28175,22414

File: Column 1_050610_20150331_122826.csv
Method:,Column 1,,
Host Date-Time:,31/3/15 @ 12:28:26,,
Header Version:,1,,
System Temp (C):,34.07,,
Detector Temp (C):,34.88,,
Humidity (%):,1.66,,
Lamp PD:,3818,,
Shift Vector Coefficients:,-10.5391,0.0761263,-0.000134223,,
Pixel to Wavelength Coefficients:,1775.68,-0.916766,-0.000235065,,
Serial Number:,5510004,,
Scan Config Name:,Column 1,,
Scan Config Type:,Slew,,
Section 1,,
Start wavelength (nm):,900,,
End wavelength (nm):,1700,,
Pattern Pixel Width (nm):,   7.03,,,,
Exposure (ms):,  0.635,,,,
Digital Resolution:,228,,
Num Repeats:,6,,
PGA Gain:,64,,
Total Measurement Time in sec:,  2.667,,
Wavelength (nm),Absorbance (AU),Reference Signal (unitless),Sample Signal (unitless)
901.51,0.069759,108485,92387
905.376,0.075989,121306,101834
909.237,0.078002,131909,110223
913.095,0.078225,143299,119679
916.948,0.078761,156982,130945
922.079,0.080883,179937,149361
925.923,0.080688,200504,166508
929.762,0.082593,222660,184098
933.597,0.083067,244426,201874
937.427,0.080751,263972,219183
941.254,0.080633,281845,234087
945.076,0.079074,297271,247787
950.165,0.078668,315605,263315
953.978,0.077316,328029,274534
957.786,0.077774,340470,284646
961.59,0.077293,352317,294877
965.389,0.077533,363056,303697
969.185,0.077844,373162,311927
972.976,0.077676,382632,319967
976.763,0.078944,391202,326180
981.806,0.079096,400190,333557
985.583,0.079503,406088,338156
989.355,0.080177,410162,341019
993.124,0.080445,412868,343057
996.888,0.080552,414263,344131
1000.65,0.081921,415476,344053
1004.4,0.082270,415479,343779
1009.41,0.084208,414358,341325
1013.15,0.084472,412923,339936
1016.89,0.084412,411526,338833
1020.63,0.084601,409066,336661
1024.36,0.084875,406777,334566
1028.09,0.084815,404427,332679
1031.82,0.084528,401911,330828
1036.78,0.083635,398410,328621
1040.49,0.083654,396204,326787
1044.2,0.083376,394236,325372
1047.91,0.083147,392042,323732
1051.61,0.083803,389823,321414
1055.31,0.083177,388234,320565
1059,0.082266,387599,320713
1063.92,0.081313,386688,320662
1067.61,0.080476,386598,321206
1071.29,0.079631,387377,322480
1074.96,0.079201,388536,323765
1078.63,0.079639,389855,324537
1082.3,0.078171,391215,326772
1085.96,0.077241,393215,329146
1090.84,0.076644,396270,332160
1094.49,0.076417,398760,334422
1098.14,0.075359,400987,337110
1101.79,0.075793,403477,338864
1105.43,0.075144,406116,341591
1109.06,0.074037,407701,343799
1112.7,0.073499,409859,346047
1117.53,0.073629,412494,348168
1121.15,0.074453,414909,349542
1124.77,0.074398,416559,350977
1128.38,0.075254,418532,351945
1131.99,0.075760,419956,352731
1135.6,0.077608,421946,352898
1139.2,0.079106,423881,353295
1143.99,0.081343,426786,353889
1147.58,0.081175,428617,355545
1151.17,0.082500,431169,356572
1154.75,0.083163,433579,358018
1158.33,0.084510,436264,359120
1161.91,0.086668,439132,359689
1165.48,0.088391,442389,360922
1169.04,0.090573,446101,362126
1173.79,0.093916,451929,364044
1177.34,0.096286,456026,365345
1180.9,0.098181,461306,367966
1184.44,0.099867,467657,371587
1187.99,0.101229,473969,375423
1191.52,0.101031,479856,380259
1195.06,0.100739,487372,386475
1199.76,0.100593,497347,394518
1203.29,0.099398,504311,401144
1206.81,0.099128,511507,407121
1210.33,0.098746,519078,413511
1213.84,0.098307,527163,420376
1217.35,0.097796,534208,426495
1220.85,0.097063,540472,432225
1225.51,0.095845,549929,441023
1229.01,0.095212,556888,447256
1232.5,0.094797,562180,451937
1235.98,0.094423,567975,456990
1239.46,0.093667,574815,463299
1242.94,0.091941,582782,471591
1246.41,0.091617,591476,478983
1251.03,0.091731,604016,489010
1254.5,0.091698,612289,495745
1257.96,0.092174,619125,500731
1261.41,0.092591,624551,504635
1264.86,0.093251,629900,508183
1268.31,0.093893,634345,511014
1271.75,0.094378,638574,513846
1276.33,0.094536,642499,516817
1279.76,0.094373,645905,519751
1283.19,0.093805,648307,522367
1286.61,0.093389,650446,524593
1290.03,0.093515,652132,525800
1293.44,0.092567,653907,528383
1296.85,0.092796,655963,529765
1301.39,0.092316,657349,531472
1304.8,0.092349,657558,531600
1308.19,0.092326,658515,532402
1311.58,0.092467,658804,532463
1314.97,0.093191,659011,531743
1318.36,0.093306,658272,531006
1321.73,0.093577,658022,530473
1326.23,0.094291,657870,529479
1329.6,0.095233,656482,527218
1332.97,0.096294,654926,524684
1336.33,0.096828,653727,523080
1339.69,0.098930,652497,519575
1343.04,0.100124,649913,516097
1346.39,0.101827,647671,512304
1349.73,0.103389,645338,508626
1354.18,0.106732,641175,501469
1357.52,0.108855,638376,496846
1360.85,0.110291,635805,493211
1364.17,0.112383,633413,488995
1367.49,0.114848,631026,484395
1370.81,0.116833,628050,479912
1374.12,0.119415,625034,474776
1378.54,0.122045,620272,468314
1381.84,0.124811,616892,462805
1385.14,0.127747,613613,457244
1388.43,0.131952,611526,451297
1391.72,0.135417,610663,447079
1395.01,0.139761,610634,442609
1398.29,0.143919,611700,439157
1402.66,0.150098,614051,434617
1405.93,0.154873,616268,431416
1409.2,0.159609,617795,427795
1412.46,0.164079,618872,424152
1415.72,0.168170,619795,420802
1418.98,0.171308,620495,418245
1422.23,0.174497,621087,415581
1426.56,0.178597,621375,411867
1429.8,0.180978,621616,409774
1433.04,0.183570,622129,407672
1436.27,0.185791,621526,405199
1439.5,0.187761,621113,403097
1442.72,0.189762,620921,401120
1445.94,0.192741,620270,397960
1450.23,0.195820,618860,394251
1453.44,0.198700,617697,390909
1456.64,0.201745,616264,387277
1459.85,0.204474,614413,383695
1463.04,0.207560,612307,379673
1466.24,0.211255,610032,375057
1469.43,0.214680,607345,370472
1473.67,0.221344,603789,362695
1476.85,0.226440,601175,356912
1480.02,0.232520,597737,349937
1483.19,0.238611,594479,343183
1486.36,0.245155,591232,336204
1489.52,0.249328,587853,331086
1492.68,0.253535,583875,325675
1496.89,0.255261,578062,321154
1500.03,0.255991,574159,318450
1503.18,0.255978,570285,316311
1506.32,0.254319,565444,314826
1509.45,0.252982,560571,313075
1512.58,0.251831,555821,311246
1515.71,0.249664,550344,309721
1519.87,0.246765,543983,308191
1522.99,0.243973,538764,307203
1526.1,0.241158,533692,306290
1529.21,0.238403,527902,304895
1532.32,0.235569,521886,303394
1535.42,0.233016,515888,301675
1538.51,0.229862,509987,300398
1541.6,0.226601,503936,299071
1545.72,0.223001,494694,296030
1548.8,0.220323,488378,294058
1551.88,0.218434,481832,291381
1554.95,0.216068,474989,288812
1558.02,0.214080,467818,285757
1561.08,0.213501,460730,281803
1564.15,0.212950,454170,278143
1568.22,0.211763,444181,272770
1571.27,0.210888,436947,268869
1574.32,0.210358,429598,264670
1577.36,0.208660,422039,261031
1580.4,0.207618,414375,256907
1583.43,0.207625,406354,251930
1586.46,0.205314,398475,248363
1590.49,0.203612,388982,243398
1593.51,0.201524,380708,239369
1596.53,0.198295,372727,236100
1599.54,0.196949,365060,231961
1602.55,0.195767,357543,227804
1605.55,0.193791,349495,223692
1608.55,0.192324,341154,219092
1612.54,0.190639,330877,213318
1615.53,0.188072,322904,209412
1618.51,0.187790,315116,204494
1621.49,0.185554,307217,200397
1624.47,0.185378,299481,195430
1627.44,0.184675,292112,190930
1630.41,0.182723,284245,186625
1634.36,0.180689,274079,180795
1637.32,0.180504,266916,176145
1640.27,0.180529,259612,171315
1643.22,0.179868,251804,166416
1646.16,0.178826,244348,161876
1649.1,0.178993,236703,156751
1652.04,0.177765,228171,151529
1655.95,0.172925,215408,144656
1658.88,0.169118,204937,138836
1661.8,0.165063,193395,132246
1664.72,0.157168,179728,125155
1667.63,0.143606,163642,117568
1670.54,0.131029,146312,108206
1673.44,0.112016,128451,99248
1677.31,0.094591,105080,84514
1680.21,0.082467,88906,73530
1683.1,0.074412,75033,63218
1685.99,0.076713,63520,53235
1688.87,0.081162,53714,44558
1691.75,0.087819,45653,37295
1694.62,0.093588,39137,31550
1697.49,0.097969,33776,26955
1701.31,0.104981,28175,22125