Folder: textile_sorting_NIRSCAN_/samples/wool/wool-000811 (part 133)

File: Column 1_050605_20150331_122604.csv
Method:,Column 1,,
Host Date-Time:,31/3/15 @ 12:26:4,,
Header Version:,1,,
System Temp (C):,34.02,,
Detector Temp (C):,34.87,,
Humidity (%):,1.66,,
Lamp PD:,3818,,
Shift Vector Coefficients:,-10.5391,0.0761263,-0.000134223,,
Pixel to Wavelength Coefficients:,1775.68,-0.916766,-0.000235065,,
Serial Number:,5510004,,
Scan Config Name:,Column 1,,
Scan Config Type:,Slew,,
Section 1,,
Start wavelength (nm):,900,,
End wavelength (nm):,1700,,
Pattern Pixel Width (nm):,   7.03,,,,
Exposure (ms):,  0.635,,,,
Digital Resolution:,228,,
Num Repeats:,6,,
PGA Gain:,64,,
Total Measurement Time in sec:,  2.677,,
Wavelength (nm),Absorbance (AU),Reference Signal (unitless),Sample Signal (unitless)
901.51,0.067508,108485,92867
905.376,0.072985,121306,102541
909.237,0.074107,131909,111216
913.095,0.076769,143299,120081
916.948,0.076373,156982,131667
922.079,0.078650,179937,150131
925.923,0.080266,200504,166670
929.762,0.081667,222660,184491
933.597,0.080887,244426,202890
937.427,0.079688,263972,219720
941.254,0.079536,281845,234679
945.076,0.078155,297271,248312
950.165,0.077779,315605,263855
953.978,0.076191,328029,275246
957.786,0.077356,340470,284920
961.59,0.076910,352317,295137
965.389,0.076890,363056,304147
969.185,0.077184,373162,312402
972.976,0.077794,382632,319880
976.763,0.078280,391202,326679
981.806,0.078300,400190,334169
985.583,0.079357,406088,338270
989.355,0.078928,410162,342001
993.124,0.080194,412868,343255
996.888,0.080368,414263,344277
1000.65,0.080926,415476,344842
1004.4,0.082348,415479,343717
1009.41,0.082535,414358,342642
1013.15,0.083664,412923,340569
1016.89,0.084497,411526,338766
1020.63,0.084393,409066,336822
1024.36,0.084054,406777,335199
1028.09,0.083591,404427,333618
1031.82,0.084154,401911,331113
1036.78,0.083067,398410,329051
1040.49,0.083323,396204,327036
1044.2,0.082853,394236,325764
1047.91,0.082867,392042,323941
1051.61,0.082692,389823,322237
1055.31,0.082256,388234,321246
1059,0.081319,387599,321413
1063.92,0.080711,386688,321107
1067.61,0.080172,386598,321431
1071.29,0.079752,387377,322390
1074.96,0.079228,388536,323745
1078.63,0.078666,389855,325265
1082.3,0.078191,391215,326757
1085.96,0.076834,393215,329455
1090.84,0.076266,396270,332449
1094.49,0.075478,398760,335146
1098.14,0.075245,400987,337198
1101.79,0.074558,403477,339829
1105.43,0.074594,406116,342024
1109.06,0.073627,407701,344124
1112.7,0.073207,409859,346280
1117.53,0.072885,412494,348765
1121.15,0.073597,414909,350232
1124.77,0.073717,416559,351528
1128.38,0.074370,418532,352662
1131.99,0.075694,419956,352785
1135.6,0.077492,421946,352992
1139.2,0.078080,423881,354131
1143.99,0.080552,426786,354534
1147.58,0.080718,428617,355919
1151.17,0.081582,431169,357327
1154.75,0.082692,433579,358407
1158.33,0.084459,436264,359162
1161.91,0.086024,439132,360223
1165.48,0.088327,442389,360975
1169.04,0.090522,446101,362169
1173.79,0.093475,451929,364414
1177.34,0.095283,456026,366190
1180.9,0.097997,461306,368122
1184.44,0.099816,467657,371631
1187.99,0.100915,473969,375695
1191.52,0.100783,479856,380477
1195.06,0.100502,487372,386686
1199.76,0.100371,497347,394719
1203.29,0.099070,504311,401447
1206.81,0.099230,511507,407025
1210.33,0.098296,519078,413939
1213.84,0.098129,527163,420548
1217.35,0.097292,534208,426991
1220.85,0.096277,540472,433008
1225.51,0.095418,549929,441457
1229.01,0.095294,556888,447171
1232.5,0.094659,562180,452081
1235.98,0.093921,567975,457518
1239.46,0.093074,574815,463932
1242.94,0.092097,582782,471421
1246.41,0.091489,591476,479124
1251.03,0.090713,604016,490157
1254.5,0.091303,612289,496196
1257.96,0.091879,619125,501071
1261.41,0.092800,624551,504392
1264.86,0.092805,629900,508706
1268.31,0.093505,634345,511471
1271.75,0.094042,638574,514244
1276.33,0.094411,642499,516965
1279.76,0.094185,645905,519976
1283.19,0.093551,648307,522672
1286.61,0.093333,650446,524660
1290.03,0.093267,652132,526100
1293.44,0.092636,653907,528299
1296.85,0.092223,655963,530465
1301.39,0.092228,657349,531579
1304.8,0.092243,657558,531730
1308.19,0.092515,658515,532170
1311.58,0.092210,658804,532778
1314.97,0.092906,659011,532092
1318.36,0.092717,658272,531727
1321.73,0.093361,658022,530737
1326.23,0.094053,657870,529770
1329.6,0.094940,656482,527573
1332.97,0.096040,654926,524992
1336.33,0.097012,653727,522859
1339.69,0.098336,652497,520286
1343.04,0.099552,649913,516777
1346.39,0.101569,647671,512608
1349.73,0.103534,645338,508456
1354.18,0.106445,641175,501801
1357.52,0.108639,638376,497093
1360.85,0.110761,635805,492678
1364.17,0.112615,633413,488733
1367.49,0.114738,631026,484517
1370.81,0.116492,628050,480289
1374.12,0.119118,625034,475101
1378.54,0.121800,620272,468578
1381.84,0.124628,616892,463000
1385.14,0.127781,613613,457208
1388.43,0.131500,611526,451767
1391.72,0.135803,610663,446682
1395.01,0.140124,610634,442239
1398.29,0.144049,611700,439025
1402.66,0.150380,614051,434335
1405.93,0.155960,616268,430338
1409.2,0.160157,617795,427255
1412.46,0.164489,618872,423752
1415.72,0.168515,619795,420468
1418.98,0.171956,620495,417621
1422.23,0.175097,621087,415007
1426.56,0.179444,621375,411064
1429.8,0.181676,621616,409116
1433.04,0.184607,622129,406699
1436.27,0.186276,621526,404747
1439.5,0.188790,621113,402143
1442.72,0.190691,620921,400263
1445.94,0.193488,620270,397276
1450.23,0.196523,618860,393613
1453.44,0.199748,617697,389967
1456.64,0.202973,616264,386184
1459.85,0.205486,614413,382802
1463.04,0.208088,612307,379211
1466.24,0.211423,610032,374912
1469.43,0.215137,607345,370082
1473.67,0.221054,603789,362937
1476.85,0.226805,601175,356612
1480.02,0.232318,597737,350100
1483.19,0.238966,594479,342902
1486.36,0.244296,591232,336870
1489.52,0.249698,587853,330804
1492.68,0.253032,583875,326053
1496.89,0.254858,578062,321452
1500.03,0.256110,574159,318363
1503.18,0.255901,570285,316367
1506.32,0.255067,565444,314284
1509.45,0.253728,560571,312538
1512.58,0.251736,555821,311314
1515.71,0.249348,550344,309946
1519.87,0.246465,543983,308404
1522.99,0.243850,538764,307290
1526.1,0.241142,533692,306301
1529.21,0.238695,527902,304690
1532.32,0.236189,521886,302961
1535.42,0.232809,515888,301819
1538.51,0.230005,509987,300299
1541.6,0.226460,503936,299168
1545.72,0.222807,494694,296162
1548.8,0.220325,488378,294057
1551.88,0.217550,481832,291975
1554.95,0.215856,474989,288953
1558.02,0.214810,467818,285277
1561.08,0.213826,460730,281592
1564.15,0.213222,454170,277969
1568.22,0.211701,444181,272809
1571.27,0.211329,436947,268596
1574.32,0.210752,429598,264430
1577.36,0.208699,422039,261008
1580.4,0.207388,414375,257043
1583.43,0.206607,406354,252521
1586.46,0.204741,398475,248691
1590.49,0.202985,388982,243750
1593.51,0.201056,380708,239627
1596.53,0.198807,372727,235822
1599.54,0.197566,365060,231632
1602.55,0.195352,357543,228022
1605.55,0.193748,349495,223714
1608.55,0.191067,341154,219727
1612.54,0.189131,330877,214060
1615.53,0.186732,322904,210059
1618.51,0.186168,315116,205259
1621.49,0.184057,307217,201089
1624.47,0.184133,299481,195991
1627.44,0.182850,292112,191734
1630.41,0.181306,284245,187235
1634.36,0.180797,274079,180750
1637.32,0.180103,266916,176308
1640.27,0.179906,259612,171561
1643.22,0.178221,251804,167048
1646.16,0.178566,244348,161973
1649.1,0.177721,236703,157211
1652.04,0.175150,228171,152444
1655.95,0.172304,215408,144863
1658.88,0.169588,204937,138686
1661.8,0.164098,193395,132540
1664.72,0.154590,179728,125900
1667.63,0.143170,163642,117686
1670.54,0.127933,146312,108980
1673.44,0.111063,128451,99466
1677.31,0.090892,105080,85237
1680.21,0.077621,88906,74355
1683.1,0.077867,75033,62717
1685.99,0.074313,63520,53530
1688.87,0.075786,53714,45113
1691.75,0.079080,45653,38053
1694.62,0.082686,39137,32352
1697.49,0.088408,33776,27555
1701.31,0.093169,28175,22735

File: Column 1_050605_20150331_122609.csv
Method:,Column 1,,
Host Date-Time:,31/3/15 @ 12:26:9,,
Header Version:,1,,
System Temp (C):,33.98,,
Detector Temp (C):,34.84,,
Humidity (%):,1.66,,
Lamp PD:,3818,,
Shift Vector Coefficients:,-10.5391,0.0761263,-0.000134223,,
Pixel to Wavelength Coefficients:,1775.68,-0.916766,-0.000235065,,
Serial Number:,5510004,,
Scan Config Name:,Column 1,,
Scan Config Type:,Slew,,
Section 1,,
Start wavelength (nm):,900,,
End wavelength (nm):,1700,,
Pattern Pixel Width (nm):,   7.03,,,,
Exposure (ms):,  0.635,,,,
Digital Resolution:,228,,
Num Repeats:,6,,
PGA Gain:,64,,
Total Measurement Time in sec:,  2.678,,
Wavelength (nm),Absorbance (AU),Reference Signal (unitless),Sample Signal (unitless)
901.51,0.067494,108485,92870
905.376,0.074661,121306,102146
909.237,0.076441,131909,110620
913.095,0.077239,143299,119951
916.948,0.078356,156982,131067
922.079,0.080256,179937,149577
925.923,0.082677,200504,165747
929.762,0.082537,222660,184122
933.597,0.081572,244426,202570
937.427,0.080616,263972,219251
941.254,0.080524,281845,234146
945.076,0.078617,297271,248048
950.165,0.077976,315605,263735
953.978,0.076619,328029,274975
957.786,0.077278,340470,284971
961.59,0.078112,352317,294321
965.389,0.077772,363056,303530
969.185,0.077285,373162,312329
972.976,0.077671,382632,319971
976.763,0.078144,391202,326781
981.806,0.078690,400190,333869
985.583,0.079199,406088,338393
989.355,0.080043,410162,341124
993.124,0.080604,412868,342931
996.888,0.080855,414263,343891
1000.65,0.081456,415476,344421
1004.4,0.082382,415479,343690
1009.41,0.083567,414358,341829
1013.15,0.084019,412923,340291
1016.89,0.084966,411526,338401
1020.63,0.084670,409066,336607
1024.36,0.084230,406777,335063
1028.09,0.084091,404427,333234
1031.82,0.084217,401911,331065
1036.78,0.083890,398410,328428
1040.49,0.083795,396204,326681
1044.2,0.084114,394236,324820
1047.91,0.083249,392042,323656
1051.61,0.083346,389823,321752
1055.31,0.082767,388234,320868
1059,0.082438,387599,320586
1063.92,0.082251,386688,319970
1067.61,0.081021,386598,320803
1071.29,0.080455,387377,321869
1074.96,0.080202,388536,323020
1078.63,0.079547,389855,324606
1082.3,0.078685,391215,326385
1085.96,0.077918,393215,328634
1090.84,0.076875,396270,331983
1094.49,0.076430,398760,334412
1098.14,0.075556,400987,336957
1101.79,0.075033,403477,339458
1105.43,0.074727,406116,341919
1109.06,0.074404,407701,343509
1112.7,0.073892,409859,345734
1117.53,0.073467,412494,348298
1121.15,0.074046,414909,349870
1124.77,0.074256,416559,351092
1128.38,0.074816,418532,352300
1131.99,0.075749,419956,352740
1135.6,0.077433,421946,353040
1139.2,0.078937,423881,353433
1143.99,0.080681,426786,354429
1147.58,0.081884,428617,354965
1151.17,0.082559,431169,356524
1154.75,0.083083,433579,358084
1158.33,0.084754,436264,358918
1161.91,0.086534,439132,359800
1165.48,0.088671,442389,360689
1169.04,0.090864,446101,361884
1173.79,0.094304,451929,363719
1177.34,0.096475,456026,365186
1180.9,0.098751,461306,367484
1184.44,0.099998,467657,371475
1187.99,0.101314,473969,375350
1191.52,0.101131,479856,380172
1195.06,0.101011,487372,386233
1199.76,0.100807,497347,394323
1203.29,0.099885,504311,400695
1206.81,0.099281,511507,406978
1210.33,0.098882,519078,413381
1213.84,0.098388,527163,420298
1217.35,0.097602,534208,426686
1220.85,0.097025,540472,432263
1225.51,0.095929,549929,440938
1229.01,0.095800,556888,446651
1232.5,0.094979,562180,451748
1235.98,0.094421,567975,456992
1239.46,0.093536,574815,463439
1242.94,0.092751,582782,470712
1246.41,0.091701,591476,478890
1251.03,0.091540,604016,489225
1254.5,0.091797,612289,495632
1257.96,0.091965,619125,500972
1261.41,0.092891,624551,504286
1264.86,0.093384,629900,508028
1268.31,0.094060,634345,510817
1271.75,0.094731,638574,513429
1276.33,0.094944,642499,516331
1279.76,0.094406,645905,519712
1283.19,0.094342,648307,521722
1286.61,0.093732,650446,524179
1290.03,0.093055,652132,526357
1293.44,0.092801,653907,528099
1296.85,0.092656,655963,529936
1301.39,0.092447,657349,531311
1304.8,0.092530,657558,531379
1308.19,0.092808,658515,531812
1311.58,0.092495,658804,532428
1314.97,0.093246,659011,531675
1318.36,0.093155,658272,531190
1321.73,0.093481,658022,530591
1326.23,0.094446,657870,529290
1329.6,0.095180,656482,527282
1332.97,0.095982,654926,525061
1336.33,0.097137,653727,522708
1339.69,0.098776,652497,519760
1343.04,0.100222,649913,515980
1346.39,0.101927,647671,512186
1349.73,0.104136,645338,507752
1354.18,0.107199,641175,500931
1357.52,0.108900,638376,496794
1360.85,0.110966,635805,492445
1364.17,0.112816,633413,488507
1367.49,0.115114,631026,484098
1370.81,0.117084,628050,479634
1374.12,0.119164,625034,475050
1378.54,0.122304,620272,468035
1381.84,0.125168,616892,462425
1385.14,0.128344,613613,456615
1388.43,0.132306,611526,450930
1391.72,0.136598,610663,445865
1395.01,0.140546,610634,441809
1398.29,0.144823,611700,438244
1402.66,0.150902,614051,433813
1405.93,0.155689,616268,430607
1409.2,0.160736,617795,426686
1412.46,0.165442,618872,422823
1415.72,0.169311,619795,419698
1418.98,0.172315,620495,417276
1422.23,0.175717,621087,414415
1426.56,0.179525,621375,410988
1429.8,0.182007,621616,408804
1433.04,0.184598,622129,406708
1436.27,0.186905,621526,404161
1439.5,0.188644,621113,402278
1442.72,0.191487,620921,399530
1445.94,0.194501,620270,396351
1450.23,0.196986,618860,393194
1453.44,0.200165,617697,389592
1456.64,0.203034,616264,386129
1459.85,0.205332,614413,382938
1463.04,0.208923,612307,378483
1466.24,0.212089,610032,374338
1469.43,0.215830,607345,369492
1473.67,0.221925,603789,362210
1476.85,0.226880,601175,356550
1480.02,0.233101,597737,349469
1483.19,0.239816,594479,342232
1486.36,0.246020,591232,335535
1489.52,0.250721,587853,330026
1492.68,0.253848,583875,325441
1496.89,0.255574,578062,320923
1500.03,0.255604,574159,318734
1503.18,0.256311,570285,316068
1506.32,0.255179,565444,314203
1509.45,0.253939,560571,312386
1512.58,0.252071,555821,311074
1515.71,0.250270,550344,309289
1519.87,0.247067,543983,307977
1522.99,0.244150,538764,307078
1526.1,0.242044,533692,305666
1529.21,0.239407,527902,304191
1532.32,0.236522,521886,302729
1535.42,0.233465,515888,301363
1538.51,0.230057,509987,300263
1541.6,0.227855,503936,298209
1545.72,0.223115,494694,295952
1548.8,0.220944,488378,293638
1551.88,0.218268,481832,291493
1554.95,0.216569,474989,288479
1558.02,0.215802,467818,284626
1561.08,0.213857,460730,281572
1564.15,0.212577,454170,278382
1568.22,0.211927,444181,272667
1571.27,0.211543,436947,268464
1574.32,0.211065,429598,264239
1577.36,0.210645,422039,259841
1580.4,0.208647,414375,256299
1583.43,0.207173,406354,252192
1586.46,0.205839,398475,248063
1590.49,0.204532,388982,242883
1593.51,0.201453,380708,239408
1596.53,0.199725,372727,235324
1599.54,0.197509,365060,231662
1602.55,0.196461,357543,227440
1605.55,0.194632,349495,223259
1608.55,0.192556,341154,218975
1612.54,0.189986,330877,213639
1615.53,0.188286,322904,209309
1618.51,0.188000,315116,204395
1621.49,0.186635,307217,199899
1624.47,0.184960,299481,195618
1627.44,0.183619,292112,191395
1630.41,0.185124,284245,185596
1634.36,0.181468,274079,180471
1637.32,0.182261,266916,175434
1640.27,0.181407,259612,170969
1643.22,0.180923,251804,166012
1646.16,0.179210,244348,161733
1649.1,0.178041,236703,157095
1652.04,0.176185,228171,152081
1655.95,0.174200,215408,144232
1658.88,0.170622,204937,138356
1661.8,0.164574,193395,132395
1664.72,0.157636,179728,125020
1667.63,0.144689,163642,117275
1670.54,0.128923,146312,108732
1673.44,0.112756,128451,99079
1677.31,0.093017,105080,84821
1680.21,0.083377,88906,73376
1683.1,0.077376,75033,62788
1685.99,0.078323,63520,53038
1688.87,0.078006,53714,44883
1691.75,0.086993,45653,37366
1694.62,0.088171,39137,31946
1697.49,0.094503,33776,27171
1701.31,0.103844,28175,22183

File: Column 1_050606_20150331_122618.csv
Method:,Column 1,,
Host Date-Time:,31/3/15 @ 12:26:18,,
Header Version:,1,,
System Temp (C):,34.02,,
Detector Temp (C):,34.85,,
Humidity (%):,1.66,,
Lamp PD:,3818,,
Shift Vector Coefficients:,-10.5391,0.0761263,-0.000134223,,
Pixel to Wavelength Coefficients:,1775.68,-0.916766,-0.000235065,,
Serial Number:,5510004,,
Scan Config Name:,Column 1,,
Scan Config Type:,Slew,,
Section 1,,
Start wavelength (nm):,900,,
End wavelength (nm):,1700,,
Pattern Pixel Width (nm):,   7.03,,,,
Exposure (ms):,  0.635,,,,
Digital Resolution:,228,,
Num Repeats:,6,,
PGA Gain:,64,,
Total Measurement Time in sec:,  2.714,,
Wavelength (nm),Absorbance (AU),Reference Signal (unitless),Sample Signal (unitless)
901.51,0.069698,108485,92400
905.376,0.075585,121306,101929
909.237,0.077093,131909,110454
913.095,0.078026,143299,119734
916.948,0.078642,156982,130981
922.079,0.079704,179937,149767
925.923,0.082198,200504,165930
929.762,0.082428,222660,184168
933.597,0.083302,244426,201765
937.427,0.082196,263972,218455
941.254,0.080507,281845,234155
945.076,0.078673,297271,248016
950.165,0.078134,315605,263639
953.978,0.077547,328029,274388
957.786,0.077408,340470,284886
961.59,0.078198,352317,294263
965.389,0.077417,363056,303778
969.185,0.077428,373162,312226
972.976,0.078845,382632,319107
976.763,0.078446,391202,326554
981.806,0.079249,400190,333440
985.583,0.080310,406088,337528
989.355,0.079817,410162,341302
993.124,0.080103,412868,343327
996.888,0.080661,414263,344045
1000.65,0.081547,415476,344349
1004.4,0.082638,415479,343488
1009.41,0.084030,414358,341465
1013.15,0.084846,412923,339643
1016.89,0.084890,411526,338460
1020.63,0.084971,409066,336374
1024.36,0.085611,406777,333999
1028.09,0.084494,404427,332925
1031.82,0.084461,401911,330879
1036.78,0.083745,398410,328538
1040.49,0.083631,396204,326804
1044.2,0.084327,394236,324660
1047.91,0.084192,392042,322954
1051.61,0.082879,389823,322098
1055.31,0.083077,388234,320639
1059,0.082691,387599,320399
1063.92,0.082211,386688,320000
1067.61,0.081148,386598,320709
1071.29,0.080205,387377,322054
1074.96,0.080096,388536,323099
1078.63,0.079172,389855,324886
1082.3,0.078391,391215,326606
1085.96,0.077751,393215,328760
1090.84,0.077104,396270,331808
1094.49,0.076443,398760,334402
1098.14,0.075701,400987,336844
1101.79,0.075588,403477,339024
1105.43,0.075141,406116,341593
1109.06,0.073879,407701,343924
1112.7,0.073874,409859,345749
1117.53,0.073634,412494,348164
1121.15,0.074282,414909,349680
1124.77,0.074679,416559,350750
1128.38,0.075076,418532,352089
1131.99,0.076127,419956,352433
1135.6,0.077778,421946,352760
1139.2,0.078670,423881,353650
1143.99,0.080886,426786,354262
1147.58,0.081914,428617,354940
1151.17,0.082693,431169,356414
1154.75,0.083791,433579,357501
1158.33,0.084824,436264,358860
1161.91,0.087249,439132,359208
1165.48,0.089111,442389,360324
1169.04,0.091338,446101,361489
1173.79,0.094781,451929,363320
1177.34,0.096343,456026,365297
1180.9,0.098633,461306,367584
1184.44,0.100428,467657,371107
1187.99,0.101452,473969,375230
1191.52,0.101200,479856,380111
1195.06,0.101152,487372,386108
1199.76,0.100814,497347,394317
1203.29,0.099991,504311,400597
1206.81,0.099797,511507,406494
1210.33,0.099578,519078,412719
1213.84,0.098429,527163,420258
1217.35,0.097619,534208,426669
1220.85,0.096734,540472,432553
1225.51,0.096492,549929,440367
1229.01,0.095785,556888,446666
1232.5,0.094824,562180,451909
1235.98,0.094519,567975,456888
1239.46,0.093150,574815,463851
1242.94,0.092637,582782,470835
1246.41,0.091718,591476,478872
1251.03,0.091889,604016,488832
1254.5,0.092042,612289,495353
1257.96,0.092678,619125,500150
1261.41,0.092759,624551,504439
1264.86,0.093463,629900,507936
1268.31,0.093655,634345,511294
1271.75,0.094691,638574,513476
1276.33,0.094979,642499,516290
1279.76,0.094667,645905,519400
1283.19,0.094276,648307,521801
1286.61,0.093842,650446,524046
1290.03,0.093275,652132,526090
1293.44,0.092936,653907,527934
1296.85,0.092731,655963,529844
1301.39,0.092678,657349,531029
1304.8,0.092434,657558,531496
1308.19,0.092753,658515,531879
1311.58,0.092503,658804,532419
1314.97,0.093085,659011,531873
1318.36,0.093928,658272,530246
1321.73,0.094017,658022,529936
1326.23,0.094671,657870,529016
1329.6,0.095384,656482,527034
1332.97,0.096508,654926,524426
1336.33,0.097205,653727,522626
1339.69,0.098949,652497,519552
1343.04,0.100195,649913,516013
1346.39,0.101954,647671,512154
1349.73,0.104199,645338,507678
1354.18,0.107232,641175,500893
1357.52,0.108959,638376,496727
1360.85,0.110923,635805,492494
1364.17,0.113011,633413,488288
1367.49,0.115162,631026,484045
1370.81,0.117228,628050,479475
1374.12,0.119547,625034,474632
1378.54,0.122540,620272,467781
1381.84,0.125170,616892,462423
1385.14,0.128317,613613,456644
1388.43,0.132140,611526,451102
1391.72,0.135804,610663,446681
1395.01,0.140439,610634,441918
1398.29,0.145014,611700,438051
1402.66,0.150855,614051,433860
1405.93,0.155974,616268,430324
1409.2,0.160279,617795,427135
1412.46,0.165519,618872,422748
1415.72,0.169337,619795,419673
1418.98,0.172812,620495,416799
1422.23,0.175662,621087,414467
1426.56,0.179962,621375,410574
1429.8,0.182422,621616,408414
1433.04,0.184381,622129,406911
1436.27,0.187111,621526,403969
1439.5,0.188724,621113,402204
1442.72,0.191567,620921,399456
1445.94,0.193708,620270,397075
1450.23,0.197620,618860,392620
1453.44,0.199917,617697,389815
1456.64,0.203204,616264,385978
1459.85,0.205518,614413,382774
1463.04,0.208974,612307,378438
1466.24,0.211837,610032,374555
1469.43,0.215268,607345,369971
1473.67,0.221697,603789,362400
1476.85,0.227245,601175,356251
1480.02,0.233452,597737,349187
1483.19,0.239579,594479,342419
1486.36,0.245676,591232,335801
1489.52,0.250116,587853,330486
1492.68,0.253667,583875,325576
1496.89,0.255525,578062,320959
1500.03,0.256242,574159,318266
1503.18,0.255908,570285,316362
1506.32,0.255565,565444,313924
1509.45,0.253517,560571,312690
1512.58,0.252550,555821,310731
1515.71,0.250256,550344,309299
1519.87,0.248078,543983,307261
1522.99,0.244774,538764,306637
1526.1,0.242245,533692,305524
1529.21,0.239530,527902,304105
1532.32,0.236893,521886,302470
1535.42,0.233607,515888,301265
1538.51,0.230410,509987,300019
1541.6,0.228346,503936,297872
1545.72,0.224156,494694,295244
1548.8,0.220626,488378,293853
1551.88,0.219009,481832,290996
1554.95,0.217136,474989,288103
1558.02,0.215202,467818,285020
1561.08,0.214593,460730,281095
1564.15,0.213697,454170,277665
1568.22,0.212469,444181,272327
1571.27,0.211938,436947,268220
1574.32,0.210937,429598,264317
1577.36,0.210896,422039,259691
1580.4,0.207863,414375,256762
1583.43,0.207804,406354,251826
1586.46,0.205851,398475,248056
1590.49,0.204064,388982,243145
1593.51,0.202051,380708,239079
1596.53,0.199464,372727,235465
1599.54,0.198298,365060,231242
1602.55,0.195565,357543,227910
1605.55,0.194053,349495,223557
1608.55,0.192675,341154,218915
1612.54,0.190855,330877,213212
1615.53,0.188267,322904,209318
1618.51,0.187552,315116,204606
1621.49,0.186808,307217,199819
1624.47,0.184932,299481,195631
1627.44,0.184243,292112,191120
1630.41,0.183296,284245,186379
1634.36,0.182685,274079,179966
1637.32,0.182083,266916,175506
1640.27,0.181944,259612,170758
1643.22,0.179888,251804,166408
1646.16,0.179627,244348,161578
1649.1,0.178946,236703,156768
1652.04,0.176557,228171,151951
1655.95,0.173118,215408,144592
1658.88,0.169328,204937,138769
1661.8,0.164279,193395,132485
1664.72,0.156654,179728,125303
1667.63,0.145108,163642,117162
1670.54,0.130106,146312,108436
1673.44,0.115257,128451,98510
1677.31,0.095142,105080,84407
1680.21,0.082549,88906,73516
1683.1,0.078740,75033,62591
1685.99,0.079964,63520,52838
1688.87,0.081133,53714,44561
1691.75,0.084166,45653,37610
1694.62,0.089205,39137,31870
1697.49,0.091460,33776,27362
1701.31,0.113144,28175,21713