Folder: textile_sorting_NIRSCAN_/samples/wool/wool-000811 (part 27)

File: Column 1_050545_20150331_115729.csv
Method:,Column 1,,
Host Date-Time:,31/3/15 @ 11:57:29,,
Header Version:,1,,
System Temp (C):,32.85,,
Detector Temp (C):,31.37,,
Humidity (%):,2.54,,
Lamp PD:,3824,,
Shift Vector Coefficients:,-10.5391,0.0761263,-0.000134223,,
Pixel to Wavelength Coefficients:,1775.68,-0.916766,-0.000235065,,
Serial Number:,5510004,,
Scan Config Name:,Column 1,,
Scan Config Type:,Slew,,
Section 1,,
Start wavelength (nm):,900,,
End wavelength (nm):,1700,,
Pattern Pixel Width (nm):,   7.03,,,,
Exposure (ms):,  0.635,,,,
Digital Resolution:,228,,
Num Repeats:,6,,
PGA Gain:,64,,
Total Measurement Time in sec:,  2.726,,
Wavelength (nm),Absorbance (AU),Reference Signal (unitless),Sample Signal (unitless)
901.51,0.046708,108485,97423
905.376,0.051195,121306,107817
909.237,0.053714,131909,116563
913.095,0.053964,143299,126555
916.948,0.052954,156982,138962
922.079,0.054229,179937,158815
925.923,0.054182,200504,176987
929.762,0.055610,222660,195899
933.597,0.056016,244426,214848
937.427,0.055040,263972,232551
941.254,0.055762,281845,247884
945.076,0.055825,297271,261413
950.165,0.055274,315605,277888
953.978,0.054773,328029,289161
957.786,0.055887,340470,299359
961.59,0.055328,352317,310174
965.389,0.055907,363056,319203
969.185,0.055702,373162,328243
972.976,0.056760,382632,335754
976.763,0.057306,391202,342843
981.806,0.057961,400190,350191
985.583,0.059179,406088,354357
989.355,0.059322,410162,357794
993.124,0.059652,412868,359881
996.888,0.060394,414263,360481
1000.65,0.060887,415476,361126
1004.4,0.061990,415479,360213
1009.41,0.063442,414358,358042
1013.15,0.064033,412923,356317
1016.89,0.064632,411526,354622
1020.63,0.064382,409066,352705
1024.36,0.064060,406777,350991
1028.09,0.063854,404427,349129
1031.82,0.063369,401911,347345
1036.78,0.062601,398410,344929
1040.49,0.062860,396204,342814
1044.2,0.061580,394236,342118
1047.91,0.061684,392042,340133
1051.61,0.060172,389823,339387
1055.31,0.060444,388234,337792
1059,0.059061,387599,338315
1063.92,0.057716,386688,338567
1067.61,0.056884,386598,339137
1071.29,0.056797,387377,339889
1074.96,0.055320,388536,342067
1078.63,0.055201,389855,343322
1082.3,0.053940,391215,345522
1085.96,0.053502,393215,347639
1090.84,0.052773,396270,350928
1094.49,0.052413,398760,353426
1098.14,0.052035,400987,355709
1101.79,0.052225,403477,357762
1105.43,0.051412,406116,360776
1109.06,0.051100,407701,362445
1112.7,0.050374,409859,364973
1117.53,0.051095,412494,366710
1121.15,0.051515,414909,368500
1124.77,0.052404,416559,369209
1128.38,0.053777,418532,369787
1131.99,0.054785,419956,370185
1135.6,0.057302,421946,369790
1139.2,0.059630,423881,369500
1143.99,0.062391,426786,369674
1147.58,0.063360,428617,370433
1151.17,0.064617,431169,371561
1154.75,0.066216,433579,372265
1158.33,0.068057,436264,372986
1161.91,0.070703,439132,373157
1165.48,0.073732,442389,373312
1169.04,0.076679,446101,373899
1173.79,0.080833,451929,375178
1177.34,0.083237,456026,376489
1180.9,0.085916,461306,378506
1184.44,0.087822,467657,382037
1187.99,0.088515,473969,386576
1191.52,0.088022,479856,391822
1195.06,0.087646,487372,398304
1199.76,0.086280,497347,407736
1203.29,0.084733,504311,414921
1206.81,0.084203,511507,421355
1210.33,0.082925,519078,428852
1213.84,0.081922,527163,436539
1217.35,0.080663,534208,443657
1220.85,0.079072,540472,450507
1225.51,0.077695,549929,459845
1229.01,0.077325,556888,466061
1232.5,0.076036,562180,471888
1235.98,0.075542,567975,477295
1239.46,0.074407,574815,484307
1242.94,0.072999,582782,492614
1246.41,0.072321,591476,500745
1251.03,0.071738,604016,512048
1254.5,0.072044,612289,518695
1257.96,0.072243,619125,524246
1261.41,0.073052,624551,527856
1264.86,0.073626,629900,531674
1268.31,0.074430,634345,534436
1271.75,0.074804,638574,537536
1276.33,0.075328,642499,540187
1279.76,0.075386,645905,542979
1283.19,0.074470,648307,546149
1286.61,0.074141,650446,548366
1290.03,0.073839,652132,550169
1293.44,0.073103,653907,552603
1296.85,0.073113,655963,554327
1301.39,0.072730,657349,555989
1304.8,0.072966,657558,555863
1308.19,0.073000,658515,556629
1311.58,0.072897,658804,557005
1314.97,0.073602,659011,556277
1318.36,0.074506,658272,554497
1321.73,0.074868,658022,553825
1326.23,0.076237,657870,551954
1329.6,0.076557,656482,550384
1332.97,0.078167,654926,547048
1336.33,0.079534,653727,544330
1339.69,0.081341,652497,541050
1343.04,0.083048,649913,536793
1346.39,0.085780,647671,531587
1349.73,0.087880,645338,527117
1354.18,0.091512,641175,519355
1357.52,0.094620,638376,513401
1360.85,0.096578,635805,509033
1364.17,0.098642,633413,504714
1367.49,0.101966,631026,498978
1370.81,0.104402,628050,493847
1374.12,0.107175,625034,488347
1378.54,0.110503,620272,480927
1381.84,0.114598,616892,473817
1385.14,0.119314,613613,466209
1388.43,0.124359,611526,459257
1391.72,0.129899,610663,452796
1395.01,0.135392,610634,447084
1398.29,0.141568,611700,441540
1402.66,0.149825,614051,434890
1405.93,0.156711,616268,429594
1409.2,0.163296,617795,424178
1412.46,0.168886,618872,419483
1415.72,0.174118,619795,415078
1418.98,0.178724,620495,411163
1422.23,0.182629,621087,407872
1426.56,0.187440,621375,403565
1429.8,0.190887,621616,400530
1433.04,0.193028,622129,398889
1436.27,0.195673,621526,396083
1439.5,0.197927,621113,393771
1442.72,0.200602,620921,391232
1445.94,0.203957,620270,387814
1450.23,0.206745,618860,384457
1453.44,0.210052,617697,380823
1456.64,0.212842,616264,377507
1459.85,0.215646,614413,373951
1463.04,0.218277,612307,370418
1466.24,0.221402,610032,366396
1469.43,0.224590,607345,362114
1473.67,0.230061,603789,355487
1476.85,0.235007,601175,349940
1480.02,0.240671,597737,343431
1483.19,0.247287,594479,336395
1486.36,0.253621,591232,329714
1489.52,0.258626,587853,324073
1492.68,0.262623,583875,318931
1496.89,0.265165,578062,313913
1500.03,0.266353,574159,310942
1503.18,0.266496,570285,308742
1506.32,0.266200,565444,306330
1509.45,0.264752,560571,304704
1512.58,0.263659,555821,302884
1515.71,0.261004,550344,301738
1519.87,0.257992,543983,300326
1522.99,0.255109,538764,299426
1526.1,0.253174,533692,297932
1529.21,0.249967,527902,296884
1532.32,0.246638,521886,295759
1535.42,0.243082,515888,294763
1538.51,0.240194,509987,293336
1541.6,0.236667,503936,292219
1545.72,0.231491,494694,290299
1548.8,0.228192,488378,288778
1551.88,0.224959,481832,287036
1554.95,0.222806,474989,284366
1558.02,0.221327,467818,281028
1561.08,0.219811,460730,277738
1564.15,0.219249,454170,274138
1568.22,0.218640,444181,268485
1571.27,0.217350,436947,264898
1574.32,0.216646,429598,260865
1577.36,0.215051,422039,257218
1580.4,0.213243,414375,253601
1583.43,0.210664,406354,250173
1586.46,0.209556,398475,245949
1590.49,0.206951,388982,241534
1593.51,0.204081,380708,237964
1596.53,0.201776,372727,234215
1599.54,0.199191,365060,230767
1602.55,0.197266,357543,227019
1605.55,0.195128,349495,223004
1608.55,0.192661,341154,218922
1612.54,0.190261,330877,213504
1615.53,0.187417,322904,209728
1618.51,0.186149,315116,205268
1621.49,0.184742,307217,200772
1624.47,0.183312,299481,196362
1627.44,0.181925,292112,192143
1630.41,0.180516,284245,187576
1634.36,0.179370,274079,181345
1637.32,0.177262,266916,177465
1640.27,0.176588,259612,172877
1643.22,0.175128,251804,168242
1646.16,0.174366,244348,163547
1649.1,0.173159,236703,158871
1652.04,0.173890,228171,152887
1655.95,0.170817,215408,145360
1658.88,0.168028,204937,139185
1661.8,0.166866,193395,131698
1664.72,0.162952,179728,123499
1667.63,0.156023,163642,114254
1670.54,0.149233,146312,103764
1673.44,0.140675,128451,92910
1677.31,0.133633,105080,77248
1680.21,0.133373,88906,65397
1683.1,0.132064,75033,55359
1685.99,0.139464,63520,46073
1688.87,0.143084,53714,38637
1691.75,0.151924,45653,32177
1694.62,0.161546,39137,26980
1697.49,0.156765,33776,23542
1701.31,0.162981,28175,19359

File: Column 1_050545_20150331_115732.csv
Method:,Column 1,,
Host Date-Time:,31/3/15 @ 11:57:32,,
Header Version:,1,,
System Temp (C):,32.86,,
Detector Temp (C):,31.37,,
Humidity (%):,2.54,,
Lamp PD:,3823,,
Shift Vector Coefficients:,-10.5391,0.0761263,-0.000134223,,
Pixel to Wavelength Coefficients:,1775.68,-0.916766,-0.000235065,,
Serial Number:,5510004,,
Scan Config Name:,Column 1,,
Scan Config Type:,Slew,,
Section 1,,
Start wavelength (nm):,900,,
End wavelength (nm):,1700,,
Pattern Pixel Width (nm):,   7.03,,,,
Exposure (ms):,  0.635,,,,
Digital Resolution:,228,,
Num Repeats:,6,,
PGA Gain:,64,,
Total Measurement Time in sec:,  2.666,,
Wavelength (nm),Absorbance (AU),Reference Signal (unitless),Sample Signal (unitless)
901.51,0.045057,108485,97794
905.376,0.050358,121306,108025
909.237,0.053036,131909,116745
913.095,0.054338,143299,126446
916.948,0.053554,156982,138770
922.079,0.054546,179937,158699
925.923,0.053476,200504,177275
929.762,0.055601,222660,195903
933.597,0.055968,244426,214872
937.427,0.055559,263972,232273
941.254,0.055410,281845,248085
945.076,0.055774,297271,261444
950.165,0.055219,315605,277923
953.978,0.054214,328029,289533
957.786,0.055650,340470,299522
961.59,0.055669,352317,309931
965.389,0.056093,363056,319066
969.185,0.056337,373162,327763
972.976,0.056911,382632,335637
976.763,0.057405,391202,342765
981.806,0.058266,400190,349945
985.583,0.059024,406088,354484
989.355,0.059089,410162,357986
993.124,0.059703,412868,359839
996.888,0.060618,414263,360295
1000.65,0.061473,415476,360639
1004.4,0.062207,415479,360033
1009.41,0.064020,414358,357566
1013.15,0.063745,412923,356553
1016.89,0.064742,411526,354532
1020.63,0.064537,409066,352579
1024.36,0.064157,406777,350913
1028.09,0.063568,404427,349359
1031.82,0.063762,401911,347031
1036.78,0.062793,398410,344776
1040.49,0.063025,396204,342684
1044.2,0.062010,394236,341780
1047.91,0.061556,392042,340233
1051.61,0.060911,389823,338810
1055.31,0.059747,388234,338335
1059,0.058701,387599,338596
1063.92,0.058564,386688,337907
1067.61,0.057514,386598,338646
1071.29,0.056709,387377,339958
1074.96,0.055917,388536,341597
1078.63,0.055275,389855,343264
1082.3,0.054776,391215,344857
1085.96,0.053397,393215,347723
1090.84,0.052888,396270,350835
1094.49,0.052644,398760,353238
1098.14,0.051722,400987,355966
1101.79,0.051913,403477,358019
1105.43,0.051488,406116,360713
1109.06,0.051585,407701,362040
1112.7,0.051005,409859,364443
1117.53,0.051209,412494,366614
1121.15,0.052161,414909,367953
1124.77,0.052729,416559,368933
1128.38,0.054235,418532,369397
1131.99,0.055950,419956,369193
1135.6,0.057720,421946,369434
1139.2,0.059782,423881,369370
1143.99,0.061712,426786,370253
1147.58,0.063635,428617,370198
1151.17,0.065017,431169,371219
1154.75,0.066872,433579,371703
1158.33,0.068145,436264,372910
1161.91,0.071052,439132,372858
1165.48,0.073658,442389,373376
1169.04,0.076252,446101,374267
1173.79,0.080434,451929,375523
1177.34,0.083762,456026,376034
1180.9,0.086110,461306,378337
1184.44,0.087416,467657,382394
1187.99,0.088609,473969,386492
1191.52,0.088276,479856,391593
1195.06,0.087537,487372,398404
1199.76,0.086061,497347,407942
1203.29,0.084779,504311,414877
1206.81,0.083863,511507,421685
1210.33,0.083237,519078,428544
1213.84,0.081742,527163,436720
1217.35,0.080714,534208,443605
1220.85,0.079958,540472,449589
1225.51,0.078232,549929,459277
1229.01,0.077653,556888,465709
1232.5,0.076690,562180,471178
1235.98,0.075520,567975,477320
1239.46,0.074278,574815,484451
1242.94,0.073858,582782,491641
1246.41,0.072229,591476,500851
1251.03,0.072115,604016,511603
1254.5,0.072529,612289,518117
1257.96,0.072424,619125,524028
1261.41,0.073141,624551,527748
1264.86,0.073664,629900,531628
1268.31,0.074286,634345,534613
1271.75,0.075493,638574,536683
1276.33,0.075654,642499,539782
1279.76,0.075660,645905,542636
1283.19,0.074703,648307,545855
1286.61,0.074839,650446,547485
1290.03,0.074119,652132,549815
1293.44,0.073572,653907,552006
1296.85,0.072950,655963,554535
1301.39,0.072852,657349,555832
1304.8,0.073197,657558,555568
1308.19,0.073346,658515,556186
1311.58,0.073209,658804,556605
1314.97,0.073933,659011,555852
1318.36,0.074587,658272,554394
1321.73,0.075029,658022,553619
1326.23,0.076127,657870,552094
1329.6,0.076757,656482,550130
1332.97,0.078128,654926,547097
1336.33,0.079237,653727,544703
1339.69,0.081328,652497,541066
1343.04,0.083015,649913,536834
1346.39,0.085564,647671,531852
1349.73,0.087802,645338,527212
1354.18,0.091956,641175,518825
1357.52,0.093893,638376,514261
1360.85,0.096794,635805,508780
1364.17,0.098728,633413,504614
1367.49,0.101643,631026,499349
1370.81,0.103946,628050,494366
1374.12,0.107174,625034,488348
1378.54,0.111210,620272,480145
1381.84,0.114434,616892,473997
1385.14,0.119308,613613,466215
1388.43,0.124556,611526,459049
1391.72,0.129876,610663,452820
1395.01,0.135662,610634,446806
1398.29,0.141425,611700,441686
1402.66,0.150306,614051,434409
1405.93,0.157039,616268,429270
1409.2,0.163043,617795,424425
1412.46,0.168458,618872,419897
1415.72,0.173607,619795,415567
1418.98,0.178380,620495,411489
1422.23,0.182517,621087,407977
1426.56,0.187305,621375,403691
1429.8,0.190043,621616,401309
1433.04,0.193427,622129,398523
1436.27,0.195215,621526,396501
1439.5,0.197406,621113,394244
1442.72,0.200725,620921,391121
1445.94,0.202492,620270,389125
1450.23,0.206592,618860,384592
1453.44,0.209574,617697,381243
1456.64,0.212472,616264,377829
1459.85,0.215220,614413,374318
1463.04,0.217764,612307,370856
1466.24,0.221075,610032,366672
1469.43,0.224614,607345,362094
1473.67,0.229504,603789,355944
1476.85,0.235128,601175,349843
1480.02,0.240446,597737,343609
1483.19,0.247557,594479,336186
1486.36,0.253355,591232,329916
1489.52,0.258751,587853,323980
1492.68,0.262117,583875,319303
1496.89,0.264994,578062,314037
1500.03,0.266127,574159,311104
1503.18,0.266461,570285,308767
1506.32,0.265653,565444,306716
1509.45,0.264721,560571,304726
1512.58,0.263280,555821,303148
1515.71,0.260964,550344,301766
1519.87,0.258299,543983,300114
1522.99,0.254471,538764,299866
1526.1,0.252253,533692,298564
1529.21,0.249180,527902,297422
1532.32,0.245979,521886,296208
1535.42,0.242682,515888,295035
1538.51,0.239586,509987,293747
1541.6,0.236610,503936,292257
1545.72,0.230724,494694,290812
1548.8,0.228081,488378,288852
1551.88,0.225195,481832,286880
1554.95,0.222407,474989,284627
1558.02,0.220821,467818,281356
1561.08,0.219552,460730,277904
1564.15,0.218396,454170,274677
1568.22,0.217158,444181,269403
1571.27,0.216973,436947,265128
1574.32,0.215428,429598,261598
1577.36,0.213916,422039,257891
1580.4,0.212770,414375,253877
1583.43,0.211161,406354,249887
1586.46,0.208176,398475,246732
1590.49,0.206274,388982,241911
1593.51,0.203765,380708,238137
1596.53,0.200746,372727,234771
1599.54,0.198850,365060,230948
1602.55,0.196343,357543,227502
1605.55,0.193653,349495,223763
1608.55,0.191611,341154,219452
1612.54,0.189371,330877,213942
1615.53,0.187427,322904,209723
1618.51,0.185750,315116,205457
1621.49,0.183815,307217,201201
1624.47,0.183250,299481,196390
1627.44,0.181132,292112,192494
1630.41,0.180488,284245,187588
1634.36,0.178122,274079,181867
1637.32,0.177710,266916,177282
1640.27,0.175551,259612,173290
1643.22,0.174136,251804,168627
1646.16,0.173560,244348,163851
1649.1,0.173517,236703,158740
1652.04,0.171575,228171,153704
1655.95,0.169299,215408,145869
1658.88,0.168353,204937,139081
1661.8,0.163938,193395,132589
1664.72,0.161131,179728,124018
1667.63,0.154695,163642,114604
1670.54,0.147984,146312,104063
1673.44,0.138935,128451,93283
1677.31,0.131765,105080,77581
1680.21,0.131723,88906,65646
1683.1,0.131296,75033,55457
1685.99,0.141353,63520,45873
1688.87,0.139424,53714,38964
1691.75,0.145174,45653,32681
1694.62,0.151537,39137,27609
1697.49,0.147909,33776,24027
1701.31,0.158473,28175,19561

File: Column 1_050545_20150331_115737.csv
Method:,Column 1,,
Host Date-Time:,31/3/15 @ 11:57:37,,
Header Version:,1,,
System Temp (C):,32.89,,
Detector Temp (C):,31.4,,
Humidity (%):,2.54,,
Lamp PD:,3823,,
Shift Vector Coefficients:,-10.5391,0.0761263,-0.000134223,,
Pixel to Wavelength Coefficients:,1775.68,-0.916766,-0.000235065,,
Serial Number:,5510004,,
Scan Config Name:,Column 1,,
Scan Config Type:,Slew,,
Section 1,,
Start wavelength (nm):,900,,
End wavelength (nm):,1700,,
Pattern Pixel Width (nm):,   7.03,,,,
Exposure (ms):,  0.635,,,,
Digital Resolution:,228,,
Num Repeats:,6,,
PGA Gain:,64,,
Total Measurement Time in sec:,  2.694,,
Wavelength (nm),Absorbance (AU),Reference Signal (unitless),Sample Signal (unitless)
901.51,0.044206,108485,97986
905.376,0.052583,121306,107473
909.237,0.053721,131909,116561
913.095,0.053885,143299,126578
916.948,0.054325,156982,138524
922.079,0.055004,179937,158532
925.923,0.054199,200504,176980
929.762,0.055559,222660,195922
933.597,0.055656,244426,215026
937.427,0.055159,263972,232487
941.254,0.056077,281845,247704
945.076,0.055428,297271,261652
950.165,0.055576,315605,277695
953.978,0.054573,328029,289294
957.786,0.055476,340470,299642
961.59,0.055458,352317,310081
965.389,0.055530,363056,319480
969.185,0.055882,373162,328107
972.976,0.056381,382632,336047
976.763,0.057099,391202,343006
981.806,0.058003,400190,350157
985.583,0.058446,406088,354956
989.355,0.059260,410162,357845
993.124,0.060028,412868,359570
996.888,0.059988,414263,360818
1000.65,0.060620,415476,361348
1004.4,0.062659,415479,359658
1009.41,0.063576,414358,357931
1013.15,0.064153,412923,356218
1016.89,0.064945,411526,354366
1020.63,0.063826,409066,353157
1024.36,0.064443,406777,350682
1028.09,0.064062,404427,348962
1031.82,0.063948,401911,346882
1036.78,0.062791,398410,344778
1040.49,0.062384,396204,343190
1044.2,0.061770,394236,341969
1047.91,0.061615,392042,340187
1051.61,0.061007,389823,338735
1055.31,0.059875,388234,338235
1059,0.059034,387599,338336
1063.92,0.057796,386688,338505
1067.61,0.057084,386598,338981
1071.29,0.056271,387377,340301
1074.96,0.055559,388536,341879
1078.63,0.056145,389855,342577
1082.3,0.053867,391215,345580
1085.96,0.053413,393215,347710
1090.84,0.052456,396270,351184
1094.49,0.052636,398760,353245
1098.14,0.051084,400987,356489
1101.79,0.050939,403477,358823
1105.43,0.051562,406116,360652
1109.06,0.050508,407701,362939
1112.7,0.050948,409859,364491
1117.53,0.050379,412494,367315
1121.15,0.051421,414909,368580
1124.77,0.052029,416559,369528
1128.38,0.054272,418532,369366
1131.99,0.055258,419956,369782
1135.6,0.057764,421946,369397
1139.2,0.059277,423881,369800
1143.99,0.062267,426786,369780
1147.58,0.063451,428617,370355
1151.17,0.065055,431169,371187
1154.75,0.066162,433579,372311
1158.33,0.068241,436264,372828
1161.91,0.070089,439132,373685
1165.48,0.073470,442389,373538
1169.04,0.076313,446101,374214
1173.79,0.081314,451929,374763
1177.34,0.083601,456026,376174
1180.9,0.085828,461306,378583
1184.44,0.088035,467657,381850
1187.99,0.088704,473969,386408
1191.52,0.088097,479856,391754
1195.06,0.087720,487372,398236
1199.76,0.086563,497347,407471
1203.29,0.085245,504311,414432
1206.81,0.083371,511507,422163
1210.33,0.082670,519078,429104
1213.84,0.081137,527163,437329
1217.35,0.080334,534208,443993
1220.85,0.078815,540472,450773
1225.51,0.078152,549929,459362
1229.01,0.077225,556888,466168
1232.5,0.075825,562180,472118
1235.98,0.075494,567975,477348
1239.46,0.074353,574815,484368
1242.94,0.073118,582782,492479
1246.41,0.072484,591476,500556
1251.03,0.071807,604016,511966
1254.5,0.072214,612289,518493
1257.96,0.072473,619125,523969
1261.41,0.073188,624551,527691
1264.86,0.073774,629900,531493
1268.31,0.074317,634345,534575
1271.75,0.074661,638574,537713
1276.33,0.074691,642499,540980
1279.76,0.075146,645905,543279
1283.19,0.074613,648307,545969
1286.61,0.073924,650446,548640
1290.03,0.073600,652132,550472
1293.44,0.073104,653907,552601
1296.85,0.073207,655963,554208
1301.39,0.072528,657349,556247
1304.8,0.072769,657558,556115
1308.19,0.073154,658515,556432
1311.58,0.073147,658804,556684
1314.97,0.073930,659011,555856
1318.36,0.074191,658272,554900
1321.73,0.074989,658022,553671
1326.23,0.075948,657870,552322
1329.6,0.076568,656482,550370
1332.97,0.077747,654926,547577
1336.33,0.079571,653727,544284
1339.69,0.081112,652497,541335
1343.04,0.082735,649913,537180
1346.39,0.085320,647671,532151
1349.73,0.087865,645338,527136
1354.18,0.091504,641175,519365
1357.52,0.093633,638376,514569
1360.85,0.096403,635805,509238
1364.17,0.098665,633413,504687
1367.49,0.101727,631026,499252
1370.81,0.104061,628050,494235
1374.12,0.106996,625034,488549
1378.54,0.110220,620272,481241
1381.84,0.114754,616892,473647
1385.14,0.118751,613613,466814
1388.43,0.124327,611526,459291
1391.72,0.130156,610663,452528
1395.01,0.135772,610634,446693
1398.29,0.141205,611700,441910
1402.66,0.149574,614051,435141
1405.93,0.156389,616268,429913
1409.2,0.162071,617795,425376
1412.46,0.168743,618872,419622
1415.72,0.173655,619795,415521
1418.98,0.177881,620495,411962
1422.23,0.182225,621087,408251
1426.56,0.186920,621375,404049
1429.8,0.189886,621616,401454
1433.04,0.192947,622129,398964
1436.27,0.195153,621526,396558
1439.5,0.197429,621113,394223
1442.72,0.200123,620921,391664
1445.94,0.202916,620270,388745
1450.23,0.206331,618860,384823
1453.44,0.209188,617697,381582
1456.64,0.211841,616264,378378
1459.85,0.214806,614413,374675
1463.04,0.217861,612307,370773
1466.24,0.220965,610032,366765
1469.43,0.224413,607345,362262
1473.67,0.229611,603789,355856
1476.85,0.235357,601175,349658
1480.02,0.240839,597737,343298
1483.19,0.247473,594479,336251
1486.36,0.253281,591232,329972
1489.52,0.258479,587853,324183
1492.68,0.262101,583875,319315
1496.89,0.264600,578062,314322
1500.03,0.266168,574159,311074
1503.18,0.266666,570285,308621
1506.32,0.265795,565444,306616
1509.45,0.264526,560571,304863
1512.58,0.263277,555821,303150
1515.71,0.260971,550344,301761
1519.87,0.258221,543983,300168
1522.99,0.254942,538764,299541
1526.1,0.251676,533692,298961
1529.21,0.248947,527902,297582
1532.32,0.245621,521886,296452
1535.42,0.242610,515888,295084
1538.51,0.239277,509987,293956
1541.6,0.234825,503936,293461
1545.72,0.230875,494694,290711
1548.8,0.227303,488378,289370
1551.88,0.225297,481832,286813
1554.95,0.222913,474989,284296
1558.02,0.220543,467818,281536
1561.08,0.218872,460730,278339
1564.15,0.219338,454170,274082
1568.22,0.217345,444181,269287
1571.27,0.216891,436947,265178
1574.32,0.215333,429598,261655
1577.36,0.213630,422039,258061
1580.4,0.212627,414375,253961
1583.43,0.210326,406354,250368
1586.46,0.210511,398475,245409
1590.49,0.206550,388982,241757
1593.51,0.203778,380708,238130
1596.53,0.201717,372727,234247
1599.54,0.199315,365060,230701
1602.55,0.197004,357543,227156
1605.55,0.194173,349495,223495
1608.55,0.192949,341154,218777
1612.54,0.188642,330877,214301
1615.53,0.186463,322904,210189
1618.51,0.185287,315116,205676
1621.49,0.183612,307217,201295
1624.47,0.182784,299481,196601
1627.44,0.181746,292112,192222
1630.41,0.178762,284245,188335
1634.36,0.178946,274079,181522
1637.32,0.176702,266916,177694
1640.27,0.176766,259612,172806
1643.22,0.174522,251804,168477
1646.16,0.173867,244348,163735
1649.1,0.173958,236703,158579
1652.04,0.171643,228171,153680
1655.95,0.170500,215408,145466
1658.88,0.167345,204937,139404
1661.8,0.166408,193395,131837
1664.72,0.161338,179728,123959
1667.63,0.154979,163642,114529
1670.54,0.149468,146312,103708
1673.44,0.140283,128451,92994
1677.31,0.132880,105080,77382
1680.21,0.128211,88906,66179
1683.1,0.127949,75033,55886
1685.99,0.136552,63520,46383
1688.87,0.138811,53714,39019
1691.75,0.144271,45653,32749
1694.62,0.143943,39137,28096
1697.49,0.150010,33776,23911
1701.31,0.159963,28175,19494