Folder: textile_sorting_NIRSCAN_/samples/wool/wool-000811 (part 127)

File: Column 1_050602_20150331_122429.csv
Method:,Column 1,,
Host Date-Time:,31/3/15 @ 12:24:29,,
Header Version:,1,,
System Temp (C):,34.01,,
Detector Temp (C):,34.77,,
Humidity (%):,1.76,,
Lamp PD:,3819,,
Shift Vector Coefficients:,-10.5391,0.0761263,-0.000134223,,
Pixel to Wavelength Coefficients:,1775.68,-0.916766,-0.000235065,,
Serial Number:,5510004,,
Scan Config Name:,Column 1,,
Scan Config Type:,Slew,,
Section 1,,
Start wavelength (nm):,900,,
End wavelength (nm):,1700,,
Pattern Pixel Width (nm):,   7.03,,,,
Exposure (ms):,  0.635,,,,
Digital Resolution:,228,,
Num Repeats:,6,,
PGA Gain:,64,,
Total Measurement Time in sec:,  2.669,,
Wavelength (nm),Absorbance (AU),Reference Signal (unitless),Sample Signal (unitless)
901.51,0.070931,108485,92138
905.376,0.074648,121306,102149
909.237,0.076044,131909,110721
913.095,0.077486,143299,119883
916.948,0.077532,156982,131316
922.079,0.080566,179937,149470
925.923,0.082449,200504,165834
929.762,0.082089,222660,184312
933.597,0.082493,244426,202141
937.427,0.080393,263972,219364
941.254,0.079977,281845,234441
945.076,0.079734,297271,247411
950.165,0.078780,315605,263247
953.978,0.077740,328029,274266
957.786,0.077707,340470,284690
961.59,0.078403,352317,294124
965.389,0.077779,363056,303525
969.185,0.077771,373162,311980
972.976,0.078773,382632,319160
976.763,0.078779,391202,326304
981.806,0.078793,400190,333790
985.583,0.079571,406088,338103
989.355,0.080187,410162,341011
993.124,0.080822,412868,342759
996.888,0.081267,414263,343565
1000.65,0.081608,415476,344301
1004.4,0.083166,415479,343070
1009.41,0.084253,414358,341289
1013.15,0.084825,412923,339660
1016.89,0.085506,411526,337980
1020.63,0.084937,409066,336400
1024.36,0.085046,406777,334434
1028.09,0.084798,404427,332692
1031.82,0.084831,401911,330597
1036.78,0.084471,398410,327989
1040.49,0.083750,396204,326715
1044.2,0.084449,394236,324569
1047.91,0.084107,392042,323017
1051.61,0.083603,389823,321562
1055.31,0.083196,388234,320551
1059,0.082778,387599,320335
1063.92,0.082151,386688,320044
1067.61,0.081330,386598,320575
1071.29,0.081043,387377,321433
1074.96,0.080319,388536,322933
1078.63,0.079354,389855,324750
1082.3,0.078691,391215,326381
1085.96,0.078005,393215,328568
1090.84,0.076820,396270,332025
1094.49,0.076423,398760,334417
1098.14,0.075810,400987,336760
1101.79,0.075161,403477,339358
1105.43,0.075013,406116,341694
1109.06,0.074368,407701,343537
1112.7,0.074150,409859,345529
1117.53,0.074187,412494,347721
1121.15,0.074446,414909,349548
1124.77,0.074217,416559,351123
1128.38,0.075537,418532,351716
1131.99,0.076771,419956,351911
1135.6,0.078299,421946,352337
1139.2,0.079448,423881,353017
1143.99,0.081289,426786,353933
1147.58,0.082120,428617,354772
1151.17,0.083189,431169,356007
1154.75,0.083871,433579,357435
1158.33,0.085573,436264,358242
1161.91,0.087377,439132,359102
1165.48,0.089323,442389,360148
1169.04,0.091575,446101,361292
1173.79,0.094865,451929,363250
1177.34,0.097122,456026,364643
1180.9,0.098682,461306,367542
1184.44,0.100920,467657,370687
1187.99,0.101697,473969,375019
1191.52,0.101071,479856,380224
1195.06,0.101906,487372,385438
1199.76,0.100963,497347,394182
1203.29,0.100037,504311,400554
1206.81,0.099694,511507,406591
1210.33,0.099381,519078,412906
1213.84,0.099027,527163,419680
1217.35,0.098428,534208,425875
1220.85,0.097317,540472,431973
1225.51,0.096412,549929,440448
1229.01,0.095777,556888,446674
1232.5,0.095654,562180,451047
1235.98,0.094504,567975,456904
1239.46,0.094163,574815,462770
1242.94,0.093112,582782,470321
1246.41,0.092325,591476,478203
1251.03,0.092100,604016,488594
1254.5,0.092326,612289,495029
1257.96,0.092868,619125,499931
1261.41,0.093664,624551,503389
1264.86,0.093835,629900,507501
1268.31,0.094523,634345,510273
1271.75,0.095214,638574,512858
1276.33,0.095410,642499,515777
1279.76,0.095153,645905,518819
1283.19,0.094530,648307,521496
1286.61,0.094342,650446,523443
1290.03,0.093770,652132,525491
1293.44,0.093337,653907,527447
1296.85,0.093118,655963,529372
1301.39,0.092549,657349,531187
1304.8,0.092908,657558,530916
1308.19,0.093023,658515,531548
1311.58,0.093171,658804,531600
1314.97,0.093640,659011,531194
1318.36,0.094175,658272,529945
1321.73,0.094522,658022,529320
1326.23,0.095107,657870,528485
1329.6,0.096139,656482,526119
1332.97,0.096822,654926,524047
1336.33,0.097960,653727,521719
1339.69,0.099293,652497,519141
1343.04,0.100841,649913,515245
1346.39,0.102454,647671,511565
1349.73,0.104814,645338,506960
1354.18,0.107740,641175,500307
1357.52,0.110000,638376,495538
1360.85,0.111563,635805,491769
1364.17,0.113611,633413,487614
1367.49,0.115959,631026,483157
1370.81,0.118061,628050,478556
1374.12,0.119993,625034,474144
1378.54,0.123350,620272,466909
1381.84,0.126556,616892,460949
1385.14,0.129482,613613,455420
1388.43,0.133134,611526,450071
1391.72,0.137110,610663,445340
1395.01,0.141452,610634,440889
1398.29,0.146159,611700,436897
1402.66,0.152271,614051,432448
1405.93,0.157277,616268,429035
1409.2,0.162045,617795,425402
1412.46,0.166499,618872,421795
1415.72,0.170168,619795,418871
1418.98,0.174101,620495,415563
1422.23,0.177318,621087,412890
1426.56,0.181540,621375,409085
1429.8,0.183988,621616,406944
1433.04,0.186296,622129,405121
1436.27,0.188567,621526,402617
1439.5,0.189963,621113,401058
1442.72,0.193448,620921,397730
1445.94,0.195753,620270,395210
1450.23,0.198903,618860,391462
1453.44,0.201044,617697,388805
1456.64,0.204254,616264,385046
1459.85,0.207069,614413,381409
1463.04,0.210294,612307,377290
1466.24,0.213138,610032,373435
1469.43,0.217043,607345,368462
1473.67,0.222592,603789,361654
1476.85,0.228367,601175,355332
1480.02,0.234083,597737,348680
1483.19,0.240904,594479,341376
1486.36,0.246217,591232,335383
1489.52,0.251027,587853,329793
1492.68,0.254064,583875,325279
1496.89,0.256959,578062,319901
1500.03,0.256636,574159,317977
1503.18,0.257186,570285,315432
1506.32,0.256310,565444,313386
1509.45,0.254633,560571,311887
1512.58,0.253120,555821,310324
1515.71,0.250697,550344,308985
1519.87,0.248055,543983,307277
1522.99,0.245541,538764,306096
1526.1,0.242521,533692,305330
1529.21,0.240410,527902,303489
1532.32,0.236952,521886,302429
1535.42,0.233905,515888,301058
1538.51,0.230954,509987,299644
1541.6,0.229365,503936,297174
1545.72,0.224606,494694,294938
1548.8,0.221880,488378,293006
1551.88,0.219624,481832,290584
1554.95,0.217222,474989,288046
1558.02,0.215310,467818,284949
1561.08,0.214379,460730,281234
1564.15,0.213733,454170,277642
1568.22,0.213459,444181,271707
1571.27,0.211897,436947,268245
1574.32,0.211618,429598,263903
1577.36,0.209850,422039,260317
1580.4,0.210015,414375,255493
1583.43,0.207158,406354,252201
1586.46,0.206170,398475,247874
1590.49,0.204593,388982,242849
1593.51,0.202152,380708,239023
1596.53,0.200728,372727,234781
1599.54,0.198677,365060,231040
1602.55,0.195826,357543,227773
1605.55,0.194718,349495,223215
1608.55,0.192152,341154,219179
1612.54,0.190804,330877,213237
1615.53,0.189143,322904,208896
1618.51,0.188145,315116,204327
1621.49,0.187446,307217,199526
1624.47,0.185585,299481,195337
1627.44,0.184596,292112,190965
1630.41,0.184278,284245,185958
1634.36,0.182726,274079,179949
1637.32,0.182001,266916,175539
1640.27,0.180796,259612,171210
1643.22,0.180053,251804,166345
1646.16,0.179785,244348,161519
1649.1,0.179645,236703,156516
1652.04,0.176674,228171,151910
1655.95,0.174269,215408,144209
1658.88,0.169986,204937,138559
1661.8,0.164908,193395,132293
1664.72,0.157734,179728,124992
1667.63,0.144712,163642,117269
1670.54,0.132089,146312,107942
1673.44,0.113238,128451,98969
1677.31,0.095347,105080,84367
1680.21,0.082992,88906,73441
1683.1,0.079692,75033,62454
1685.99,0.081372,63520,52667
1688.87,0.079586,53714,44720
1691.75,0.085693,45653,37478
1694.62,0.089628,39137,31839
1697.49,0.094822,33776,27151
1701.31,0.103746,28175,22188

File: Column 1_050602_20150331_122438.csv
Method:,Column 1,,
Host Date-Time:,31/3/15 @ 12:24:38,,
Header Version:,1,,
System Temp (C):,34.03,,
Detector Temp (C):,34.75,,
Humidity (%):,1.76,,
Lamp PD:,3818,,
Shift Vector Coefficients:,-10.5391,0.0761263,-0.000134223,,
Pixel to Wavelength Coefficients:,1775.68,-0.916766,-0.000235065,,
Serial Number:,5510004,,
Scan Config Name:,Column 1,,
Scan Config Type:,Slew,,
Section 1,,
Start wavelength (nm):,900,,
End wavelength (nm):,1700,,
Pattern Pixel Width (nm):,   7.03,,,,
Exposure (ms):,  0.635,,,,
Digital Resolution:,228,,
Num Repeats:,6,,
PGA Gain:,64,,
Total Measurement Time in sec:,  2.671,,
Wavelength (nm),Absorbance (AU),Reference Signal (unitless),Sample Signal (unitless)
901.51,0.069214,108485,92503
905.376,0.073019,121306,102533
909.237,0.076739,131909,110544
913.095,0.077913,143299,119765
916.948,0.080496,156982,130423
922.079,0.079815,179937,149729
925.923,0.082586,200504,165782
929.762,0.081603,222660,184518
933.597,0.081660,244426,202529
937.427,0.081155,263972,218979
941.254,0.081394,281845,233677
945.076,0.079074,297271,247787
950.165,0.078404,315605,263475
953.978,0.077837,328029,274205
957.786,0.077470,340470,284845
961.59,0.078095,352317,294333
965.389,0.078477,363056,303038
969.185,0.078239,373162,311644
972.976,0.078382,382632,319447
976.763,0.078962,391202,326166
981.806,0.079658,400190,333126
985.583,0.080098,406088,337693
989.355,0.080224,410162,340982
993.124,0.080029,412868,343386
996.888,0.081078,414263,343715
1000.65,0.082054,415476,343947
1004.4,0.083206,415479,343039
1009.41,0.084329,414358,341230
1013.15,0.084394,412923,339997
1016.89,0.085749,411526,337791
1020.63,0.085392,409066,336048
1024.36,0.085034,406777,334443
1028.09,0.085339,404427,332278
1031.82,0.085141,401911,330361
1036.78,0.084133,398410,328244
1040.49,0.084671,396204,326023
1044.2,0.084610,394236,324449
1047.91,0.084426,392042,322780
1051.61,0.083732,389823,321466
1055.31,0.083401,388234,320400
1059,0.083348,387599,319915
1063.92,0.081987,386688,320165
1067.61,0.081001,386598,320818
1071.29,0.080457,387377,321867
1074.96,0.080692,388536,322656
1078.63,0.079872,389855,324363
1082.3,0.077943,391215,326943
1085.96,0.078078,393215,328513
1090.84,0.077082,396270,331825
1094.49,0.076609,398760,334274
1098.14,0.076229,400987,336435
1101.79,0.076295,403477,338473
1105.43,0.075383,406116,341403
1109.06,0.074772,407701,343218
1112.7,0.074795,409859,345016
1117.53,0.073925,412494,347931
1121.15,0.074733,414909,349317
1124.77,0.074180,416559,351153
1128.38,0.075685,418532,351596
1131.99,0.076398,419956,352213
1135.6,0.078660,421946,352044
1139.2,0.079175,423881,353239
1143.99,0.081240,426786,353973
1147.58,0.081965,428617,354899
1151.17,0.083686,431169,355600
1154.75,0.084156,433579,357201
1158.33,0.085786,436264,358066
1161.91,0.086533,439132,359801
1165.48,0.089142,442389,360298
1169.04,0.091571,446101,361295
1173.79,0.094612,451929,363461
1177.34,0.096861,456026,364862
1180.9,0.098979,461306,367291
1184.44,0.100753,467657,370830
1187.99,0.101933,473969,374815
1191.52,0.101955,479856,379451
1195.06,0.101676,487372,385642
1199.76,0.100974,497347,394172
1203.29,0.100592,504311,400043
1206.81,0.099717,511507,406569
1210.33,0.099373,519078,412914
1213.84,0.098858,527163,419843
1217.35,0.098669,534208,425639
1220.85,0.097746,540472,431546
1225.51,0.097000,549929,439852
1229.01,0.096586,556888,445843
1232.5,0.095438,562180,451271
1235.98,0.095303,567975,456064
1239.46,0.093743,574815,463218
1242.94,0.092845,582782,470610
1246.41,0.092094,591476,478457
1251.03,0.092177,604016,488508
1254.5,0.092370,612289,494979
1257.96,0.092917,619125,499875
1261.41,0.093110,624551,504032
1264.86,0.094177,629900,507101
1268.31,0.094561,634345,510228
1271.75,0.095400,638574,512638
1276.33,0.095373,642499,515822
1279.76,0.095009,645905,518991
1283.19,0.094251,648307,521831
1286.61,0.094338,650446,523448
1290.03,0.093943,652132,525282
1293.44,0.093339,653907,527445
1296.85,0.093230,655963,529236
1301.39,0.093081,657349,530536
1304.8,0.092860,657558,530975
1308.19,0.092927,658515,531666
1311.58,0.093064,658804,531731
1314.97,0.093870,659011,530912
1318.36,0.093896,658272,530285
1321.73,0.094447,658022,529412
1326.23,0.095332,657870,528212
1329.6,0.096156,656482,526098
1332.97,0.096790,654926,524086
1336.33,0.097595,653727,522157
1339.69,0.099193,652497,519261
1343.04,0.100570,649913,515567
1346.39,0.103137,647671,510761
1349.73,0.104866,645338,506899
1354.18,0.107648,641175,500413
1357.52,0.109741,638376,495833
1360.85,0.111700,635805,491614
1364.17,0.113537,633413,487697
1367.49,0.115735,631026,483406
1370.81,0.118030,628050,478591
1374.12,0.120163,625034,473959
1378.54,0.122833,620272,467465
1381.84,0.125829,616892,461722
1385.14,0.129282,613613,455630
1388.43,0.132849,611526,450366
1391.72,0.136927,610663,445528
1395.01,0.141022,610634,441325
1398.29,0.145145,611700,437919
1402.66,0.152367,614051,432352
1405.93,0.156987,616268,429321
1409.2,0.161739,617795,425702
1412.46,0.166434,618872,421859
1415.72,0.170093,619795,418943
1418.98,0.173755,620495,415895
1422.23,0.176899,621087,413289
1426.56,0.181102,621375,409498
1429.8,0.183140,621616,407739
1433.04,0.186241,622129,405172
1436.27,0.188375,621526,402795
1439.5,0.190712,621113,400367
1442.72,0.192849,620921,398279
1445.94,0.195573,620270,395374
1450.23,0.198242,618860,392058
1453.44,0.201560,617697,388343
1456.64,0.204198,616264,385096
1459.85,0.206412,614413,381987
1463.04,0.209965,612307,377576
1466.24,0.213432,610032,373182
1469.43,0.216831,607345,368642
1473.67,0.222754,603789,361519
1476.85,0.228634,601175,355113
1480.02,0.233715,597737,348976
1483.19,0.240683,594479,341549
1486.36,0.246387,591232,335252
1489.52,0.251577,587853,329376
1492.68,0.254662,583875,324831
1496.89,0.256630,578062,320143
1500.03,0.257494,574159,317350
1503.18,0.257024,570285,315550
1506.32,0.256406,565444,313317
1509.45,0.254941,560571,311666
1512.58,0.253162,555821,310294
1515.71,0.251223,550344,308611
1519.87,0.248228,543983,307155
1522.99,0.244647,538764,306727
1526.1,0.243336,533692,304758
1529.21,0.240171,527902,303656
1532.32,0.237119,521886,302313
1535.42,0.234561,515888,300604
1538.51,0.231769,509987,299082
1541.6,0.228346,503936,297872
1545.72,0.224765,494694,294830
1548.8,0.221848,488378,293027
1551.88,0.219558,481832,290628
1554.95,0.217021,474989,288179
1558.02,0.216225,467818,284349
1561.08,0.214314,460730,281276
1564.15,0.214198,454170,277345
1568.22,0.212876,444181,272072
1571.27,0.212360,436947,267959
1574.32,0.212582,429598,263318
1577.36,0.210739,422039,259785
1580.4,0.209118,414375,256021
1583.43,0.207780,406354,251840
1586.46,0.205920,398475,248017
1590.49,0.203686,388982,243357
1593.51,0.201954,380708,239132
1596.53,0.200013,372727,235168
1599.54,0.198506,365060,231131
1602.55,0.196158,357543,227599
1605.55,0.194630,349495,223260
1608.55,0.193084,341154,218709
1612.54,0.190912,330877,213184
1615.53,0.188337,322904,209284
1618.51,0.187641,315116,204564
1621.49,0.186624,307217,199904
1624.47,0.185740,299481,195267
1627.44,0.185258,292112,190674
1630.41,0.183916,284245,186113
1634.36,0.182659,274079,179977
1637.32,0.183428,266916,174963
1640.27,0.181934,259612,170762
1643.22,0.181038,251804,165968
1646.16,0.179869,244348,161488
1649.1,0.179298,236703,156641
1652.04,0.177911,228171,151478
1655.95,0.174188,215408,144236
1658.88,0.170422,204937,138420
1661.8,0.165155,193395,132218
1664.72,0.157074,179728,125182
1667.63,0.144960,163642,117202
1670.54,0.131025,146312,108207
1673.44,0.115323,128451,98495
1677.31,0.096203,105080,84201
1680.21,0.083525,88906,73351
1683.1,0.077735,75033,62736
1685.99,0.079135,63520,52939
1688.87,0.081152,53714,44559
1691.75,0.081863,45653,37810
1694.62,0.092433,39137,31634
1697.49,0.096473,33776,27048
1701.31,0.107856,28175,21979

File: Column 1_050602_20150331_122443.csv
Method:,Column 1,,
Host Date-Time:,31/3/15 @ 12:24:43,,
Header Version:,1,,
System Temp (C):,34.02,,
Detector Temp (C):,34.8,,
Humidity (%):,1.76,,
Lamp PD:,3818,,
Shift Vector Coefficients:,-10.5391,0.0761263,-0.000134223,,
Pixel to Wavelength Coefficients:,1775.68,-0.916766,-0.000235065,,
Serial Number:,5510004,,
Scan Config Name:,Column 1,,
Scan Config Type:,Slew,,
Section 1,,
Start wavelength (nm):,900,,
End wavelength (nm):,1700,,
Pattern Pixel Width (nm):,   7.03,,,,
Exposure (ms):,  0.635,,,,
Digital Resolution:,228,,
Num Repeats:,6,,
PGA Gain:,64,,
Total Measurement Time in sec:,  2.670,,
Wavelength (nm),Absorbance (AU),Reference Signal (unitless),Sample Signal (unitless)
901.51,0.069101,108485,92527
905.376,0.073099,121306,102514
909.237,0.078408,131909,110120
913.095,0.079905,143299,119217
916.948,0.078894,156982,130905
922.079,0.081838,179937,149033
925.923,0.082122,200504,165959
929.762,0.082999,222660,183926
933.597,0.082787,244426,202004
937.427,0.081387,263972,218862
941.254,0.080242,281845,234298
945.076,0.079598,297271,247488
950.165,0.078085,315605,263669
953.978,0.077913,328029,274157
957.786,0.078276,340470,284317
961.59,0.078468,352317,294080
965.389,0.077879,363056,303455
969.185,0.078338,373162,311573
972.976,0.078630,382632,319265
976.763,0.078745,391202,326329
981.806,0.078768,400190,333809
985.583,0.080619,406088,337288
989.355,0.080814,410162,340519
993.124,0.080941,412868,342665
996.888,0.081126,414263,343677
1000.65,0.082020,415476,343974
1004.4,0.083304,415479,342961
1009.41,0.084745,414358,340903
1013.15,0.085251,412923,339327
1016.89,0.085601,411526,337906
1020.63,0.085370,409066,336065
1024.36,0.085142,406777,334360
1028.09,0.085295,404427,332311
1031.82,0.085221,401911,330300
1036.78,0.084848,398410,327704
1040.49,0.084320,396204,326286
1044.2,0.084398,394236,324607
1047.91,0.084060,392042,323052
1051.61,0.083535,389823,321612
1055.31,0.083297,388234,320477
1059,0.082884,387599,320257
1063.92,0.082224,386688,319990
1067.61,0.081287,386598,320607
1071.29,0.081522,387377,321079
1074.96,0.080698,388536,322651
1078.63,0.079983,389855,324280
1082.3,0.079090,391215,326081
1085.96,0.078617,393215,328105
1090.84,0.077259,396270,331690
1094.49,0.076412,398760,334426
1098.14,0.076313,400987,336370
1101.79,0.076163,403477,338576
1105.43,0.075767,406116,341101
1109.06,0.074616,407701,343341
1112.7,0.074562,409859,345201
1117.53,0.074155,412494,347746
1121.15,0.074542,414909,349471
1124.77,0.074697,416559,350735
1128.38,0.075553,418532,351703
1131.99,0.076894,419956,351811
1135.6,0.077993,421946,352585
1139.2,0.079115,423881,353288
1143.99,0.081724,426786,353579
1147.58,0.082315,428617,354613
1151.17,0.083737,431169,355558
1154.75,0.083973,433579,357351
1158.33,0.085214,436264,358538
1161.91,0.087074,439132,359353
1165.48,0.089479,442389,360019
1169.04,0.091321,446101,361503
1173.79,0.095148,451929,363013
1177.34,0.096926,456026,364807
1180.9,0.099090,461306,367197
1184.44,0.100958,467657,370655
1187.99,0.102060,473969,374705
1191.52,0.102107,479856,379318
1195.06,0.102272,487372,385113
1199.76,0.100769,497347,394358
1203.29,0.100313,504311,400300
1206.81,0.099671,511507,406612
1210.33,0.098880,519078,413383
1213.84,0.098400,527163,420286
1217.35,0.098228,534208,426071
1220.85,0.097054,540472,432234
1225.51,0.096573,549929,440285
1229.01,0.096228,556888,446211
1232.5,0.095822,562180,450872
1235.98,0.094863,567975,456527
1239.46,0.094100,574815,462837
1242.94,0.093103,582782,470330
1246.41,0.092526,591476,477981
1251.03,0.092446,604016,488205
1254.5,0.092672,612289,494635
1257.96,0.093442,619125,499271
1261.41,0.093368,624551,503733
1264.86,0.094102,629900,507189
1268.31,0.094857,634345,509881
1271.75,0.095218,638574,512853
1276.33,0.095378,642499,515815
1279.76,0.095024,645905,518973
1283.19,0.094591,648307,521422
1286.61,0.094450,650446,523313
1290.03,0.093993,652132,525222
1293.44,0.093586,653907,527145
1296.85,0.093429,655963,528993
1301.39,0.093074,657349,530545
1304.8,0.092785,657558,531067
1308.19,0.093103,658515,531450
1311.58,0.093188,658804,531579
1314.97,0.093888,659011,530890
1318.36,0.094361,658272,529717
1321.73,0.094652,658022,529162
1326.23,0.095556,657870,527940
1329.6,0.096210,656482,526033
1332.97,0.096926,654926,523922
1336.33,0.098037,653727,521626
1339.69,0.099370,652497,519049
1343.04,0.100862,649913,515221
1346.39,0.102892,647671,511049
1349.73,0.105070,645338,506661
1354.18,0.107775,641175,500267
1357.52,0.110121,638376,495399
1360.85,0.111590,635805,491738
1364.17,0.113818,633413,487381
1367.49,0.115867,631026,483259
1370.81,0.118010,628050,478613
1374.12,0.120072,625034,474058
1378.54,0.122653,620272,467659
1381.84,0.126070,616892,461465
1385.14,0.129489,613613,455413
1388.43,0.133106,611526,450100
1391.72,0.136821,610663,445636
1395.01,0.140957,610634,441392
1398.29,0.146079,611700,436978
1402.66,0.152094,614051,432624
1405.93,0.157055,616268,429254
1409.2,0.161952,617795,425493
1412.46,0.166549,618872,421747
1415.72,0.170479,619795,418571
1418.98,0.174351,620495,415324
1422.23,0.177208,621087,412995
1426.56,0.181147,621375,409456
1429.8,0.183829,621616,407093
1433.04,0.186028,622129,405371
1436.27,0.188598,621526,402588
1439.5,0.190267,621113,400778
1442.72,0.192513,620921,398587
1445.94,0.195423,620270,395510
1450.23,0.199473,618860,390948
1453.44,0.202224,617697,387750
1456.64,0.204028,616264,385247
1459.85,0.207099,614413,381383
1463.04,0.209951,612307,377588
1466.24,0.213353,610032,373250
1469.43,0.216945,607345,368545
1473.67,0.223095,603789,361235
1476.85,0.228806,601175,354973
1480.02,0.234407,597737,348420
1483.19,0.240845,594479,341422
1486.36,0.246256,591232,335353
1489.52,0.250652,587853,330078
1492.68,0.254907,583875,324648
1496.89,0.256652,578062,320127
1500.03,0.256973,574159,317731
1503.18,0.256965,570285,315593
1506.32,0.255715,565444,313816
1509.45,0.255025,560571,311606
1512.58,0.253998,555821,309697
1515.71,0.251479,550344,308429
1519.87,0.248825,543983,306733
1522.99,0.245887,538764,305852
1526.1,0.242913,533692,305055
1529.21,0.239901,527902,303845
1532.32,0.236994,521886,302400
1535.42,0.234341,515888,300756
1538.51,0.232081,509987,298867
1541.6,0.229011,503936,297416
1545.72,0.224606,494694,294938
1548.8,0.222256,488378,292752
1551.88,0.220149,481832,290233
1554.95,0.217468,474989,287883
1558.02,0.215607,467818,284754
1561.08,0.214912,460730,280889
1564.15,0.214327,454170,277263
1568.22,0.213235,444181,271847
1571.27,0.212730,436947,267731
1574.32,0.211320,429598,264084
1577.36,0.210545,422039,259901
1580.4,0.209571,414375,255754
1583.43,0.208365,406354,251501
1586.46,0.206710,398475,247566
1590.49,0.204504,388982,242899
1593.51,0.203044,380708,238533
1596.53,0.200475,372727,234918
1599.54,0.199294,365060,230712
1602.55,0.197704,357543,226790
1605.55,0.195115,349495,223011
1608.55,0.193203,341154,218649
1612.54,0.191507,330877,212892
1615.53,0.190418,322904,208284
1618.51,0.188908,315116,203968
1621.49,0.188245,307217,199159
1624.47,0.186823,299481,194781
1627.44,0.185481,292112,190576
1630.41,0.184591,284245,185824
1634.36,0.182859,274079,179894
1637.32,0.182642,266916,175280
1640.27,0.180687,259612,171253
1643.22,0.181541,251804,165776
1646.16,0.180531,244348,161242
1649.1,0.178548,236703,156912
1652.04,0.178312,228171,151338
1655.95,0.175002,215408,143966
1658.88,0.171656,204937,138027
1661.8,0.165865,193395,132002
1664.72,0.157397,179728,125089
1667.63,0.146162,163642,116878
1670.54,0.131563,146312,108073
1673.44,0.116365,128451,98259
1677.31,0.094396,105080,84552
1680.21,0.084046,88906,73263
1683.1,0.079817,75033,62436
1685.99,0.080022,63520,52831
1688.87,0.082382,53714,44433
1691.75,0.086958,45653,37369
1694.62,0.100065,39137,31083
1697.49,0.093784,33776,27216
1701.31,0.110850,28175,21828