Folder: textile_sorting_NIRSCAN_/samples/wool/wool-000811 (part 65)

File: Column 1_050566_20150331_120721.csv
Method:,Column 1,,
Host Date-Time:,31/3/15 @ 12:7:21,,
Header Version:,1,,
System Temp (C):,33.9,,
Detector Temp (C):,33.74,,
Humidity (%):,1.86,,
Lamp PD:,3819,,
Shift Vector Coefficients:,-10.5391,0.0761263,-0.000134223,,
Pixel to Wavelength Coefficients:,1775.68,-0.916766,-0.000235065,,
Serial Number:,5510004,,
Scan Config Name:,Column 1,,
Scan Config Type:,Slew,,
Section 1,,
Start wavelength (nm):,900,,
End wavelength (nm):,1700,,
Pattern Pixel Width (nm):,   7.03,,,,
Exposure (ms):,  0.635,,,,
Digital Resolution:,228,,
Num Repeats:,6,,
PGA Gain:,64,,
Total Measurement Time in sec:,  2.726,,
Wavelength (nm),Absorbance (AU),Reference Signal (unitless),Sample Signal (unitless)
901.51,0.035265,108485,100024
905.376,0.040327,121306,110549
909.237,0.043470,131909,119345
913.095,0.043963,143299,129503
916.948,0.044419,156982,141720
922.079,0.047866,179937,161159
925.923,0.048080,200504,179491
929.762,0.048719,222660,199032
933.597,0.049185,244426,218254
937.427,0.048024,263972,236338
941.254,0.048114,281845,252288
945.076,0.047102,297271,266717
950.165,0.046988,315605,283241
953.978,0.046523,328029,294706
957.786,0.046382,340470,305983
961.59,0.047020,352317,316165
965.389,0.047336,363056,325565
969.185,0.046987,373162,334896
972.976,0.047492,382632,342996
976.763,0.048376,391202,349965
981.806,0.048970,400190,357517
985.583,0.049300,406088,362510
989.355,0.049909,410162,365634
993.124,0.050925,412868,367186
996.888,0.050741,414263,368583
1000.65,0.051872,415476,368701
1004.4,0.053190,415479,367586
1009.41,0.054648,414358,365366
1013.15,0.054923,412923,363870
1016.89,0.055770,411526,361932
1020.63,0.055945,409066,359624
1024.36,0.054975,406777,358411
1028.09,0.055027,404427,356298
1031.82,0.054614,401911,354418
1036.78,0.054439,398410,351472
1040.49,0.053663,396204,350151
1044.2,0.054004,394236,348139
1047.91,0.053416,392042,346670
1051.61,0.053071,389823,344982
1055.31,0.052560,388234,343980
1059,0.051533,387599,344231
1063.92,0.050677,386688,344099
1067.61,0.049923,386598,344617
1071.29,0.049543,387377,345614
1074.96,0.049136,388536,346973
1078.63,0.048593,389855,348586
1082.3,0.047757,391215,350476
1085.96,0.046894,393215,352969
1090.84,0.046144,396270,356326
1094.49,0.046713,398760,358095
1098.14,0.045051,400987,361476
1101.79,0.045136,403477,363649
1105.43,0.044986,406116,366154
1109.06,0.044435,407701,368050
1112.7,0.044917,409859,369588
1117.53,0.045044,412494,371855
1121.15,0.045602,414909,373552
1124.77,0.045483,416559,375140
1128.38,0.047505,418532,375166
1131.99,0.048263,419956,375786
1135.6,0.050559,421946,375576
1139.2,0.051743,423881,376271
1143.99,0.054599,426786,376367
1147.58,0.055423,428617,377265
1151.17,0.056766,431169,378339
1154.75,0.057790,433579,379558
1158.33,0.059543,436264,380370
1161.91,0.062220,439132,380518
1165.48,0.064107,442389,381678
1169.04,0.066113,446101,383107
1173.79,0.070882,451929,383874
1177.34,0.072900,456026,385558
1180.9,0.075295,461306,387877
1184.44,0.077347,467657,391364
1187.99,0.077973,473969,396075
1191.52,0.077686,479856,401259
1195.06,0.077522,487372,407698
1199.76,0.076407,497347,417112
1203.29,0.075130,504311,424198
1206.81,0.074844,511507,430534
1210.33,0.074094,519078,437662
1213.84,0.073763,527163,444818
1217.35,0.072386,534208,452194
1220.85,0.071985,540472,457918
1225.51,0.070808,549929,467195
1229.01,0.070444,556888,473504
1232.5,0.069402,562180,479152
1235.98,0.069174,567975,484346
1239.46,0.067790,574815,491743
1242.94,0.067008,582782,499457
1246.41,0.066180,591476,507875
1251.03,0.066089,604016,518751
1254.5,0.066026,612289,525933
1257.96,0.066847,619125,530801
1261.41,0.067301,624551,534893
1264.86,0.067610,629900,539091
1268.31,0.068342,634345,541980
1271.75,0.069301,638574,544390
1276.33,0.069764,642499,547152
1279.76,0.069390,645905,550527
1283.19,0.068819,648307,553301
1286.61,0.068424,650446,555632
1290.03,0.068139,652132,557438
1293.44,0.067644,653907,559592
1296.85,0.067318,655963,561774
1301.39,0.067357,657349,562910
1304.8,0.067078,657558,563451
1308.19,0.067674,658515,563497
1311.58,0.067359,658804,564154
1314.97,0.068040,659011,563447
1318.36,0.068819,658272,561806
1321.73,0.068854,658022,561547
1326.23,0.069948,657870,560005
1329.6,0.070894,656482,557608
1332.97,0.071899,654926,555000
1336.33,0.073081,653727,552478
1339.69,0.074808,652497,549250
1343.04,0.076581,649913,544847
1346.39,0.078650,647671,540387
1349.73,0.081093,645338,535420
1354.18,0.084168,641175,528212
1357.52,0.086191,638376,523462
1360.85,0.088608,635805,518461
1364.17,0.090809,633413,513899
1367.49,0.093283,631026,509054
1370.81,0.096272,628050,503179
1374.12,0.098347,625034,498375
1378.54,0.101433,620272,491076
1381.84,0.104819,616892,484607
1385.14,0.108728,613613,477712
1388.43,0.113035,611526,471389
1391.72,0.117697,610663,465698
1395.01,0.122573,610634,460477
1398.29,0.127895,611700,455663
1402.66,0.135501,614051,449473
1405.93,0.141005,616268,445415
1409.2,0.146849,617795,440550
1412.46,0.151434,618872,436684
1415.72,0.156067,619795,432694
1418.98,0.160044,620495,429234
1422.23,0.164219,621087,425533
1426.56,0.168393,621375,421658
1429.8,0.170803,621616,419488
1433.04,0.173702,622129,417041
1436.27,0.176089,621526,414353
1439.5,0.178524,621113,411762
1442.72,0.180969,620921,409324
1445.94,0.183901,620270,406144
1450.23,0.187114,618860,402234
1453.44,0.190364,617697,398485
1456.64,0.192976,616264,395176
1459.85,0.196030,614413,391228
1463.04,0.198587,612307,387599
1466.24,0.202082,610032,383063
1469.43,0.205636,607345,378268
1473.67,0.212132,603789,370470
1476.85,0.217731,601175,364141
1480.02,0.223653,597737,357155
1483.19,0.230347,594479,349776
1486.36,0.236799,591232,342735
1489.52,0.241221,587853,337324
1492.68,0.245323,583875,331892
1496.89,0.247039,578062,327292
1500.03,0.248621,574159,323900
1503.18,0.248607,570285,321725
1506.32,0.247546,565444,319774
1509.45,0.245843,560571,318264
1512.58,0.244351,555821,316653
1515.71,0.241812,550344,315371
1519.87,0.238777,543983,313912
1522.99,0.236532,538764,312512
1526.1,0.233777,533692,311540
1529.21,0.230905,527902,310205
1532.32,0.227776,521886,308887
1535.42,0.224575,515888,307596
1538.51,0.221062,509987,306547
1541.6,0.218350,503936,304807
1545.72,0.213004,494694,302923
1548.8,0.210946,488378,300476
1551.88,0.207460,481832,298838
1554.95,0.205370,474989,296015
1558.02,0.204116,467818,292389
1561.08,0.203174,460730,288584
1564.15,0.201316,454170,285695
1568.22,0.201077,444181,279565
1571.27,0.200284,436947,275515
1574.32,0.198966,429598,271704
1577.36,0.197341,422039,267924
1580.4,0.195004,414375,264478
1583.43,0.195404,406354,259120
1586.46,0.192952,398475,255534
1590.49,0.190936,388982,250607
1593.51,0.188287,380708,246777
1596.53,0.186239,372727,242746
1599.54,0.184041,365060,238959
1602.55,0.181915,357543,235187
1605.55,0.179848,349495,230990
1608.55,0.176967,341154,226978
1612.54,0.175323,330877,220975
1615.53,0.172604,322904,217005
1618.51,0.172460,315116,211841
1621.49,0.171171,307217,207145
1624.47,0.169946,299481,202499
1627.44,0.169299,292112,197811
1630.41,0.167133,284245,193446
1634.36,0.165825,274079,187090
1637.32,0.164986,266916,182553
1640.27,0.163871,259612,178014
1643.22,0.163926,251804,172638
1646.16,0.163318,244348,167761
1649.1,0.161380,236703,163239
1652.04,0.160253,228171,157764
1655.95,0.157243,215408,149975
1658.88,0.153161,204937,144032
1661.8,0.150594,193395,136726
1664.72,0.143841,179728,129055
1667.63,0.133766,163642,120262
1670.54,0.120795,146312,110786
1673.44,0.108516,128451,100051
1677.31,0.094201,105080,84590
1680.21,0.083975,88906,73275
1683.1,0.084102,75033,61823
1685.99,0.087919,63520,51879
1688.87,0.088901,53714,43771
1691.75,0.093999,45653,36768
1694.62,0.101240,39137,30999
1697.49,0.106560,33776,26427
1701.31,0.107836,28175,21980

File: Column 1_050566_20150331_120727.csv
Method:,Column 1,,
Host Date-Time:,31/3/15 @ 12:7:27,,
Header Version:,1,,
System Temp (C):,33.93,,
Detector Temp (C):,33.81,,
Humidity (%):,1.86,,
Lamp PD:,3819,,
Shift Vector Coefficients:,-10.5391,0.0761263,-0.000134223,,
Pixel to Wavelength Coefficients:,1775.68,-0.916766,-0.000235065,,
Serial Number:,5510004,,
Scan Config Name:,Column 1,,
Scan Config Type:,Slew,,
Section 1,,
Start wavelength (nm):,900,,
End wavelength (nm):,1700,,
Pattern Pixel Width (nm):,   7.03,,,,
Exposure (ms):,  0.635,,,,
Digital Resolution:,228,,
Num Repeats:,6,,
PGA Gain:,64,,
Total Measurement Time in sec:,  2.669,,
Wavelength (nm),Absorbance (AU),Reference Signal (unitless),Sample Signal (unitless)
901.51,0.034385,108485,100227
905.376,0.040060,121306,110617
909.237,0.043700,131909,119282
913.095,0.043923,143299,129515
916.948,0.044679,156982,141635
922.079,0.046287,179937,161746
925.923,0.047928,200504,179554
929.762,0.047976,222660,199373
933.597,0.048851,244426,218422
937.427,0.048239,263972,236221
941.254,0.047592,281845,252591
945.076,0.047011,297271,266773
950.165,0.047476,315605,282923
953.978,0.046607,328029,294649
957.786,0.046657,340470,305789
961.59,0.047003,352317,316177
965.389,0.047177,363056,325684
969.185,0.047116,373162,334797
972.976,0.048008,382632,342589
976.763,0.048338,391202,349996
981.806,0.048376,400190,358006
985.583,0.049251,406088,362551
989.355,0.049588,410162,365904
993.124,0.050604,412868,367458
996.888,0.050939,414263,368415
1000.65,0.051563,415476,368963
1004.4,0.052854,415479,367871
1009.41,0.054431,414358,365548
1013.15,0.055072,412923,363745
1016.89,0.055691,411526,361998
1020.63,0.055567,409066,359937
1024.36,0.055036,406777,358361
1028.09,0.055255,404427,356111
1031.82,0.054884,401911,354198
1036.78,0.054023,398410,351809
1040.49,0.053532,396204,350257
1044.2,0.053616,394236,348450
1047.91,0.053041,392042,346970
1051.61,0.052943,389823,345084
1055.31,0.051848,388234,344545
1059,0.051977,387599,343879
1063.92,0.050984,386688,343856
1067.61,0.049802,386598,344713
1071.29,0.049723,387377,345470
1074.96,0.048626,388536,347380
1078.63,0.048271,389855,348845
1082.3,0.047381,391215,350780
1085.96,0.046675,393215,353147
1090.84,0.045770,396270,356633
1094.49,0.045524,398760,359077
1098.14,0.045404,400987,361182
1101.79,0.044818,403477,363916
1105.43,0.044769,406116,366337
1109.06,0.043768,407701,368616
1112.7,0.044750,409859,369730
1117.53,0.044310,412494,372484
1121.15,0.045388,414909,373736
1124.77,0.045358,416559,375248
1128.38,0.047334,418532,375314
1131.99,0.048352,419956,375709
1135.6,0.049952,421946,376101
1139.2,0.051765,423881,376252
1143.99,0.054492,426786,376459
1147.58,0.055444,428617,377247
1151.17,0.056260,431169,378780
1154.75,0.058040,433579,379340
1158.33,0.059680,436264,380250
1161.91,0.061489,439132,381159
1165.48,0.064108,442389,381677
1169.04,0.066823,446101,382481
1173.79,0.070679,451929,384053
1177.34,0.072893,456026,385564
1180.9,0.075116,461306,388037
1184.44,0.077299,467657,391407
1187.99,0.077683,473969,396339
1191.52,0.078004,479856,400965
1195.06,0.077256,487372,407948
1199.76,0.076236,497347,417276
1203.29,0.075857,504311,423488
1206.81,0.074820,511507,430558
1210.33,0.073710,519078,438049
1213.84,0.073488,527163,445099
1217.35,0.072324,534208,452258
1220.85,0.071373,540472,458564
1225.51,0.070334,549929,467706
1229.01,0.070428,556888,473522
1232.5,0.069169,562180,479409
1235.98,0.068639,567975,484943
1239.46,0.067594,574815,491965
1242.94,0.066494,582782,500048
1246.41,0.065583,591476,508574
1251.03,0.065780,604016,519121
1254.5,0.065975,612289,525995
1257.96,0.066593,619125,531111
1261.41,0.067554,624551,534582
1264.86,0.067935,629900,538687
1268.31,0.068240,634345,542108
1271.75,0.069373,638574,544300
1276.33,0.069338,642499,547689
1279.76,0.069562,645905,550309
1283.19,0.068894,648307,553206
1286.61,0.068361,650446,555712
1290.03,0.068173,652132,557394
1293.44,0.067724,653907,559489
1296.85,0.067626,655963,561375
1301.39,0.067279,657349,563011
1304.8,0.067256,657558,563220
1308.19,0.066796,658515,564637
1311.58,0.067670,658804,563750
1314.97,0.068063,659011,563417
1318.36,0.068657,658272,562015
1321.73,0.068974,658022,561392
1326.23,0.070075,657870,559841
1329.6,0.070796,656482,557733
1332.97,0.071970,654926,554910
1336.33,0.073152,653727,552388
1339.69,0.074740,652497,549337
1343.04,0.076608,649913,544813
1346.39,0.078511,647671,540560
1349.73,0.080774,645338,535813
1354.18,0.083777,641175,528688
1357.52,0.086431,638376,523173
1360.85,0.088740,635805,518303
1364.17,0.090729,633413,513994
1367.49,0.092949,631026,509446
1370.81,0.094994,628050,504662
1374.12,0.098179,625034,498568
1378.54,0.101227,620272,491309
1381.84,0.104670,616892,484774
1385.14,0.108757,613613,477681
1388.43,0.112953,611526,471479
1391.72,0.118096,610663,465271
1395.01,0.122609,610634,460439
1398.29,0.128033,611700,455518
1402.66,0.134742,614051,450259
1405.93,0.141016,616268,445404
1409.2,0.146420,617795,440986
1412.46,0.151181,618872,436938
1415.72,0.155907,619795,432854
1418.98,0.160373,620495,428909
1422.23,0.164239,621087,425514
1426.56,0.167797,621375,422237
1429.8,0.170671,621616,419615
1433.04,0.173550,622129,417187
1436.27,0.175772,621526,414655
1439.5,0.178550,621113,411738
1442.72,0.180703,620921,409575
1445.94,0.183013,620270,406975
1450.23,0.186563,618860,402744
1453.44,0.189709,617697,399086
1456.64,0.193034,616264,395123
1459.85,0.195803,614413,391433
1463.04,0.198152,612307,387987
1466.24,0.202201,610032,382958
1469.43,0.205547,607345,378345
1473.67,0.211048,603789,371396
1476.85,0.216969,601175,364781
1480.02,0.223618,597737,357184
1483.19,0.230277,594479,349832
1486.36,0.236513,591232,342961
1489.52,0.241875,587853,336817
1492.68,0.245271,583875,331932
1496.89,0.246611,578062,327615
1500.03,0.247947,574159,324403
1503.18,0.248236,570285,322000
1506.32,0.248061,565444,319395
1509.45,0.245924,560571,318205
1512.58,0.244532,555821,316521
1515.71,0.242138,550344,315135
1519.87,0.238385,543983,314196
1522.99,0.236317,538764,312667
1526.1,0.234102,533692,311307
1529.21,0.230738,527902,310324
1532.32,0.226967,521886,309463
1535.42,0.224322,515888,307775
1538.51,0.221037,509987,306565
1541.6,0.218058,503936,305012
1545.72,0.213149,494694,302822
1548.8,0.210318,488378,300911
1551.88,0.207784,481832,298615
1554.95,0.205794,474989,295726
1558.02,0.204000,467818,292467
1561.08,0.202843,460730,288804
1564.15,0.201678,454170,285457
1568.22,0.200781,444181,279756
1571.27,0.200227,436947,275551
1574.32,0.198490,429598,272002
1577.36,0.196769,422039,268277
1580.4,0.195740,414375,264030
1583.43,0.194408,406354,259715
1586.46,0.193321,398475,255317
1590.49,0.190171,388982,251049
1593.51,0.188164,380708,246847
1596.53,0.186146,372727,242798
1599.54,0.183238,365060,239401
1602.55,0.181771,357543,235265
1605.55,0.179410,349495,231223
1608.55,0.177156,341154,226879
1612.54,0.175133,330877,221072
1615.53,0.173070,322904,216772
1618.51,0.171784,315116,212171
1621.49,0.170452,307217,207488
1624.47,0.168734,299481,203065
1627.44,0.168555,292112,198150
1630.41,0.166909,284245,193546
1634.36,0.165517,274079,187223
1637.32,0.164660,266916,182690
1640.27,0.164801,259612,177633
1643.22,0.162424,251804,173236
1646.16,0.163240,244348,167791
1649.1,0.161337,236703,163255
1652.04,0.160250,228171,157765
1655.95,0.159109,215408,149332
1658.88,0.154802,204937,143489
1661.8,0.148620,193395,137349
1664.72,0.143770,179728,129076
1667.63,0.133344,163642,120379
1670.54,0.121438,146312,110622
1673.44,0.107051,128451,100389
1677.31,0.091876,105080,85044
1680.21,0.085008,88906,73101
1683.1,0.084496,75033,61767
1685.99,0.089638,63520,51674
1688.87,0.090681,53714,43592
1691.75,0.092278,45653,36914
1694.62,0.099757,39137,31105
1697.49,0.108520,33776,26308
1701.31,0.112185,28175,21761

File: Column 1_050566_20150331_120730.csv
Method:,Column 1,,
Host Date-Time:,31/3/15 @ 12:7:30,,
Header Version:,1,,
System Temp (C):,33.92,,
Detector Temp (C):,33.81,,
Humidity (%):,1.86,,
Lamp PD:,3818,,
Shift Vector Coefficients:,-10.5391,0.0761263,-0.000134223,,
Pixel to Wavelength Coefficients:,1775.68,-0.916766,-0.000235065,,
Serial Number:,5510004,,
Scan Config Name:,Column 1,,
Scan Config Type:,Slew,,
Section 1,,
Start wavelength (nm):,900,,
End wavelength (nm):,1700,,
Pattern Pixel Width (nm):,   7.03,,,,
Exposure (ms):,  0.635,,,,
Digital Resolution:,228,,
Num Repeats:,6,,
PGA Gain:,64,,
Total Measurement Time in sec:,  2.671,,
Wavelength (nm),Absorbance (AU),Reference Signal (unitless),Sample Signal (unitless)
901.51,0.035478,108485,99975
905.376,0.041307,121306,110300
909.237,0.042198,131909,119695
913.095,0.044638,143299,129302
916.948,0.045081,156982,141504
922.079,0.047869,179937,161158
925.923,0.047882,200504,179573
929.762,0.048427,222660,199166
933.597,0.048533,244426,218582
937.427,0.048589,263972,236031
941.254,0.048255,281845,252206
945.076,0.047693,297271,266354
950.165,0.047008,315605,283228
953.978,0.046233,328029,294903
957.786,0.047201,340470,305406
961.59,0.047145,352317,316074
965.389,0.046996,363056,325820
969.185,0.047748,373162,334310
972.976,0.048008,382632,342589
976.763,0.047890,391202,350357
981.806,0.049281,400190,357261
985.583,0.049368,406088,362453
989.355,0.050112,410162,365463
993.124,0.050828,412868,367268
996.888,0.051251,414263,368150
1000.65,0.052138,415476,368475
1004.4,0.053687,415479,367166
1009.41,0.054444,414358,365537
1013.15,0.054956,412923,363842
1016.89,0.055625,411526,362053
1020.63,0.055614,409066,359898
1024.36,0.055476,406777,357998
1028.09,0.055140,404427,356205
1031.82,0.055177,401911,353959
1036.78,0.054306,398410,351580
1040.49,0.054026,396204,349859
1044.2,0.054161,394236,348013
1047.91,0.053522,392042,346586
1051.61,0.052809,389823,345190
1055.31,0.052665,388234,343897
1059,0.051635,387599,344150
1063.92,0.050624,386688,344141
1067.61,0.049866,386598,344662
1071.29,0.049368,387377,345753
1074.96,0.049123,388536,346983
1078.63,0.048827,389855,348398
1082.3,0.047833,391215,350415
1085.96,0.047017,393215,352869
1090.84,0.046366,396270,356144
1094.49,0.046105,398760,358597
1098.14,0.045707,400987,360930
1101.79,0.045148,403477,363639
1105.43,0.045587,406116,365648
1109.06,0.044894,407701,367661
1112.7,0.043979,409859,370387
1117.53,0.044749,412494,372108
1121.15,0.045715,414909,373455
1124.77,0.046011,416559,374684
1128.38,0.046926,418532,375667
1131.99,0.048467,419956,375610
1135.6,0.050807,421946,375362
1139.2,0.051882,423881,376151
1143.99,0.054637,426786,376334
1147.58,0.055774,428617,376960
1151.17,0.057182,431169,377977
1154.75,0.058022,433579,379355
1158.33,0.060157,436264,379833
1161.91,0.061874,439132,380821
1165.48,0.064072,442389,381709
1169.04,0.066675,446101,382612
1173.79,0.070624,451929,384102
1177.34,0.073762,456026,384793
1180.9,0.075313,461306,387861
1184.44,0.076577,467657,392058
1187.99,0.078084,473969,395973
1191.52,0.078087,479856,400889
1195.06,0.077209,487372,407992
1199.76,0.077053,497347,416492
1203.29,0.075260,504311,424071
1206.81,0.074932,511507,430447
1210.33,0.074121,519078,437635
1213.84,0.074531,527163,444032
1217.35,0.072464,534208,452112
1220.85,0.071501,540472,458429
1225.51,0.070657,549929,467358
1229.01,0.070448,556888,473500
1232.5,0.069525,562180,479016
1235.98,0.069049,567975,484485
1239.46,0.067818,574815,491711
1242.94,0.066618,582782,499906
1246.41,0.066677,591476,507295
1251.03,0.066007,604016,518850
1254.5,0.066503,612289,525356
1257.96,0.066619,619125,531079
1261.41,0.067215,624551,534999
1264.86,0.067968,629900,538646
1268.31,0.068258,634345,542085
1271.75,0.069533,638574,544100
1276.33,0.069547,642499,547426
1279.76,0.069568,645905,550301
1283.19,0.069107,648307,552934
1286.61,0.068675,650446,555311
1290.03,0.068294,652132,557239
1293.44,0.067485,653907,559797
1296.85,0.067843,655963,561095
1301.39,0.067322,657349,562955
1304.8,0.067109,657558,563411
1308.19,0.067567,658515,563636
1311.58,0.067724,658804,563679
1314.97,0.068292,659011,563119
1318.36,0.068606,658272,562081
1321.73,0.068838,658022,561568
1326.23,0.070188,657870,559696
1329.6,0.070893,656482,557609
1332.97,0.071971,654926,554908
1336.33,0.072921,653727,552682
1339.69,0.075050,652497,548945
1343.04,0.076788,649913,544587
1346.39,0.078674,647671,540357
1349.73,0.080763,645338,535827
1354.18,0.084028,641175,528383
1357.52,0.086489,638376,523103
1360.85,0.088293,635805,518837
1364.17,0.091017,633413,513653
1367.49,0.092815,631026,509603
1370.81,0.095654,628050,503895
1374.12,0.097598,625034,499236
1378.54,0.101480,620272,491023
1381.84,0.105077,616892,484320
1385.14,0.108852,613613,477576
1388.43,0.113107,611526,471311
1391.72,0.117263,610663,466164
1395.01,0.122596,610634,460453
1398.29,0.127975,611700,455579
1402.66,0.134894,614051,450101
1405.93,0.141178,616268,445237
1409.2,0.146529,617795,440875
1412.46,0.151417,618872,436701
1415.72,0.156430,619795,432333
1418.98,0.160259,620495,429022
1422.23,0.164030,621087,425718
1426.56,0.168033,621375,422008
1429.8,0.170767,621616,419522
1433.04,0.173974,622129,416780
1436.27,0.176240,621526,414209
1439.5,0.178216,621113,412054
1442.72,0.181095,620921,409205
1445.94,0.183270,620270,406734
1450.23,0.187089,618860,402257
1453.44,0.189793,617697,399009
1456.64,0.192658,616264,395466
1459.85,0.196012,614413,391245
1463.04,0.198366,612307,387796
1466.24,0.201546,610032,383536
1469.43,0.206111,607345,377854
1473.67,0.212167,603789,370440
1476.85,0.217542,601175,364300
1480.02,0.223070,597737,357635
1483.19,0.230106,594479,349970
1486.36,0.236152,591232,343246
1489.52,0.241270,587853,337286
1492.68,0.245110,583875,332055
1496.89,0.247629,578062,326848
1500.03,0.248341,574159,324109
1503.18,0.248393,570285,321884
1506.32,0.247584,565444,319746
1509.45,0.246258,560571,317960
1512.58,0.244313,555821,316681
1515.71,0.242235,550344,315064
1519.87,0.238920,543983,313809
1522.99,0.236175,538764,312769
1526.1,0.233651,533692,311630
1529.21,0.230739,527902,310323
1532.32,0.227333,521886,309202
1535.42,0.224415,515888,307709
1538.51,0.221540,509987,306210
1541.6,0.217553,503936,305367
1545.72,0.213245,494694,302755
1548.8,0.210637,488378,300690
1551.88,0.208528,481832,298104
1554.95,0.206154,474989,295481
1558.02,0.204157,467818,292361
1561.08,0.203286,460730,288510
1564.15,0.202107,454170,285175
1568.22,0.201306,444181,279418
1571.27,0.201049,436947,275030
1574.32,0.199660,429598,271270
1577.36,0.197116,422039,268063
1580.4,0.195678,414375,264068
1583.43,0.194533,406354,259640
1586.46,0.193224,398475,255374
1590.49,0.191349,388982,250369
1593.51,0.188418,380708,246703
1596.53,0.185983,372727,242889
1599.54,0.184854,365060,238512
1602.55,0.182388,357543,234931
1605.55,0.179132,349495,231371
1608.55,0.177683,341154,226604
1612.54,0.174905,330877,221188
1615.53,0.173519,322904,216548
1618.51,0.171969,315116,212081
1621.49,0.171309,307217,207079
1624.47,0.169453,299481,202729
1627.44,0.168347,292112,198245
1630.41,0.167911,284245,193100
1634.36,0.165953,274079,187035
1637.32,0.165274,266916,182432
1640.27,0.164290,259612,177842
1643.22,0.163524,251804,172798
1646.16,0.162415,244348,168110
1649.1,0.161186,236703,163312
1652.04,0.159986,228171,157861
1655.95,0.157901,215408,149748
1658.88,0.154236,204937,143676
1661.8,0.150677,193395,136700
1664.72,0.143249,179728,129231
1667.63,0.132940,163642,120491
1670.54,0.120607,146312,110834
1673.44,0.109655,128451,99789
1677.31,0.092433,105080,84935
1680.21,0.087110,88906,72748
1683.1,0.084264,75033,61800
1685.99,0.084966,63520,52233
1688.87,0.090362,53714,43624
1691.75,0.091538,45653,36977
1694.62,0.099520,39137,31122
1697.49,0.097566,33776,26980
1701.31,0.117001,28175,21521