Folder: textile_sorting_NIRSCAN_/samples/wool/wool-000811 (part 21)

File: Column 1_050542_20150331_115600.csv
Method:,Column 1,,
Host Date-Time:,31/3/15 @ 11:56:0,,
Header Version:,1,,
System Temp (C):,32.49,,
Detector Temp (C):,30.86,,
Humidity (%):,2.83,,
Lamp PD:,3824,,
Shift Vector Coefficients:,-10.5391,0.0761263,-0.000134223,,
Pixel to Wavelength Coefficients:,1775.68,-0.916766,-0.000235065,,
Serial Number:,5510004,,
Scan Config Name:,Column 1,,
Scan Config Type:,Slew,,
Section 1,,
Start wavelength (nm):,900,,
End wavelength (nm):,1700,,
Pattern Pixel Width (nm):,   7.03,,,,
Exposure (ms):,  0.635,,,,
Digital Resolution:,228,,
Num Repeats:,6,,
PGA Gain:,64,,
Total Measurement Time in sec:,  2.678,,
Wavelength (nm),Absorbance (AU),Reference Signal (unitless),Sample Signal (unitless)
901.51,0.044139,108485,98001
905.376,0.050849,121306,107903
909.237,0.050688,131909,117378
913.095,0.052180,143299,127076
916.948,0.052364,156982,139151
922.079,0.052976,179937,159274
925.923,0.052890,200504,177514
929.762,0.052931,222660,197111
933.597,0.054102,244426,215797
937.427,0.053232,263972,233521
941.254,0.054894,281845,248380
945.076,0.054290,297271,262339
950.165,0.054227,315605,278559
953.978,0.054168,328029,289564
957.786,0.054684,340470,300189
961.59,0.054970,352317,310430
965.389,0.055216,363056,319711
969.185,0.055673,373162,328265
972.976,0.056229,382632,336165
976.763,0.057283,391202,342861
981.806,0.057036,400190,350938
985.583,0.057848,406088,355445
989.355,0.058804,410162,358221
993.124,0.059311,412868,360164
996.888,0.059931,414263,360865
1000.65,0.061612,415476,360524
1004.4,0.062213,415479,360028
1009.41,0.062873,414358,358511
1013.15,0.063225,412923,356980
1016.89,0.064632,411526,354622
1020.63,0.064198,409066,352854
1024.36,0.064219,406777,350863
1028.09,0.063359,404427,349527
1031.82,0.063331,401911,347375
1036.78,0.062958,398410,344645
1040.49,0.062084,396204,343427
1044.2,0.061801,394236,341944
1047.91,0.061212,392042,340503
1051.61,0.060255,389823,339322
1055.31,0.059367,388234,338631
1059,0.058803,387599,338516
1063.92,0.057738,386688,338550
1067.61,0.057162,386598,338920
1071.29,0.056337,387377,340249
1074.96,0.054956,388536,342354
1078.63,0.054711,389855,343710
1082.3,0.053510,391215,345864
1085.96,0.052931,393215,348096
1090.84,0.052187,396270,351402
1094.49,0.051896,398760,353847
1098.14,0.051635,400987,356037
1101.79,0.051253,403477,358563
1105.43,0.050929,406116,361178
1109.06,0.050497,407701,362948
1112.7,0.050967,409859,364475
1117.53,0.050819,412494,366943
1121.15,0.051809,414909,368251
1124.77,0.052328,416559,369274
1128.38,0.053664,418532,369883
1131.99,0.055238,419956,369799
1135.6,0.056979,421946,370065
1139.2,0.058818,423881,370191
1143.99,0.061923,426786,370073
1147.58,0.063276,428617,370504
1151.17,0.064247,431169,371878
1154.75,0.065666,433579,372737
1158.33,0.068357,436264,372728
1161.91,0.070963,439132,372934
1165.48,0.073730,442389,373314
1169.04,0.076469,446101,374080
1173.79,0.080674,451929,375315
1177.34,0.083343,456026,376397
1180.9,0.085719,461306,378678
1184.44,0.088135,467657,381762
1187.99,0.088880,473969,386251
1191.52,0.087958,479856,391880
1195.06,0.087511,487372,398428
1199.76,0.085887,497347,408106
1203.29,0.084602,504311,415046
1206.81,0.083780,511507,421766
1210.33,0.082478,519078,429294
1213.84,0.081501,527163,436962
1217.35,0.080235,534208,444094
1220.85,0.079661,540472,449896
1225.51,0.077634,549929,459910
1229.01,0.077254,556888,466137
1232.5,0.076499,562180,471386
1235.98,0.075464,567975,477381
1239.46,0.074354,574815,484366
1242.94,0.073121,582782,492476
1246.41,0.071988,591476,501129
1251.03,0.072373,604016,511300
1254.5,0.071921,612289,518842
1257.96,0.072568,619125,523854
1261.41,0.073094,624551,527805
1264.86,0.073511,629900,531815
1268.31,0.074111,634345,534829
1271.75,0.075109,638574,537158
1276.33,0.075144,642499,540416
1279.76,0.075402,645905,542958
1283.19,0.074481,648307,546134
1286.61,0.074426,650446,548006
1290.03,0.074092,652132,549849
1293.44,0.073316,653907,552332
1296.85,0.073179,655963,554243
1301.39,0.072567,657349,556197
1304.8,0.072888,657558,555963
1308.19,0.072818,658515,556862
1311.58,0.073418,658804,556337
1314.97,0.073801,659011,556021
1318.36,0.074805,658272,554116
1321.73,0.075062,658022,553578
1326.23,0.076130,657870,552090
1329.6,0.077027,656482,549789
1332.97,0.078260,654926,546931
1336.33,0.079390,653727,544511
1339.69,0.081478,652497,540879
1343.04,0.083524,649913,536206
1346.39,0.085881,647671,531464
1349.73,0.088338,645338,526562
1354.18,0.091855,641175,518945
1357.52,0.093881,638376,514275
1360.85,0.096755,635805,508826
1364.17,0.099347,633413,503895
1367.49,0.102062,631026,498867
1370.81,0.104555,628050,493673
1374.12,0.106827,625034,488739
1378.54,0.111238,620272,480114
1381.84,0.114855,616892,473537
1385.14,0.119321,613613,466201
1388.43,0.124645,611526,458955
1391.72,0.130659,610663,452004
1395.01,0.136638,610634,445803
1398.29,0.142719,611700,440372
1402.66,0.151225,614051,433490
1405.93,0.158087,616268,428235
1409.2,0.164651,617795,422857
1412.46,0.170295,618872,418125
1415.72,0.175343,619795,413909
1418.98,0.180778,620495,409223
1422.23,0.184389,621087,406222
1426.56,0.189240,621375,401896
1429.8,0.192230,621616,399293
1433.04,0.195625,622129,396511
1436.27,0.197848,621526,394104
1439.5,0.199829,621113,392050
1442.72,0.202166,620921,389826
1445.94,0.205072,620270,386820
1450.23,0.208534,618860,382876
1453.44,0.212014,617697,379107
1456.64,0.214341,616264,376206
1459.85,0.216430,614413,373276
1463.04,0.220214,612307,368770
1466.24,0.223441,610032,364680
1469.43,0.226646,607345,360404
1473.67,0.231531,603789,354286
1476.85,0.236874,601175,348439
1480.02,0.242441,597737,342034
1483.19,0.248370,594479,335557
1486.36,0.254643,591232,328939
1489.52,0.259542,587853,323390
1492.68,0.263646,583875,318181
1496.89,0.266129,578062,313217
1500.03,0.266827,574159,310603
1503.18,0.267320,570285,308157
1506.32,0.267061,565444,305723
1509.45,0.265806,560571,303966
1512.58,0.263960,555821,302674
1515.71,0.262320,550344,300825
1519.87,0.259061,543983,299588
1522.99,0.256194,538764,298679
1526.1,0.252935,533692,298096
1529.21,0.250047,527902,296829
1532.32,0.247026,521886,295495
1535.42,0.243684,515888,294355
1538.51,0.241671,509987,292340
1541.6,0.237213,503936,291852
1545.72,0.231883,494694,290037
1548.8,0.228368,488378,288661
1551.88,0.226032,481832,286328
1554.95,0.223867,474989,283672
1558.02,0.222065,467818,280551
1561.08,0.219756,460730,277773
1564.15,0.220080,454170,273614
1568.22,0.217616,444181,269119
1571.27,0.217499,436947,264807
1574.32,0.216575,429598,260908
1577.36,0.215050,422039,257219
1580.4,0.213908,414375,253213
1583.43,0.211646,406354,249608
1586.46,0.210042,398475,245674
1590.49,0.208044,388982,240927
1593.51,0.205236,380708,237332
1596.53,0.202859,372727,233632
1599.54,0.200176,365060,230244
1602.55,0.197318,357543,226992
1605.55,0.195571,349495,222777
1608.55,0.192959,341154,218772
1612.54,0.189795,330877,213733
1615.53,0.187297,322904,209786
1618.51,0.186890,315116,204918
1621.49,0.185309,307217,200510
1624.47,0.182898,299481,196549
1627.44,0.181464,292112,192347
1630.41,0.180312,284245,187664
1634.36,0.179176,274079,181426
1637.32,0.179192,266916,176678
1640.27,0.177651,259612,172454
1643.22,0.176297,251804,167790
1646.16,0.175968,244348,162945
1649.1,0.173983,236703,158570
1652.04,0.173308,228171,153092
1655.95,0.171146,215408,145250
1658.88,0.169056,204937,138856
1661.8,0.168442,193395,131221
1664.72,0.165248,179728,122848
1667.63,0.158826,163642,113519
1670.54,0.152034,146312,103097
1673.44,0.147383,128451,91486
1677.31,0.142086,105080,75759
1680.21,0.138860,88906,64576
1683.1,0.143486,75033,53922
1685.99,0.147407,63520,45238
1688.87,0.156670,53714,37447
1691.75,0.153018,45653,32096
1694.62,0.157508,39137,27232
1697.49,0.161159,33776,23305
1701.31,0.165636,28175,19241

File: Column 1_050542_20150331_115606.csv
Method:,Column 1,,
Host Date-Time:,31/3/15 @ 11:56:6,,
Header Version:,1,,
System Temp (C):,32.56,,
Detector Temp (C):,30.91,,
Humidity (%):,2.83,,
Lamp PD:,3824,,
Shift Vector Coefficients:,-10.5391,0.0761263,-0.000134223,,
Pixel to Wavelength Coefficients:,1775.68,-0.916766,-0.000235065,,
Serial Number:,5510004,,
Scan Config Name:,Column 1,,
Scan Config Type:,Slew,,
Section 1,,
Start wavelength (nm):,900,,
End wavelength (nm):,1700,,
Pattern Pixel Width (nm):,   7.03,,,,
Exposure (ms):,  0.635,,,,
Digital Resolution:,228,,
Num Repeats:,6,,
PGA Gain:,64,,
Total Measurement Time in sec:,  2.732,,
Wavelength (nm),Absorbance (AU),Reference Signal (unitless),Sample Signal (unitless)
901.51,0.043913,108485,98052
905.376,0.050796,121306,107916
909.237,0.051284,131909,117217
913.095,0.051251,143299,127348
916.948,0.051537,156982,139416
922.079,0.051642,179937,159764
925.923,0.052399,200504,177715
929.762,0.053566,222660,196823
933.597,0.054176,244426,215760
937.427,0.053366,263972,233449
941.254,0.054847,281845,248407
945.076,0.054652,297271,262120
950.165,0.054632,315605,278299
953.978,0.054180,328029,289556
957.786,0.054578,340470,300262
961.59,0.055293,352317,310199
965.389,0.055217,363056,319710
969.185,0.055947,373162,328058
972.976,0.056534,382632,335929
976.763,0.056589,391202,343409
981.806,0.057655,400190,350438
985.583,0.058114,406088,355227
989.355,0.058637,410162,358359
993.124,0.059301,412868,360172
996.888,0.060165,414263,360671
1000.65,0.060653,415476,361321
1004.4,0.061817,415479,360356
1009.41,0.063484,414358,358007
1013.15,0.064246,412923,356142
1016.89,0.064323,411526,354874
1020.63,0.063805,409066,353174
1024.36,0.064192,406777,350885
1028.09,0.063295,404427,349579
1031.82,0.063124,401911,347541
1036.78,0.062907,398410,344686
1040.49,0.061734,396204,343704
1044.2,0.061459,394236,342214
1047.91,0.061426,392042,340335
1051.61,0.060524,389823,339112
1055.31,0.059906,388234,338211
1059,0.059325,387599,338110
1063.92,0.057938,386688,338394
1067.61,0.056243,386598,339638
1071.29,0.056659,387377,339997
1074.96,0.056100,388536,341453
1078.63,0.054971,389855,343504
1082.3,0.053373,391215,345973
1085.96,0.052755,393215,348237
1090.84,0.052267,396270,351337
1094.49,0.051751,398760,353965
1098.14,0.051523,400987,356129
1101.79,0.052106,403477,357860
1105.43,0.051576,406116,360640
1109.06,0.050762,407701,362727
1112.7,0.050432,409859,364924
1117.53,0.050652,412494,367084
1121.15,0.051416,414909,368584
1124.77,0.052364,416559,369243
1128.38,0.053482,418532,370038
1131.99,0.054972,419956,370026
1135.6,0.057191,421946,369884
1139.2,0.059072,423881,369975
1143.99,0.062032,426786,369980
1147.58,0.063134,428617,370626
1151.17,0.064442,431169,371711
1154.75,0.066098,433579,372366
1158.33,0.068236,436264,372832
1161.91,0.070489,439132,373341
1165.48,0.073554,442389,373465
1169.04,0.076923,446101,373689
1173.79,0.080268,451929,375666
1177.34,0.083295,456026,376439
1180.9,0.085893,461306,378526
1184.44,0.087871,467657,381994
1187.99,0.088647,473969,386459
1191.52,0.087961,479856,391877
1195.06,0.087507,487372,398431
1199.76,0.085835,497347,408154
1203.29,0.084911,504311,414751
1206.81,0.083741,511507,421804
1210.33,0.082483,519078,429289
1213.84,0.081608,527163,436855
1217.35,0.080246,534208,444083
1220.85,0.079306,540472,450264
1225.51,0.077992,549929,459531
1229.01,0.077143,556888,466256
1232.5,0.076222,562180,471686
1235.98,0.075490,567975,477352
1239.46,0.074454,574815,484255
1242.94,0.073257,582782,492322
1246.41,0.072400,591476,500653
1251.03,0.071780,604016,511998
1254.5,0.071802,612289,518985
1257.96,0.072576,619125,523844
1261.41,0.073023,624551,527892
1264.86,0.073804,629900,531456
1268.31,0.074170,634345,534756
1271.75,0.074770,638574,537578
1276.33,0.075515,642499,539955
1279.76,0.075081,645905,543360
1283.19,0.074408,648307,546226
1286.61,0.074063,650446,548464
1290.03,0.073931,652132,550053
1293.44,0.073469,653907,552137
1296.85,0.073207,655963,554207
1301.39,0.072807,657349,555890
1304.8,0.072907,657558,555939
1308.19,0.073154,658515,556431
1311.58,0.073300,658804,556488
1314.97,0.074241,659011,555459
1318.36,0.074633,658272,554335
1321.73,0.074786,658022,553929
1326.23,0.076041,657870,552204
1329.6,0.076943,656482,549895
1332.97,0.077914,654926,547367
1336.33,0.079671,653727,544159
1339.69,0.081593,652497,540736
1343.04,0.083191,649913,536617
1346.39,0.086095,647671,531202
1349.73,0.088400,645338,526486
1354.18,0.091818,641175,518990
1357.52,0.094364,638376,513704
1360.85,0.096786,635805,508789
1364.17,0.099349,633413,503893
1367.49,0.102170,631026,498744
1370.81,0.104865,628050,493321
1374.12,0.107022,625034,488519
1378.54,0.111160,620272,480200
1381.84,0.114808,616892,473588
1385.14,0.119976,613613,465499
1388.43,0.125128,611526,458445
1391.72,0.130561,610663,452106
1395.01,0.136361,610634,446087
1398.29,0.142440,611700,440655
1402.66,0.150316,614051,434399
1405.93,0.157836,616268,428483
1409.2,0.164305,617795,423194
1412.46,0.170282,618872,418137
1415.72,0.174949,619795,414285
1418.98,0.179552,620495,410380
1422.23,0.184102,621087,406491
1426.56,0.188682,621375,402413
1429.8,0.192016,621616,399490
1433.04,0.194752,622129,397309
1436.27,0.197648,621526,394286
1439.5,0.199834,621113,392046
1442.72,0.202289,620921,389715
1445.94,0.204602,620270,387239
1450.23,0.208832,618860,382614
1453.44,0.211509,617697,379548
1456.64,0.214579,616264,376000
1459.85,0.217643,614413,372235
1463.04,0.220123,612307,368847
1466.24,0.222888,610032,365144
1469.43,0.226368,607345,360635
1473.67,0.231640,603789,354197
1476.85,0.236233,601175,348954
1480.02,0.242292,597737,342151
1483.19,0.248284,594479,335624
1486.36,0.253910,591232,329494
1489.52,0.259270,587853,323593
1492.68,0.262750,583875,318838
1496.89,0.265877,578062,313399
1500.03,0.267347,574159,310231
1503.18,0.267630,570285,307937
1506.32,0.266092,565444,306406
1509.45,0.265451,560571,304214
1512.58,0.263923,555821,302700
1515.71,0.261662,550344,301281
1519.87,0.259331,543983,299402
1522.99,0.255992,538764,298818
1526.1,0.253369,533692,297798
1529.21,0.250214,527902,296715
1532.32,0.246538,521886,295827
1535.42,0.244229,515888,293986
1538.51,0.239850,509987,293568
1541.6,0.236527,503936,292313
1545.72,0.233017,494694,289281
1548.8,0.228996,488378,288244
1551.88,0.226612,481832,285946
1554.95,0.223740,474989,283755
1558.02,0.221732,467818,280766
1561.08,0.219855,460730,277710
1564.15,0.219818,454170,273779
1568.22,0.217693,444181,269071
1571.27,0.217185,436947,264999
1574.32,0.216508,429598,260948
1577.36,0.215071,422039,257206
1580.4,0.213392,414375,253514
1583.43,0.211528,406354,249676
1586.46,0.209485,398475,245989
1590.49,0.207399,388982,241285
1593.51,0.204334,380708,237825
1596.53,0.202249,372727,233960
1599.54,0.200018,365060,230328
1602.55,0.197999,357543,226636
1605.55,0.195013,349495,223063
1608.55,0.192084,341154,219213
1612.54,0.190112,330877,213577
1615.53,0.187763,322904,209561
1618.51,0.186230,315116,205230
1621.49,0.184582,307217,200846
1624.47,0.182843,299481,196574
1627.44,0.181941,292112,192136
1630.41,0.180624,284245,187529
1634.36,0.178887,274079,181547
1637.32,0.177734,266916,177272
1640.27,0.177279,259612,172602
1643.22,0.175304,251804,168174
1646.16,0.173639,244348,163821
1649.1,0.173799,236703,158637
1652.04,0.173714,228171,152949
1655.95,0.170784,215408,145371
1658.88,0.168075,204937,139170
1661.8,0.166757,193395,131731
1664.72,0.163536,179728,123333
1667.63,0.158318,163642,113652
1670.54,0.153253,146312,102808
1673.44,0.144917,128451,92007
1677.31,0.141994,105080,75775
1680.21,0.137162,88906,64829
1683.1,0.141029,75033,54228
1685.99,0.145367,63520,45451
1688.87,0.146991,53714,38291
1691.75,0.155434,45653,31918
1694.62,0.152813,39137,27528
1697.49,0.158151,33776,23467
1701.31,0.171911,28175,18965

File: Column 1_050542_20150331_115615.csv
Method:,Column 1,,
Host Date-Time:,31/3/15 @ 11:56:15,,
Header Version:,1,,
System Temp (C):,32.57,,
Detector Temp (C):,30.91,,
Humidity (%):,2.83,,
Lamp PD:,3824,,
Shift Vector Coefficients:,-10.5391,0.0761263,-0.000134223,,
Pixel to Wavelength Coefficients:,1775.68,-0.916766,-0.000235065,,
Serial Number:,5510004,,
Scan Config Name:,Column 1,,
Scan Config Type:,Slew,,
Section 1,,
Start wavelength (nm):,900,,
End wavelength (nm):,1700,,
Pattern Pixel Width (nm):,   7.03,,,,
Exposure (ms):,  0.635,,,,
Digital Resolution:,228,,
Num Repeats:,6,,
PGA Gain:,64,,
Total Measurement Time in sec:,  2.663,,
Wavelength (nm),Absorbance (AU),Reference Signal (unitless),Sample Signal (unitless)
901.51,0.043356,108485,98178
905.376,0.051255,121306,107802
909.237,0.052018,131909,117019
913.095,0.052932,143299,126856
916.948,0.052211,156982,139200
922.079,0.053781,179937,158979
925.923,0.053801,200504,177142
929.762,0.054266,222660,196506
933.597,0.054791,244426,215455
937.427,0.054403,263972,232892
941.254,0.055097,281845,248264
945.076,0.054634,297271,262131
950.165,0.054351,315605,278479
953.978,0.054564,328029,289300
957.786,0.055349,340470,299730
961.59,0.055318,352317,310181
965.389,0.055591,363056,319435
969.185,0.055695,373162,328248
972.976,0.056349,382632,336072
976.763,0.056973,391202,343106
981.806,0.057676,400190,350421
985.583,0.058970,406088,354528
989.355,0.059264,410162,357842
993.124,0.059161,412868,360288
996.888,0.060122,414263,360707
1000.65,0.060608,415476,361358
1004.4,0.061986,415479,360216
1009.41,0.063232,414358,358215
1013.15,0.063046,412923,357127
1016.89,0.064040,411526,355105
1020.63,0.064219,409066,352837
1024.36,0.064320,406777,350781
1028.09,0.063724,404427,349234
1031.82,0.063321,401911,347383
1036.78,0.062555,398410,344965
1040.49,0.061585,396204,343822
1044.2,0.061757,394236,341979
1047.91,0.061329,392042,340411
1051.61,0.060419,389823,339194
1055.31,0.059670,388234,338395
1059,0.058996,387599,338366
1063.92,0.057560,386688,338689
1067.61,0.057283,386598,338826
1071.29,0.056169,387377,340381
1074.96,0.055603,388536,341844
1078.63,0.054780,389855,343655
1082.3,0.053930,391215,345530
1085.96,0.053323,393215,347782
1090.84,0.052114,396270,351461
1094.49,0.051519,398760,354154
1098.14,0.051686,400987,355995
1101.79,0.051049,403477,358732
1105.43,0.050883,406116,361216
1109.06,0.050381,407701,363045
1112.7,0.050883,409859,364545
1117.53,0.050877,412494,366894
1121.15,0.051545,414909,368475
1124.77,0.052674,416559,368980
1128.38,0.053331,418532,370167
1131.99,0.055239,419956,369798
1135.6,0.057032,421946,370020
1139.2,0.059028,423881,370012
1143.99,0.062025,426786,369986
1147.58,0.063040,428617,370706
1151.17,0.064910,431169,371311
1154.75,0.065968,433579,372478
1158.33,0.067759,436264,373242
1161.91,0.070314,439132,373492
1165.48,0.073486,442389,373524
1169.04,0.076190,446101,374320
1173.79,0.080658,451929,375329
1177.34,0.083420,456026,376331
1180.9,0.085799,461306,378608
1184.44,0.087962,467657,381914
1187.99,0.088845,473969,386282
1191.52,0.088632,479856,391272
1195.06,0.087412,487372,398519
1199.76,0.086015,497347,407985
1203.29,0.084725,504311,414929
1206.81,0.083809,511507,421738
1210.33,0.082258,519078,429511
1213.84,0.081439,527163,437025
1217.35,0.080603,534208,443718
1220.85,0.079020,540472,450561
1225.51,0.078326,549929,459177
1229.01,0.077231,556888,466162
1232.5,0.076268,562180,471636
1235.98,0.075742,567975,477076
1239.46,0.074112,574815,484637
1242.94,0.073144,582782,492450
1246.41,0.072244,591476,500833
1251.03,0.072115,604016,511603
1254.5,0.072149,612289,518570
1257.96,0.072039,619125,524492
1261.41,0.073028,624551,527886
1264.86,0.073241,629900,532146
1268.31,0.074439,634345,534425
1271.75,0.074980,638574,537318
1276.33,0.075427,642499,540064
1279.76,0.075336,645905,543041
1283.19,0.074528,648307,546075
1286.61,0.074221,650446,548265
1290.03,0.074117,652132,549817
1293.44,0.073277,653907,552381
1296.85,0.073297,655963,554092
1301.39,0.072788,657349,555914
1304.8,0.073108,657558,555682
1308.19,0.073024,658515,556598
1311.58,0.073261,658804,556539
1314.97,0.074113,659011,555622
1318.36,0.074299,658272,554761
1321.73,0.074906,658022,553776
1326.23,0.076151,657870,552064
1329.6,0.076856,656482,550005
1332.97,0.077819,654926,547486
1336.33,0.079225,653727,544718
1339.69,0.081461,652497,540901
1343.04,0.083392,649913,536368
1346.39,0.085686,647671,531702
1349.73,0.087898,645338,527096
1354.18,0.091741,641175,519082
1357.52,0.094224,638376,513869
1360.85,0.096769,635805,508809
1364.17,0.099270,633413,503984
1367.49,0.101926,631026,499024
1370.81,0.104212,628050,494063
1374.12,0.107277,625034,488233
1378.54,0.111193,620272,480164
1381.84,0.115171,616892,473193
1385.14,0.120015,613613,465457
1388.43,0.124423,611526,459189
1391.72,0.131014,610663,451635
1395.01,0.136179,610634,446274
1398.29,0.142463,611700,440631
1402.66,0.151101,614051,433614
1405.93,0.157864,616268,428455
1409.2,0.163710,617795,423774
1412.46,0.169602,618872,418792
1415.72,0.174862,619795,414368
1418.98,0.179936,620495,410017
1422.23,0.184048,621087,406541
1426.56,0.189005,621375,402114
1429.8,0.191934,621616,399566
1433.04,0.195071,622129,397017
1436.27,0.197045,621526,394834
1439.5,0.199465,621113,392379
1442.72,0.202033,620921,389945
1445.94,0.203841,620270,387918
1450.23,0.207974,618860,383370
1453.44,0.210665,617697,380286
1456.64,0.213883,616264,376603
1459.85,0.217360,614413,372478
1463.04,0.219151,612307,369673
1466.24,0.222262,610032,365671
1469.43,0.226242,607345,360739
1473.67,0.231445,603789,354356
1476.85,0.236320,601175,348884
1480.02,0.241922,597737,342443
1483.19,0.247945,594479,335886
1486.36,0.254139,591232,329321
1489.52,0.259643,587853,323315
1492.68,0.262736,583875,318848
1496.89,0.265622,578062,313583
1500.03,0.266636,574159,310739
1503.18,0.267176,570285,308259
1506.32,0.266633,565444,306025
1509.45,0.265703,560571,304038
1512.58,0.263740,555821,302827
1515.71,0.261942,550344,301087
1519.87,0.258804,543983,299765
1522.99,0.255389,538764,299233
1526.1,0.252958,533692,298080
1529.21,0.249630,527902,297114
1532.32,0.247027,521886,295494
1535.42,0.243612,515888,294404
1538.51,0.240222,509987,293317
1541.6,0.236954,503936,292026
1545.72,0.232156,494694,289855
1548.8,0.228150,488378,288806
1551.88,0.225886,481832,286424
1554.95,0.223393,474989,283982
1558.02,0.221239,467818,281085
1561.08,0.219963,460730,277641
1564.15,0.218877,454170,274373
1568.22,0.217762,444181,269028
1571.27,0.218090,436947,264447
1574.32,0.216001,429598,261253
1577.36,0.214493,422039,257549
1580.4,0.213196,414375,253628
1583.43,0.211484,406354,249701
1586.46,0.209069,398475,246225
1590.49,0.207500,388982,241229
1593.51,0.204652,380708,237651
1596.53,0.202251,372727,233959
1599.54,0.199533,365060,230585
1602.55,0.196865,357543,227229
1605.55,0.194710,349495,223219
1608.55,0.194040,341154,218228
1612.54,0.189742,330877,213759
1615.53,0.188165,322904,209367
1618.51,0.186350,315116,205173
1621.49,0.184480,307217,200893
1624.47,0.183515,299481,196270
1627.44,0.183487,292112,191453
1630.41,0.180759,284245,187471
1634.36,0.180144,274079,181022
1637.32,0.178279,266916,177050
1640.27,0.175993,259612,173114
1643.22,0.176115,251804,167860
1646.16,0.175129,244348,163260
1649.1,0.174597,236703,158346
1652.04,0.172087,228171,153523
1655.95,0.170772,215408,145375
1658.88,0.169556,204937,138696
1661.8,0.167516,193395,131501
1664.72,0.163086,179728,123461
1667.63,0.157836,163642,113778
1670.54,0.151470,146312,103231
1673.44,0.145044,128451,91980
1677.31,0.141731,105080,75821
1680.21,0.137966,88906,64709
1683.1,0.141726,75033,54141
1685.99,0.144689,63520,45522
1688.87,0.149539,53714,38067
1691.75,0.155515,45653,31912
1694.62,0.158258,39137,27185
1697.49,0.164827,33776,23109
1701.31,0.160922,28175,19451