Folder: textile_sorting_NIRSCAN_/samples/wool/wool-000811 (part 113)

File: Column 1_050594_20150331_122047.csv
Method:,Column 1,,
Host Date-Time:,31/3/15 @ 12:20:47,,
Header Version:,1,,
System Temp (C):,33.92,,
Detector Temp (C):,34.67,,
Humidity (%):,1.76,,
Lamp PD:,3819,,
Shift Vector Coefficients:,-10.5391,0.0761263,-0.000134223,,
Pixel to Wavelength Coefficients:,1775.68,-0.916766,-0.000235065,,
Serial Number:,5510004,,
Scan Config Name:,Column 1,,
Scan Config Type:,Slew,,
Section 1,,
Start wavelength (nm):,900,,
End wavelength (nm):,1700,,
Pattern Pixel Width (nm):,   7.03,,,,
Exposure (ms):,  0.635,,,,
Digital Resolution:,228,,
Num Repeats:,6,,
PGA Gain:,64,,
Total Measurement Time in sec:,  2.675,,
Wavelength (nm),Absorbance (AU),Reference Signal (unitless),Sample Signal (unitless)
901.51,0.070130,108485,92308
905.376,0.075329,121306,101989
909.237,0.077593,131909,110327
913.095,0.078763,143299,119531
916.948,0.079405,156982,130751
922.079,0.081480,179937,149156
925.923,0.082216,200504,165923
929.762,0.084013,222660,183497
933.597,0.083706,244426,201577
937.427,0.081342,263972,218885
941.254,0.081164,281845,233801
945.076,0.080178,297271,247158
950.165,0.078896,315605,263177
953.978,0.078664,328029,273683
957.786,0.079572,340470,283470
961.59,0.079439,352317,293423
965.389,0.079554,363056,302287
969.185,0.079481,373162,310754
972.976,0.079041,382632,318963
976.763,0.080060,391202,325343
981.806,0.080215,400190,332699
985.583,0.080936,406088,337042
989.355,0.081492,410162,339988
993.124,0.082532,412868,341412
996.888,0.082301,414263,342748
1000.65,0.082671,415476,343459
1004.4,0.084293,415479,342181
1009.41,0.085356,414358,340424
1013.15,0.085840,412923,338867
1016.89,0.086012,411526,337587
1020.63,0.085814,409066,335722
1024.36,0.085888,406777,333786
1028.09,0.085659,404427,332033
1031.82,0.085708,401911,329930
1036.78,0.084982,398410,327603
1040.49,0.085246,396204,325591
1044.2,0.084978,394236,324174
1047.91,0.084935,392042,322402
1051.61,0.083546,389823,321604
1055.31,0.084630,388234,319495
1059,0.083476,387599,319821
1063.92,0.083080,386688,319360
1067.61,0.082452,386598,319748
1071.29,0.081657,387377,320979
1074.96,0.081527,388536,322036
1078.63,0.080813,389855,323661
1082.3,0.079898,391215,325475
1085.96,0.079054,393215,327775
1090.84,0.077782,396270,331291
1094.49,0.077359,398760,333697
1098.14,0.077285,400987,335618
1101.79,0.076542,403477,338280
1105.43,0.076655,406116,340404
1109.06,0.075290,407701,342809
1112.7,0.075333,409859,344589
1117.53,0.074959,412494,347103
1121.15,0.075294,414909,348866
1124.77,0.075674,416559,349947
1128.38,0.076711,418532,350766
1131.99,0.077657,419956,351194
1135.6,0.079713,421946,351191
1139.2,0.080801,423881,351919
1143.99,0.082875,426786,352643
1147.58,0.083072,428617,353995
1151.17,0.084435,431169,354987
1154.75,0.084723,433579,356735
1158.33,0.086438,436264,357529
1161.91,0.088312,439132,358330
1165.48,0.090132,442389,359478
1169.04,0.092273,446101,360712
1173.79,0.095616,451929,362622
1177.34,0.097916,456026,363977
1180.9,0.100111,461306,366335
1184.44,0.102035,467657,369737
1187.99,0.102958,473969,373931
1191.52,0.102841,479856,378678
1195.06,0.102331,487372,385061
1199.76,0.102693,497347,392615
1203.29,0.101617,504311,399100
1206.81,0.100937,511507,405429
1210.33,0.100553,519078,411794
1213.84,0.099525,527163,419199
1217.35,0.099288,534208,425033
1220.85,0.098262,540472,431034
1225.51,0.097894,549929,438948
1229.01,0.097313,556888,445097
1232.5,0.097048,562180,449601
1235.98,0.095778,567975,455566
1239.46,0.094956,574815,461926
1242.94,0.094166,582782,469181
1246.41,0.093490,591476,476922
1251.03,0.093404,604016,487130
1254.5,0.093617,612289,493559
1257.96,0.094260,619125,498332
1261.41,0.094630,624551,502271
1264.86,0.095290,629900,505803
1268.31,0.095679,634345,508917
1271.75,0.096311,638574,511564
1276.33,0.096487,642499,514500
1279.76,0.096267,645905,517490
1283.19,0.095756,648307,520026
1286.61,0.095264,650446,522333
1290.03,0.095240,652132,523716
1293.44,0.094710,653907,525782
1296.85,0.094382,655963,527834
1301.39,0.094333,657349,529009
1304.8,0.094110,657558,529449
1308.19,0.094137,658515,530187
1311.58,0.094657,658804,529785
1314.97,0.095130,659011,529374
1318.36,0.095433,658272,528412
1321.73,0.096076,658022,527429
1326.23,0.096315,657870,527017
1329.6,0.097604,656482,524347
1332.97,0.098301,654926,522265
1336.33,0.099639,653727,519706
1339.69,0.100798,652497,517345
1343.04,0.102523,649913,513254
1346.39,0.104525,647671,509131
1349.73,0.106559,645338,504927
1354.18,0.109102,641175,498740
1357.52,0.111276,638376,494084
1360.85,0.113436,635805,489653
1364.17,0.115382,633413,485629
1367.49,0.117701,631026,481223
1370.81,0.119548,628050,476921
1374.12,0.121856,625034,472115
1378.54,0.124574,620272,465595
1381.84,0.127861,616892,459566
1385.14,0.131222,613613,453599
1388.43,0.134919,611526,448225
1391.72,0.139208,610663,443194
1395.01,0.143709,610634,438603
1398.29,0.148579,611700,434470
1402.66,0.155483,614051,429261
1405.93,0.160059,616268,426295
1409.2,0.165397,617795,422131
1412.46,0.170132,618872,418282
1415.72,0.174267,619795,414936
1418.98,0.177946,620495,411900
1422.23,0.181534,621087,408901
1426.56,0.185409,621375,405457
1429.8,0.187932,621616,403265
1433.04,0.190459,622129,401256
1436.27,0.192620,621526,398877
1439.5,0.194939,621113,396489
1442.72,0.197106,620921,394394
1445.94,0.199625,620270,391702
1450.23,0.203230,618860,387581
1453.44,0.205135,617697,385159
1456.64,0.208206,616264,381558
1459.85,0.210641,614413,378285
1463.04,0.214023,612307,374064
1466.24,0.216960,610032,370163
1469.43,0.220497,607345,365543
1473.67,0.226663,603789,358280
1476.85,0.231251,601175,352980
1480.02,0.237674,597737,345809
1483.19,0.243409,594479,339412
1486.36,0.248667,591232,333496
1489.52,0.253554,587853,327880
1492.68,0.257124,583875,322995
1496.89,0.258772,578062,318568
1500.03,0.259707,574159,315737
1503.18,0.259924,570285,313450
1506.32,0.258519,565444,311796
1509.45,0.257158,560571,310079
1512.58,0.255297,555821,308772
1515.71,0.253285,550344,307149
1519.87,0.250044,543983,305873
1522.99,0.248155,538764,304259
1526.1,0.245159,533692,303481
1529.21,0.242239,527902,302214
1532.32,0.239968,521886,300336
1535.42,0.236903,515888,298987
1538.51,0.233666,509987,297778
1541.6,0.231530,503936,295696
1545.72,0.226727,494694,293501
1548.8,0.224999,488378,290909
1551.88,0.221995,481832,289002
1554.95,0.219573,474989,286491
1558.02,0.218326,467818,282977
1561.08,0.217335,460730,279326
1564.15,0.216638,454170,275791
1568.22,0.215186,444181,270629
1571.27,0.215353,436947,266119
1574.32,0.214597,429598,262099
1577.36,0.212679,422039,258627
1580.4,0.211644,414375,254536
1583.43,0.210534,406354,250248
1586.46,0.207651,398475,247030
1590.49,0.206770,388982,241635
1593.51,0.204859,380708,237538
1596.53,0.203143,372727,233479
1599.54,0.200803,365060,229912
1602.55,0.198628,357543,226308
1605.55,0.197209,349495,221938
1608.55,0.195142,341154,217675
1612.54,0.193452,330877,211941
1615.53,0.191206,322904,207906
1618.51,0.191238,315116,202877
1621.49,0.188983,307217,198821
1624.47,0.186796,299481,194793
1627.44,0.187331,292112,189766
1630.41,0.186777,284245,184891
1634.36,0.184501,274079,179215
1637.32,0.183885,266916,174779
1640.27,0.183947,259612,169972
1643.22,0.182905,251804,165256
1646.16,0.181707,244348,160806
1649.1,0.180767,236703,156112
1652.04,0.179094,228171,151066
1655.95,0.177361,215408,143186
1658.88,0.173656,204937,137393
1661.8,0.165766,193395,132032
1664.72,0.159478,179728,124491
1667.63,0.147725,163642,116458
1670.54,0.133779,146312,107523
1673.44,0.117547,128451,97992
1677.31,0.098281,105080,83799
1680.21,0.089661,88906,72322
1683.1,0.082840,75033,62003
1685.99,0.085964,63520,52113
1688.87,0.088039,53714,43858
1691.75,0.090540,45653,37062
1694.62,0.099953,39137,31091
1697.49,0.098517,33776,26921
1701.31,0.111906,28175,21775

File: Column 1_050594_20150331_122053.csv
Method:,Column 1,,
Host Date-Time:,31/3/15 @ 12:20:53,,
Header Version:,1,,
System Temp (C):,33.93,,
Detector Temp (C):,34.64,,
Humidity (%):,1.76,,
Lamp PD:,3818,,
Shift Vector Coefficients:,-10.5391,0.0761263,-0.000134223,,
Pixel to Wavelength Coefficients:,1775.68,-0.916766,-0.000235065,,
Serial Number:,5510004,,
Scan Config Name:,Column 1,,
Scan Config Type:,Slew,,
Section 1,,
Start wavelength (nm):,900,,
End wavelength (nm):,1700,,
Pattern Pixel Width (nm):,   7.03,,,,
Exposure (ms):,  0.635,,,,
Digital Resolution:,228,,
Num Repeats:,6,,
PGA Gain:,64,,
Total Measurement Time in sec:,  2.688,,
Wavelength (nm),Absorbance (AU),Reference Signal (unitless),Sample Signal (unitless)
901.51,0.068984,108485,92552
905.376,0.075721,121306,101897
909.237,0.078321,131909,110142
913.095,0.077326,143299,119927
916.948,0.080539,156982,130410
922.079,0.082211,179937,148905
925.923,0.082012,200504,166001
929.762,0.083179,222660,183850
933.597,0.083282,244426,201774
937.427,0.081471,263972,218820
941.254,0.081608,281845,233562
945.076,0.080113,297271,247195
950.165,0.079145,315605,263026
953.978,0.078401,328029,273849
957.786,0.079366,340470,283604
961.59,0.078799,352317,293856
965.389,0.078898,363056,302744
969.185,0.078837,373162,311215
972.976,0.079086,382632,318930
976.763,0.080181,391202,325252
981.806,0.079980,400190,332879
985.583,0.080854,406088,337106
989.355,0.081566,410162,339930
993.124,0.081648,412868,342108
996.888,0.082196,414263,342831
1000.65,0.082742,415476,343403
1004.4,0.083823,415479,342552
1009.41,0.085177,414358,340564
1013.15,0.085374,412923,339231
1016.89,0.086171,411526,337463
1020.63,0.085839,409066,335702
1024.36,0.086418,406777,333379
1028.09,0.085258,404427,332340
1031.82,0.085837,401911,329832
1036.78,0.085778,398410,327003
1040.49,0.085148,396204,325665
1044.2,0.084516,394236,324519
1047.91,0.084460,392042,322755
1051.61,0.084553,389823,320859
1055.31,0.084153,388234,319846
1059,0.084166,387599,319313
1063.92,0.083256,386688,319231
1067.61,0.082412,386598,319777
1071.29,0.081918,387377,320786
1074.96,0.081744,388536,321875
1078.63,0.080717,389855,323732
1082.3,0.079902,391215,325472
1085.96,0.078510,393215,328186
1090.84,0.078069,396270,331072
1094.49,0.077988,398760,333214
1098.14,0.076972,400987,335860
1101.79,0.076107,403477,338619
1105.43,0.076269,406116,340707
1109.06,0.075220,407701,342864
1112.7,0.074987,409859,344864
1117.53,0.074999,412494,347071
1121.15,0.075800,414909,348460
1124.77,0.075259,416559,350282
1128.38,0.075960,418532,351373
1131.99,0.077114,419956,351633
1135.6,0.079519,421946,351348
1139.2,0.080397,423881,352247
1143.99,0.082507,426786,352942
1147.58,0.083423,428617,353709
1151.17,0.084491,431169,354941
1154.75,0.085354,433579,356217
1158.33,0.086693,436264,357319
1161.91,0.088748,439132,357970
1165.48,0.090727,442389,358986
1169.04,0.092364,446101,360636
1173.79,0.095295,451929,362890
1177.34,0.098206,456026,363734
1180.9,0.100277,461306,366195
1184.44,0.101714,467657,370010
1187.99,0.102951,473969,373937
1191.52,0.102943,479856,378589
1195.06,0.103156,487372,384330
1199.76,0.102365,497347,392911
1203.29,0.103703,504311,397187
1206.81,0.101156,511507,405224
1210.33,0.100255,519078,412076
1213.84,0.099822,527163,418912
1217.35,0.099239,534208,425081
1220.85,0.098453,540472,430844
1225.51,0.097658,549929,439186
1229.01,0.097110,556888,445305
1232.5,0.096360,562180,450314
1235.98,0.096023,567975,455309
1239.46,0.095185,574815,461682
1242.94,0.094150,582782,469198
1246.41,0.093547,591476,476859
1251.03,0.093775,604016,486714
1254.5,0.094064,612289,493052
1257.96,0.094321,619125,498261
1261.41,0.094661,624551,502235
1264.86,0.095185,629900,505926
1268.31,0.095636,634345,508967
1271.75,0.096095,638574,511819
1276.33,0.096236,642499,514797
1279.76,0.095974,645905,517839
1283.19,0.095731,648307,520056
1286.61,0.095377,650446,522197
1290.03,0.095004,652132,524000
1293.44,0.094514,653907,526020
1296.85,0.094458,655963,527742
1301.39,0.094381,657349,528950
1304.8,0.094146,657558,529405
1308.19,0.094375,658515,529896
1311.58,0.094306,658804,530213
1314.97,0.094800,659011,529777
1318.36,0.095457,658272,528382
1321.73,0.095607,658022,527999
1326.23,0.096594,657870,526679
1329.6,0.097267,656482,524754
1332.97,0.098333,654926,522227
1336.33,0.099401,653727,519991
1339.69,0.100836,652497,517300
1343.04,0.102472,649913,513314
1346.39,0.104289,647671,509408
1349.73,0.106439,645338,505066
1354.18,0.109494,641175,498291
1357.52,0.111814,638376,493472
1360.85,0.113470,635805,489614
1364.17,0.115041,633413,486011
1367.49,0.117843,631026,481066
1370.81,0.119775,628050,476672
1374.12,0.121842,625034,472130
1378.54,0.124896,620272,465250
1381.84,0.127639,616892,459801
1385.14,0.130991,613613,453841
1388.43,0.135437,611526,447691
1391.72,0.139523,610663,442872
1395.01,0.144206,610634,438102
1398.29,0.148421,611700,434628
1402.66,0.155347,614051,429395
1405.93,0.160019,616268,426335
1409.2,0.165354,617795,422173
1412.46,0.170090,618872,418322
1415.72,0.174020,619795,415172
1418.98,0.177619,620495,412211
1422.23,0.181098,621087,409312
1426.56,0.185090,621375,405755
1429.8,0.188246,621616,402973
1433.04,0.189800,622129,401865
1436.27,0.192668,621526,398833
1439.5,0.194626,621113,396775
1442.72,0.196665,620921,394795
1445.94,0.199075,620270,392198
1450.23,0.202645,618860,388103
1453.44,0.205737,617697,384626
1456.64,0.208341,616264,381440
1459.85,0.210688,614413,378244
1463.04,0.213366,612307,374631
1466.24,0.217192,610032,369965
1469.43,0.220423,607345,365605
1473.67,0.226343,603789,358544
1476.85,0.231285,601175,352952
1480.02,0.237617,597737,345854
1483.19,0.243476,594479,339360
1486.36,0.248752,591232,333431
1489.52,0.253176,587853,328165
1492.68,0.256630,583875,323363
1496.89,0.258749,578062,318585
1500.03,0.259084,574159,316190
1503.18,0.259550,570285,313720
1506.32,0.258249,565444,311990
1509.45,0.257241,560571,310020
1512.58,0.255626,555821,308538
1515.71,0.252892,550344,307427
1519.87,0.250227,543983,305744
1522.99,0.247502,538764,304717
1526.1,0.244802,533692,303731
1529.21,0.242339,527902,302144
1532.32,0.240007,521886,300309
1535.42,0.237165,515888,298807
1538.51,0.234161,509987,297439
1541.6,0.231109,503936,295983
1545.72,0.226999,494694,293317
1548.8,0.224118,488378,291500
1551.88,0.222468,481832,288687
1554.95,0.219645,474989,286443
1558.02,0.218879,467818,282617
1561.08,0.216818,460730,279659
1564.15,0.216629,454170,275797
1568.22,0.215077,444181,270697
1571.27,0.214538,436947,266619
1574.32,0.214050,429598,262429
1577.36,0.212753,422039,258583
1580.4,0.212150,414375,254240
1583.43,0.209319,406354,250949
1586.46,0.208960,398475,246287
1590.49,0.206791,388982,241623
1593.51,0.204548,380708,237708
1596.53,0.203163,372727,233468
1599.54,0.201037,365060,229788
1602.55,0.199093,357543,226066
1605.55,0.196875,349495,222109
1608.55,0.194480,341154,218007
1612.54,0.193028,330877,212148
1615.53,0.190495,322904,208247
1618.51,0.191066,315116,202957
1621.49,0.188374,307217,199100
1624.47,0.188297,299481,194121
1627.44,0.186709,292112,190038
1630.41,0.186024,284245,185212
1634.36,0.184826,274079,179081
1637.32,0.183297,266916,175016
1640.27,0.183059,259612,170320
1643.22,0.181717,251804,165709
1646.16,0.180986,244348,161073
1649.1,0.182010,236703,155666
1652.04,0.179692,228171,150858
1655.95,0.176667,215408,143415
1658.88,0.171493,204937,138079
1661.8,0.167130,193395,131618
1664.72,0.160281,179728,124261
1667.63,0.148442,163642,116266
1670.54,0.134373,146312,107376
1673.44,0.117862,128451,97921
1677.31,0.100292,105080,83412
1680.21,0.087110,88906,72748
1683.1,0.082966,75033,61985
1685.99,0.081999,63520,52591
1688.87,0.082040,53714,44468
1691.75,0.093610,45653,36801
1694.62,0.096045,39137,31372
1697.49,0.099163,33776,26881
1701.31,0.107856,28175,21979

File: Column 1_050595_20150331_122101.csv
Method:,Column 1,,
Host Date-Time:,31/3/15 @ 12:21:1,,
Header Version:,1,,
System Temp (C):,33.94,,
Detector Temp (C):,34.62,,
Humidity (%):,1.76,,
Lamp PD:,3818,,
Shift Vector Coefficients:,-10.5391,0.0761263,-0.000134223,,
Pixel to Wavelength Coefficients:,1775.68,-0.916766,-0.000235065,,
Serial Number:,5510004,,
Scan Config Name:,Column 1,,
Scan Config Type:,Slew,,
Section 1,,
Start wavelength (nm):,900,,
End wavelength (nm):,1700,,
Pattern Pixel Width (nm):,   7.03,,,,
Exposure (ms):,  0.635,,,,
Digital Resolution:,228,,
Num Repeats:,6,,
PGA Gain:,64,,
Total Measurement Time in sec:,  2.732,,
Wavelength (nm),Absorbance (AU),Reference Signal (unitless),Sample Signal (unitless)
901.51,0.068140,108485,92732
905.376,0.074181,121306,102259
909.237,0.078081,131909,110203
913.095,0.077757,143299,119808
916.948,0.079691,156982,130665
922.079,0.081617,179937,149109
925.923,0.081416,200504,166229
929.762,0.082419,222660,184172
933.597,0.082383,244426,202192
937.427,0.082259,263972,218423
941.254,0.081118,281845,233826
945.076,0.079341,297271,247635
950.165,0.079487,315605,262819
953.978,0.078979,328029,273485
957.786,0.078441,340470,284209
961.59,0.078863,352317,293813
965.389,0.078697,363056,302884
969.185,0.078869,373162,311192
972.976,0.079023,382632,318976
976.763,0.079730,391202,325590
981.806,0.080178,400190,332727
985.583,0.080896,406088,337073
989.355,0.080711,410162,340600
993.124,0.081346,412868,342346
996.888,0.082038,414263,342956
1000.65,0.082852,415476,343316
1004.4,0.083323,415479,342946
1009.41,0.085223,414358,340528
1013.15,0.085640,412923,339023
1016.89,0.085506,411526,337980
1020.63,0.086004,409066,335575
1024.36,0.085802,406777,333852
1028.09,0.085996,404427,331775
1031.82,0.086147,401911,329597
1036.78,0.085448,398410,327252
1040.49,0.084896,396204,325854
1044.2,0.085324,394236,323916
1047.91,0.085022,392042,322337
1051.61,0.085008,389823,320523
1055.31,0.083925,388234,320014
1059,0.083315,387599,319939
1063.92,0.083024,386688,319401
1067.61,0.081430,386598,320501
1071.29,0.082042,387377,320695
1074.96,0.080720,388536,322635
1078.63,0.080822,389855,323654
1082.3,0.079744,391215,325590
1085.96,0.078773,393215,327987
1090.84,0.078020,396270,331109
1094.49,0.077351,398760,333703
1098.14,0.076609,400987,336141
1101.79,0.076210,403477,338539
1105.43,0.076477,406116,340544
1109.06,0.075274,407701,342821
1112.7,0.075290,409859,344623
1117.53,0.074717,412494,347297
1121.15,0.075237,414909,348912
1124.77,0.075363,416559,350198
1128.38,0.076513,418532,350926
1131.99,0.076909,419956,351799
1135.6,0.078930,421946,351825
1139.2,0.080086,423881,352499
1143.99,0.082389,426786,353038
1147.58,0.082825,428617,354197
1151.17,0.083688,431169,355598
1154.75,0.085068,433579,356451
1158.33,0.086470,436264,357503
1161.91,0.087923,439132,358651
1165.48,0.090382,442389,359271
1169.04,0.092151,446101,360813
1173.79,0.096063,451929,362249
1177.34,0.098430,456026,363546
1180.9,0.099704,461306,366678
1184.44,0.101891,467657,369859
1187.99,0.102559,473969,374275
1191.52,0.102763,479856,378746
1195.06,0.102829,487372,384620
1199.76,0.101684,497347,393528
1203.29,0.101274,504311,399415
1206.81,0.100696,511507,405654
1210.33,0.099966,519078,412351
1213.84,0.099331,527163,419386
1217.35,0.098508,534208,425797
1220.85,0.098142,540472,431153
1225.51,0.097721,549929,439122
1229.01,0.096842,556888,445580
1232.5,0.096590,562180,450076
1235.98,0.095818,567975,455524
1239.46,0.095089,574815,461784
1242.94,0.093831,582782,469543
1246.41,0.093101,591476,477349
1251.03,0.093583,604016,486929
1254.5,0.093450,612289,493749
1257.96,0.093889,619125,498757
1261.41,0.094550,624551,502363
1264.86,0.094792,629900,506384
1268.31,0.095363,634345,509287
1271.75,0.096122,638574,511787
1276.33,0.096161,642499,514886
1279.76,0.095908,645905,517917
1283.19,0.095852,648307,519911
1286.61,0.095342,650446,522239
1290.03,0.094781,652132,524269
1293.44,0.094062,653907,526568
1296.85,0.094310,655963,527922
1301.39,0.093947,657349,529479
1304.8,0.093810,657558,529815
1308.19,0.094388,658515,529880
1311.58,0.094296,658804,530225
1314.97,0.094827,659011,529744
1318.36,0.094925,658272,529030
1321.73,0.095615,658022,527990
1326.23,0.096719,657870,526528
1329.6,0.097384,656482,524613
1332.97,0.098068,654926,522546
1336.33,0.099245,653727,520177
1339.69,0.100588,652497,517595
1343.04,0.102092,649913,513763
1346.39,0.103823,647671,509954
1349.73,0.106372,645338,505144
1354.18,0.109037,641175,498815
1357.52,0.111077,638376,494310
1360.85,0.113421,635805,489669
1364.17,0.114990,633413,486068
1367.49,0.116840,631026,482178
1370.81,0.119620,628050,476842
1374.12,0.122068,625034,471884
1378.54,0.124703,620272,465457
1381.84,0.127294,616892,460167
1385.14,0.131409,613613,453404
1388.43,0.135184,611526,447951
1391.72,0.138931,610663,443476
1395.01,0.143524,610634,438790
1398.29,0.147914,611700,435135
1402.66,0.155185,614051,429556
1405.93,0.160666,616268,425700
1409.2,0.164730,617795,422780
1412.46,0.169638,618872,418758
1415.72,0.173546,619795,415625
1418.98,0.177722,620495,412113
1422.23,0.181236,621087,409182
1426.56,0.184972,621375,405865
1429.8,0.187568,621616,403603
1433.04,0.189885,622129,401787
1436.27,0.192379,621526,399099
1439.5,0.194512,621113,396879
1442.72,0.196282,620921,395143
1445.94,0.199109,620270,392168
1450.23,0.202523,618860,388212
1453.44,0.205425,617697,384902
1456.64,0.208394,616264,381393
1459.85,0.210716,614413,378220
1463.04,0.213222,612307,374755
1466.24,0.216646,610032,370430
1469.43,0.220206,607345,365788
1473.67,0.226380,603789,358513
1476.85,0.231472,601175,352800
1480.02,0.237514,597737,345936
1483.19,0.242941,594479,339778
1486.36,0.248561,591232,333578
1489.52,0.253192,587853,328153
1492.68,0.256497,583875,323462
1496.89,0.258541,578062,318738
1500.03,0.258941,574159,316294
1503.18,0.259382,570285,313841
1506.32,0.257804,565444,312310
1509.45,0.257220,560571,310035
1512.58,0.254931,555821,309032
1515.71,0.252548,550344,307671
1519.87,0.249729,543983,306095
1522.99,0.247526,538764,304700
1526.1,0.244987,533692,303601
1529.21,0.242311,527902,302164
1532.32,0.239675,521886,300539
1535.42,0.236043,515888,299580
1538.51,0.233559,509987,297852
1541.6,0.231065,503936,296013
1545.72,0.226884,494694,293395
1548.8,0.224211,488378,291437
1551.88,0.221908,481832,289060
1554.95,0.219456,474989,286568
1558.02,0.217166,467818,283734
1561.08,0.216996,460730,279544
1564.15,0.216402,454170,275941
1568.22,0.215208,444181,270615
1571.27,0.215071,436947,266292
1574.32,0.214302,429598,262277
1577.36,0.212501,422039,258733
1580.4,0.212145,414375,254243
1583.43,0.209172,406354,251034
1586.46,0.208065,398475,246795
1590.49,0.206585,388982,241738
1593.51,0.204634,380708,237661
1596.53,0.202468,372727,233842
1599.54,0.200636,365060,230000
1602.55,0.198999,357543,226115
1605.55,0.197217,349495,221934
1608.55,0.195254,341154,217619
1612.54,0.193036,330877,212144
1615.53,0.189834,322904,208564
1618.51,0.189290,315116,203789
1621.49,0.189359,307217,198649
1624.47,0.187937,299481,194282
1627.44,0.186830,292112,189985
1630.41,0.186235,284245,185122
1634.36,0.184470,274079,179228
1637.32,0.183279,266916,175023
1640.27,0.183271,259612,170237
1643.22,0.182110,251804,165559
1646.16,0.181450,244348,160901
1649.1,0.180870,236703,156075
1652.04,0.179770,228171,150831
1655.95,0.176767,215408,143382
1658.88,0.173135,204937,137558
1661.8,0.166230,193395,131891
1664.72,0.159255,179728,124555
1667.63,0.147289,163642,116575
1670.54,0.134417,146312,107365
1673.44,0.118972,128451,97671
1677.31,0.096972,105080,84052
1680.21,0.086317,88906,72881
1683.1,0.083646,75033,61888
1685.99,0.083778,63520,52376
1688.87,0.086092,53714,44055
1691.75,0.090974,45653,37025
1694.62,0.091775,39137,31682
1697.49,0.093656,33776,27224
1701.31,0.109598,28175,21891