Folder: textile_sorting_NIRSCAN_/samples/wool/wool-000811 (part 54)

File: Column 1_050560_20150331_120445.csv
Method:,Column 1,,
Host Date-Time:,31/3/15 @ 12:4:45,,
Header Version:,1,,
System Temp (C):,33.69,,
Detector Temp (C):,33.22,,
Humidity (%):,2.15,,
Lamp PD:,3819,,
Shift Vector Coefficients:,-10.5391,0.0761263,-0.000134223,,
Pixel to Wavelength Coefficients:,1775.68,-0.916766,-0.000235065,,
Serial Number:,5510004,,
Scan Config Name:,Column 1,,
Scan Config Type:,Slew,,
Section 1,,
Start wavelength (nm):,900,,
End wavelength (nm):,1700,,
Pattern Pixel Width (nm):,   7.03,,,,
Exposure (ms):,  0.635,,,,
Digital Resolution:,228,,
Num Repeats:,6,,
PGA Gain:,64,,
Total Measurement Time in sec:,  2.660,,
Wavelength (nm),Absorbance (AU),Reference Signal (unitless),Sample Signal (unitless)
901.51,0.031659,108485,100858
905.376,0.036670,121306,111484
909.237,0.040836,131909,120071
913.095,0.040386,143299,130574
916.948,0.042978,156982,142191
922.079,0.044043,179937,162584
925.923,0.044231,200504,181089
929.762,0.045543,222660,200493
933.597,0.045837,244426,219943
937.427,0.046095,263972,237390
941.254,0.046195,281845,253405
945.076,0.045511,297271,267696
950.165,0.045465,315605,284236
953.978,0.045203,328029,295603
957.786,0.045375,340470,306693
961.59,0.045741,352317,317097
965.389,0.045494,363056,326949
969.185,0.046077,373162,335599
972.976,0.046552,382632,343739
976.763,0.046985,391202,351088
981.806,0.047717,400190,358550
985.583,0.048272,406088,363369
989.355,0.049037,410162,366369
993.124,0.049192,412868,368654
996.888,0.050058,414263,369163
1000.65,0.050753,415476,369652
1004.4,0.051582,415479,368950
1009.41,0.053480,414358,366350
1013.15,0.053812,412923,364802
1016.89,0.054121,411526,363309
1020.63,0.053959,409066,361272
1024.36,0.054146,406777,359096
1028.09,0.053943,404427,357188
1031.82,0.053850,401911,355042
1036.78,0.053074,398410,352579
1040.49,0.052765,396204,350876
1044.2,0.052450,394236,349387
1047.91,0.052142,392042,347689
1051.61,0.051342,389823,346358
1055.31,0.051067,388234,345165
1059,0.050449,387599,345091
1063.92,0.049417,386688,345099
1067.61,0.048840,386598,345477
1071.29,0.048020,387377,346828
1074.96,0.048123,388536,347783
1078.63,0.046733,389855,350082
1082.3,0.046903,391215,351166
1085.96,0.045970,393215,353720
1090.84,0.045357,396270,356972
1094.49,0.044472,398760,359948
1098.14,0.044644,400987,361815
1101.79,0.044288,403477,364360
1105.43,0.044359,406116,366683
1109.06,0.043291,407701,369021
1112.7,0.043566,409859,370739
1117.53,0.043996,412494,372753
1121.15,0.043879,414909,375037
1124.77,0.044759,416559,375766
1128.38,0.046314,418532,376196
1131.99,0.047937,419956,376068
1135.6,0.049701,421946,376319
1139.2,0.051496,423881,376485
1143.99,0.053809,426786,377052
1147.58,0.054943,428617,377682
1151.17,0.056064,431169,378951
1154.75,0.056934,433579,380307
1158.33,0.058651,436264,381152
1161.91,0.061187,439132,381424
1165.48,0.063739,442389,382002
1169.04,0.065454,446101,383689
1173.79,0.069641,451929,384972
1177.34,0.072071,456026,386295
1180.9,0.074603,461306,388496
1184.44,0.075894,467657,392675
1187.99,0.076887,473969,397066
1191.52,0.077177,479856,401730
1195.06,0.076760,487372,408414
1199.76,0.075717,497347,417775
1203.29,0.075059,504311,424267
1206.81,0.074097,511507,431275
1210.33,0.073206,519078,438558
1213.84,0.072416,527163,446199
1217.35,0.071567,534208,453047
1220.85,0.071124,540472,458827
1225.51,0.069860,549929,468216
1229.01,0.069581,556888,474446
1232.5,0.068748,562180,479874
1235.98,0.068426,567975,485180
1239.46,0.067298,574815,492300
1242.94,0.066165,582782,500428
1246.41,0.065291,591476,508916
1251.03,0.065353,604016,519632
1254.5,0.065783,612289,526227
1257.96,0.066135,619125,531671
1261.41,0.066549,624551,535820
1264.86,0.067407,629900,539343
1268.31,0.067962,634345,542455
1271.75,0.068804,638574,545013
1276.33,0.068741,642499,548443
1279.76,0.068741,645905,551350
1283.19,0.068510,648307,553695
1286.61,0.067720,650446,556533
1290.03,0.067608,652132,558120
1293.44,0.067149,653907,560231
1296.85,0.066965,655963,562230
1301.39,0.066790,657349,563646
1304.8,0.066618,657558,564048
1308.19,0.067091,658515,564254
1311.58,0.067314,658804,564212
1314.97,0.068171,659011,563277
1318.36,0.068375,658272,562381
1321.73,0.068739,658022,561696
1326.23,0.069481,657870,560608
1329.6,0.070735,656482,557812
1332.97,0.071823,654926,555098
1336.33,0.072846,653727,552778
1339.69,0.074550,652497,549577
1343.04,0.076271,649913,545236
1346.39,0.078775,647671,540231
1349.73,0.080964,645338,535579
1354.18,0.083964,641175,528460
1357.52,0.086328,638376,523297
1360.85,0.088565,635805,518512
1364.17,0.090807,633413,513902
1367.49,0.092953,631026,509442
1370.81,0.095337,628050,504263
1374.12,0.097817,625034,498984
1378.54,0.101810,620272,490650
1381.84,0.105296,616892,484076
1385.14,0.109063,613613,477344
1388.43,0.113729,611526,470637
1391.72,0.118606,610663,464725
1395.01,0.123568,610634,459423
1398.29,0.129218,611700,454277
1402.66,0.136561,614051,448377
1405.93,0.142617,616268,443765
1409.2,0.148028,617795,439356
1412.46,0.153696,618872,434415
1415.72,0.157927,619795,430845
1418.98,0.162418,620495,426894
1422.23,0.166066,621087,423727
1426.56,0.170017,621375,420085
1429.8,0.173387,621616,416999
1433.04,0.175821,622129,415011
1436.27,0.178669,621526,411899
1439.5,0.180562,621113,409835
1442.72,0.183411,620921,407029
1445.94,0.186024,620270,404163
1450.23,0.189101,618860,400398
1453.44,0.192506,617697,396524
1456.64,0.195142,616264,393210
1459.85,0.198031,614413,389430
1463.04,0.201139,612307,385328
1466.24,0.204215,610032,381187
1469.43,0.207740,607345,376440
1473.67,0.213761,603789,369083
1476.85,0.218840,601175,363213
1480.02,0.224894,597737,356136
1483.19,0.231820,594479,348591
1486.36,0.237360,591232,342293
1489.52,0.242082,587853,336656
1492.68,0.245416,583875,331821
1496.89,0.247851,578062,326681
1500.03,0.248273,574159,324160
1503.18,0.248623,570285,321713
1506.32,0.248082,565444,319380
1509.45,0.246586,560571,317720
1512.58,0.244554,555821,316505
1515.71,0.242076,550344,315180
1519.87,0.239477,543983,313407
1522.99,0.236161,538764,312779
1526.1,0.233693,533692,311600
1529.21,0.230941,527902,310179
1532.32,0.227890,521886,308806
1535.42,0.224966,515888,307319
1538.51,0.221914,509987,305946
1541.6,0.217794,503936,305198
1545.72,0.214123,494694,302144
1548.8,0.211202,488378,300299
1551.88,0.208140,481832,298370
1554.95,0.206226,474989,295432
1558.02,0.203975,467818,292484
1561.08,0.203122,460730,288619
1564.15,0.202511,454170,284910
1568.22,0.201932,444181,279015
1571.27,0.200279,436947,275518
1574.32,0.198997,429598,271685
1577.36,0.197433,422039,267867
1580.4,0.196562,414375,263531
1583.43,0.195313,406354,259174
1586.46,0.192036,398475,256074
1590.49,0.191340,388982,250374
1593.51,0.188386,380708,246721
1596.53,0.186391,372727,242661
1599.54,0.183494,365060,239260
1602.55,0.181470,357543,235428
1605.55,0.180290,349495,230755
1608.55,0.178103,341154,226385
1612.54,0.175223,330877,221026
1615.53,0.173439,322904,216588
1618.51,0.172549,315116,211798
1621.49,0.170448,307217,207490
1624.47,0.169636,299481,202644
1627.44,0.168301,292112,198266
1630.41,0.166761,284245,193612
1634.36,0.165234,274079,187345
1637.32,0.164881,266916,182597
1640.27,0.162747,259612,178475
1643.22,0.162630,251804,173154
1646.16,0.161584,244348,168432
1649.1,0.160808,236703,163454
1652.04,0.159964,228171,157869
1655.95,0.156485,215408,150237
1658.88,0.156725,204937,142855
1661.8,0.148329,193395,137441
1664.72,0.143377,179728,129193
1667.63,0.134160,163642,120153
1670.54,0.123777,146312,110028
1673.44,0.111456,128451,99376
1677.31,0.097768,105080,83898
1680.21,0.090978,88906,72103
1683.1,0.084180,75033,61812
1685.99,0.091230,63520,51485
1688.87,0.096135,53714,43048
1691.75,0.099264,45653,36325
1694.62,0.103656,39137,30827
1697.49,0.108735,33776,26295
1701.31,0.114707,28175,21635

File: Column 1_050560_20150331_120447.csv
Method:,Column 1,,
Host Date-Time:,31/3/15 @ 12:4:47,,
Header Version:,1,,
System Temp (C):,33.7,,
Detector Temp (C):,33.24,,
Humidity (%):,2.15,,
Lamp PD:,3819,,
Shift Vector Coefficients:,-10.5391,0.0761263,-0.000134223,,
Pixel to Wavelength Coefficients:,1775.68,-0.916766,-0.000235065,,
Serial Number:,5510004,,
Scan Config Name:,Column 1,,
Scan Config Type:,Slew,,
Section 1,,
Start wavelength (nm):,900,,
End wavelength (nm):,1700,,
Pattern Pixel Width (nm):,   7.03,,,,
Exposure (ms):,  0.635,,,,
Digital Resolution:,228,,
Num Repeats:,6,,
PGA Gain:,64,,
Total Measurement Time in sec:,  2.692,,
Wavelength (nm),Absorbance (AU),Reference Signal (unitless),Sample Signal (unitless)
901.51,0.033597,108485,100409
905.376,0.041681,121306,110205
909.237,0.042482,131909,119617
913.095,0.042848,143299,129836
916.948,0.045136,156982,141486
922.079,0.045276,179937,162123
925.923,0.046993,200504,179941
929.762,0.047382,222660,199646
933.597,0.047705,244426,218999
937.427,0.046896,263972,236953
941.254,0.047190,281845,252825
945.076,0.046714,297271,266955
950.165,0.046916,315605,283288
953.978,0.046109,328029,294987
957.786,0.046257,340470,306071
961.59,0.047020,352317,316165
965.389,0.046949,363056,325855
969.185,0.046811,373162,335032
972.976,0.047306,382632,343143
976.763,0.047805,391202,350426
981.806,0.047611,400190,358637
985.583,0.049101,406088,362676
989.355,0.049215,410162,366219
993.124,0.050503,412868,367543
996.888,0.050656,414263,368655
1000.65,0.051549,415476,368975
1004.4,0.052608,415479,368079
1009.41,0.053837,414358,366049
1013.15,0.054621,412923,364123
1016.89,0.055425,411526,362220
1020.63,0.054540,409066,360789
1024.36,0.055224,406777,358206
1028.09,0.054806,404427,356479
1031.82,0.054560,401911,354462
1036.78,0.053936,398410,351880
1040.49,0.053907,396204,349955
1044.2,0.053586,394236,348474
1047.91,0.052986,392042,347014
1051.61,0.052709,389823,345270
1055.31,0.052033,388234,344398
1059,0.051105,387599,344570
1063.92,0.050368,386688,344344
1067.61,0.049689,386598,344803
1071.29,0.049264,387377,345836
1074.96,0.048755,388536,347277
1078.63,0.047887,389855,349153
1082.3,0.046499,391215,351493
1085.96,0.046303,393215,353449
1090.84,0.045939,396270,356494
1094.49,0.045793,398760,358855
1098.14,0.045225,400987,361331
1101.79,0.044311,403477,364341
1105.43,0.044705,406116,366391
1109.06,0.044522,407701,367976
1112.7,0.044179,409859,370216
1117.53,0.044205,412494,372574
1121.15,0.045079,414909,374002
1124.77,0.045555,416559,375078
1128.38,0.046670,418532,375888
1131.99,0.048223,419956,375821
1135.6,0.050223,421946,375867
1139.2,0.052502,423881,375614
1143.99,0.054656,426786,376317
1147.58,0.055500,428617,377198
1151.17,0.056309,431169,378738
1154.75,0.057768,433579,379577
1158.33,0.059922,436264,380038
1161.91,0.061479,439132,381168
1165.48,0.064180,442389,381614
1169.04,0.066841,446101,382465
1173.79,0.070556,451929,384162
1177.34,0.073238,456026,385258
1180.9,0.075236,461306,387930
1184.44,0.077228,467657,391471
1187.99,0.077965,473969,396082
1191.52,0.077630,479856,401311
1195.06,0.077259,487372,407945
1199.76,0.076192,497347,417318
1203.29,0.075408,504311,423926
1206.81,0.074757,511507,430620
1210.33,0.073706,519078,438053
1213.84,0.072968,527163,445633
1217.35,0.072654,534208,451915
1220.85,0.071252,540472,458692
1225.51,0.070796,549929,467208
1229.01,0.070082,556888,473899
1232.5,0.069412,562180,479141
1235.98,0.068699,567975,484875
1239.46,0.067788,574815,491745
1242.94,0.066825,582782,499667
1246.41,0.066133,591476,507930
1251.03,0.065938,604016,518932
1254.5,0.066260,612289,525650
1257.96,0.066560,619125,531151
1261.41,0.067490,624551,534660
1264.86,0.067980,629900,538631
1268.31,0.068507,634345,541774
1271.75,0.069109,638574,544631
1276.33,0.069585,642499,547378
1279.76,0.069447,645905,550455
1283.19,0.068658,648307,553507
1286.61,0.068492,650446,555545
1290.03,0.068056,652132,557544
1293.44,0.067980,653907,559160
1296.85,0.067373,655963,561703
1301.39,0.067521,657349,562698
1304.8,0.067171,657558,563330
1308.19,0.067642,658515,563538
1311.58,0.067657,658804,563766
1314.97,0.068285,659011,563129
1318.36,0.068725,658272,561928
1321.73,0.068765,658022,561662
1326.23,0.070039,657870,559888
1329.6,0.070659,656482,557910
1332.97,0.071922,654926,554971
1336.33,0.073237,653727,552280
1339.69,0.074825,652497,549229
1343.04,0.076922,649913,544419
1346.39,0.079007,647671,539943
1349.73,0.080907,645338,535649
1354.18,0.084599,641175,527688
1357.52,0.086709,638376,522838
1360.85,0.088778,635805,518258
1364.17,0.090917,633413,513772
1367.49,0.093394,631026,508924
1370.81,0.095878,628050,503635
1374.12,0.098261,625034,498474
1378.54,0.101833,620272,490625
1381.84,0.105832,616892,483478
1385.14,0.109598,613613,476756
1388.43,0.114125,611526,470208
1391.72,0.119042,610663,464258
1395.01,0.124237,610634,458716
1398.29,0.129502,611700,453980
1402.66,0.136939,614051,447987
1405.93,0.142780,616268,443598
1409.2,0.148307,617795,439074
1412.46,0.154017,618872,434094
1415.72,0.158719,619795,430060
1418.98,0.162573,620495,426742
1422.23,0.166833,621087,422980
1426.56,0.171214,621375,418928
1429.8,0.173273,621616,417109
1433.04,0.176479,622129,414383
1436.27,0.178771,621526,411802
1439.5,0.181049,621113,409375
1442.72,0.183754,620921,406708
1445.94,0.186168,620270,404029
1450.23,0.190233,618860,399355
1453.44,0.193122,617697,395962
1456.64,0.196264,616264,392196
1459.85,0.198805,614413,388737
1463.04,0.201730,612307,384804
1466.24,0.205045,610032,380459
1469.43,0.208278,607345,375974
1473.67,0.214059,603789,368830
1476.85,0.219747,601175,362455
1480.02,0.225087,597737,355978
1483.19,0.232005,594479,348443
1486.36,0.238061,591232,341741
1489.52,0.243198,587853,335792
1492.68,0.246771,583875,330787
1496.89,0.248393,578062,326273
1500.03,0.249873,574159,322968
1503.18,0.249912,570285,320760
1506.32,0.249003,565444,318703
1509.45,0.247426,560571,317106
1512.58,0.245857,555821,315557
1515.71,0.243290,550344,314300
1519.87,0.240521,543983,312654
1522.99,0.237290,538764,311967
1526.1,0.234949,533692,310700
1529.21,0.231644,527902,309677
1532.32,0.228764,521886,308185
1535.42,0.225850,515888,306694
1538.51,0.223209,509987,305035
1541.6,0.219455,503936,304033
1545.72,0.215356,494694,301287
1548.8,0.211697,488378,299957
1551.88,0.208554,481832,298086
1554.95,0.207331,474989,294681
1558.02,0.205179,467818,291674
1561.08,0.203542,460730,288340
1564.15,0.203445,454170,284298
1568.22,0.203098,444181,278267
1571.27,0.201112,436947,274990
1574.32,0.200694,429598,270625
1577.36,0.199380,422039,266669
1580.4,0.197849,414375,262751
1583.43,0.195209,406354,259236
1586.46,0.193922,398475,254964
1590.49,0.192269,388982,249839
1593.51,0.189807,380708,245915
1596.53,0.187649,372727,241959
1599.54,0.185457,365060,238181
1602.55,0.183295,357543,234441
1605.55,0.180455,349495,230667
1608.55,0.178692,341154,226078
1612.54,0.175377,330877,220948
1615.53,0.174421,322904,216099
1618.51,0.172875,315116,211639
1621.49,0.171987,307217,206756
1624.47,0.171571,299481,201743
1627.44,0.170143,292112,197427
1630.41,0.168647,284245,192773
1634.36,0.166278,274079,186895
1637.32,0.166578,266916,181885
1640.27,0.164606,259612,177713
1643.22,0.163720,251804,172720
1646.16,0.163753,244348,167593
1649.1,0.162896,236703,162670
1652.04,0.161002,228171,157492
1655.95,0.158113,215408,149675
1658.88,0.156354,204937,142977
1661.8,0.152546,193395,136113
1664.72,0.144929,179728,128732
1667.63,0.137331,163642,119279
1670.54,0.125541,146312,109582
1673.44,0.113554,128451,98897
1677.31,0.100609,105080,83351
1680.21,0.090352,88906,72207
1683.1,0.091384,75033,60795
1685.99,0.095204,63520,51016
1688.87,0.097458,53714,42917
1691.75,0.099718,45653,36287
1694.62,0.110916,39137,30316
1697.49,0.113969,33776,25980
1701.31,0.124451,28175,21155

File: Column 1_050560_20150331_120450.csv
Method:,Column 1,,
Host Date-Time:,31/3/15 @ 12:4:50,,
Header Version:,1,,
System Temp (C):,33.71,,
Detector Temp (C):,33.22,,
Humidity (%):,2.15,,
Lamp PD:,3820,,
Shift Vector Coefficients:,-10.5391,0.0761263,-0.000134223,,
Pixel to Wavelength Coefficients:,1775.68,-0.916766,-0.000235065,,
Serial Number:,5510004,,
Scan Config Name:,Column 1,,
Scan Config Type:,Slew,,
Section 1,,
Start wavelength (nm):,900,,
End wavelength (nm):,1700,,
Pattern Pixel Width (nm):,   7.03,,,,
Exposure (ms):,  0.635,,,,
Digital Resolution:,228,,
Num Repeats:,6,,
PGA Gain:,64,,
Total Measurement Time in sec:,  2.670,,
Wavelength (nm),Absorbance (AU),Reference Signal (unitless),Sample Signal (unitless)
901.51,0.034086,108485,100296
905.376,0.040045,121306,110621
909.237,0.041810,131909,119802
913.095,0.042470,143299,129949
916.948,0.042465,156982,142359
922.079,0.045214,179937,162146
925.923,0.045468,200504,180574
929.762,0.046226,222660,200178
933.597,0.047789,244426,218957
937.427,0.046791,263972,237010
941.254,0.046178,281845,253415
945.076,0.045850,297271,267487
950.165,0.045908,315605,283946
953.978,0.044935,328029,295786
957.786,0.045164,340470,306842
961.59,0.046600,352317,316471
965.389,0.046355,363056,326301
969.185,0.046363,373162,335378
972.976,0.046884,382632,343477
976.763,0.047438,391202,350722
981.806,0.047795,400190,358485
985.583,0.048614,406088,363083
989.355,0.049026,410162,366378
993.124,0.049827,412868,368116
996.888,0.050173,414263,369065
1000.65,0.051043,415476,369405
1004.4,0.051887,415479,368691
1009.41,0.053680,414358,366181
1013.15,0.053938,412923,364696
1016.89,0.054980,411526,362591
1020.63,0.054898,409066,360492
1024.36,0.054904,406777,358470
1028.09,0.054474,404427,356752
1031.82,0.054107,401911,354832
1036.78,0.053225,398410,352456
1040.49,0.052742,396204,350895
1044.2,0.053014,394236,348933
1047.91,0.052779,392042,347179
1051.61,0.051837,389823,345964
1055.31,0.051389,388234,344909
1059,0.050974,387599,344674
1063.92,0.049632,386688,344928
1067.61,0.048848,386598,345471
1071.29,0.049221,387377,345870
1074.96,0.048418,388536,347547
1078.63,0.047870,389855,349167
1082.3,0.047063,391215,351037
1085.96,0.046341,393215,353418
1090.84,0.045496,396270,356858
1094.49,0.044956,398760,359547
1098.14,0.044698,400987,361770
1101.79,0.044341,403477,364316
1105.43,0.044597,406116,366482
1109.06,0.043590,407701,368767
1112.7,0.044302,409859,370111
1117.53,0.044001,412494,372749
1121.15,0.044995,414909,374074
1124.77,0.045573,416559,375062
1128.38,0.046437,418532,376090
1131.99,0.048025,419956,375992
1135.6,0.050078,421946,375992
1139.2,0.051602,423881,376393
1143.99,0.054158,426786,376749
1147.58,0.054820,428617,377789
1151.17,0.056556,431169,378522
1154.75,0.057684,433579,379651
1158.33,0.059321,436264,380565
1161.91,0.061402,439132,381235
1165.48,0.063972,442389,381797
1169.04,0.066530,446101,382739
1173.79,0.070128,451929,384541
1177.34,0.072496,456026,385917
1180.9,0.074928,461306,388205
1184.44,0.076453,467657,392170
1187.99,0.077438,473969,396563
1191.52,0.076796,479856,402082
1195.06,0.077064,487372,408128
1199.76,0.076132,497347,417376
1203.29,0.075430,504311,423905
1206.81,0.074348,511507,431026
1210.33,0.073643,519078,438117
1213.84,0.072927,527163,445675
1217.35,0.071930,534208,452669
1220.85,0.071304,540472,458637
1225.51,0.070366,549929,467671
1229.01,0.069690,556888,474327
1232.5,0.068925,562180,479679
1235.98,0.068703,567975,484871
1239.46,0.067623,574815,491932
1242.94,0.066490,582782,500053
1246.41,0.066152,591476,507908
1251.03,0.065585,604016,519354
1254.5,0.065555,612289,526504
1257.96,0.066195,619125,531598
1261.41,0.067044,624551,535210
1264.86,0.067432,629900,539311
1268.31,0.068309,634345,542022
1271.75,0.068992,638574,544778
1276.33,0.069132,642499,547950
1279.76,0.069427,645905,550480
1283.19,0.068524,648307,553677
1286.61,0.068122,650446,556018
1290.03,0.067558,652132,558184
1293.44,0.067467,653907,559821
1296.85,0.067544,655963,561482
1301.39,0.066908,657349,563492
1304.8,0.067031,657558,563512
1308.19,0.067482,658515,563746
1311.58,0.067503,658804,563967
1314.97,0.067901,659011,563627
1318.36,0.068450,658272,562283
1321.73,0.068926,658022,561454
1326.23,0.069601,657870,560453
1329.6,0.071007,656482,557463
1332.97,0.071521,654926,555484
1336.33,0.073387,653727,552089
1339.69,0.074798,652497,549263
1343.04,0.076480,649913,544973
1346.39,0.078910,647671,540063
1349.73,0.080649,645338,535967
1354.18,0.084139,641175,528248
1357.52,0.086411,638376,523197
1360.85,0.088643,635805,518419
1364.17,0.090758,633413,513960
1367.49,0.093470,631026,508835
1370.81,0.095807,628050,503718
1374.12,0.098415,625034,498297
1378.54,0.101548,620272,490946
1381.84,0.105321,616892,484048
1385.14,0.109206,613613,477187
1388.43,0.113570,611526,470809
1391.72,0.118204,610663,465155
1395.01,0.123644,610634,459343
1398.29,0.128997,611700,454508
1402.66,0.136430,614051,448512
1405.93,0.142648,616268,443733
1409.2,0.148197,617795,439185
1412.46,0.153357,618872,434754
1415.72,0.158152,619795,430622
1418.98,0.162469,620495,426844
1422.23,0.166217,621087,423580
1426.56,0.170512,621375,419606
1429.8,0.173399,621616,416988
1433.04,0.176380,622129,414477
1436.27,0.178771,621526,411802
1439.5,0.180355,621113,410030
1442.72,0.183491,620921,406954
1445.94,0.186091,620270,404101
1450.23,0.189504,618860,400026
1453.44,0.192234,617697,396772
1456.64,0.195004,616264,393335
1459.85,0.198847,614413,388699
1463.04,0.200913,612307,385528
1466.24,0.204872,610032,380610
1469.43,0.207340,607345,376787
1473.67,0.214100,603789,368795
1476.85,0.219103,601175,362993
1480.02,0.225002,597737,356048
1483.19,0.231855,594479,348563
1486.36,0.237365,591232,342289
1489.52,0.241707,587853,336947
1492.68,0.246087,583875,331309
1496.89,0.248533,578062,326168
1500.03,0.249119,574159,323529
1503.18,0.248876,570285,321526
1506.32,0.248100,565444,319367
1509.45,0.247375,560571,317143
1512.58,0.245616,555821,315732
1515.71,0.243168,550344,314388
1519.87,0.239374,543983,313481
1522.99,0.237025,538764,312157
1526.1,0.234075,533692,311326
1529.21,0.231248,527902,309960
1532.32,0.228759,521886,308189
1535.42,0.224616,515888,307567
1538.51,0.222585,509987,305474
1541.6,0.218675,503936,304579
1545.72,0.214568,494694,301834
1548.8,0.210962,488378,300465
1551.88,0.209215,481832,297633
1554.95,0.206642,474989,295149
1558.02,0.205010,467818,291788
1561.08,0.203847,460730,288137
1564.15,0.202820,454170,284707
1568.22,0.201683,444181,279175
1571.27,0.200539,436947,275353
1574.32,0.199425,429598,271417
1577.36,0.198588,422039,267156
1580.4,0.196872,414375,263343
1583.43,0.194990,406354,259367
1586.46,0.193599,398475,255154
1590.49,0.191533,388982,250263
1593.51,0.189260,380708,246225
1596.53,0.186830,372727,242416
1599.54,0.184479,365060,238718
1602.55,0.182802,357543,234707
1605.55,0.179282,349495,231291
1608.55,0.177965,341154,226457
1612.54,0.175939,330877,220662
1615.53,0.174184,322904,216217
1618.51,0.172495,315116,211824
1621.49,0.171064,307217,207196
1624.47,0.169284,299481,202808
1627.44,0.168685,292112,198091
1630.41,0.168201,284245,192971
1634.36,0.165774,274079,187112
1637.32,0.165552,266916,182315
1640.27,0.164422,259612,177788
1643.22,0.163705,251804,172726
1646.16,0.162653,244348,168018
1649.1,0.161934,236703,163031
1652.04,0.160330,228171,157736
1655.95,0.158110,215408,149676
1658.88,0.154808,204937,143487
1661.8,0.151039,193395,136586
1664.72,0.145284,179728,128627
1667.63,0.136472,163642,119515
1670.54,0.126298,146312,109391
1673.44,0.113370,128451,98939
1677.31,0.100016,105080,83465
1680.21,0.092698,88906,71818
1683.1,0.088267,75033,61233
1685.99,0.091255,63520,51482
1688.87,0.091668,53714,43493
1691.75,0.103795,45653,35948
1694.62,0.104178,39137,30790
1697.49,0.107580,33776,26365
1701.31,0.108924,28175,21925