Folder: textile_sorting_NIRSCAN_/samples/wool/wool-000811 (part 109)

File: Column 1_050591_20150331_121924.csv
Method:,Column 1,,
Host Date-Time:,31/3/15 @ 12:19:24,,
Header Version:,1,,
System Temp (C):,33.89,,
Detector Temp (C):,34.56,,
Humidity (%):,1.81,,
Lamp PD:,3818,,
Shift Vector Coefficients:,-10.5391,0.0761263,-0.000134223,,
Pixel to Wavelength Coefficients:,1775.68,-0.916766,-0.000235065,,
Serial Number:,5510004,,
Scan Config Name:,Column 1,,
Scan Config Type:,Slew,,
Section 1,,
Start wavelength (nm):,900,,
End wavelength (nm):,1700,,
Pattern Pixel Width (nm):,   7.03,,,,
Exposure (ms):,  0.635,,,,
Digital Resolution:,228,,
Num Repeats:,6,,
PGA Gain:,64,,
Total Measurement Time in sec:,  2.727,,
Wavelength (nm),Absorbance (AU),Reference Signal (unitless),Sample Signal (unitless)
901.51,0.069186,108485,92509
905.376,0.075078,121306,102048
909.237,0.077046,131909,110466
913.095,0.078047,143299,119728
916.948,0.080362,156982,130463
922.079,0.080790,179937,149393
925.923,0.082012,200504,166001
929.762,0.083706,222660,183627
933.597,0.082579,244426,202101
937.427,0.082204,263972,218451
941.254,0.080809,281845,233992
945.076,0.080217,297271,247136
950.165,0.079753,315605,262658
953.978,0.077870,328029,274184
957.786,0.079483,340470,283528
961.59,0.079595,352317,293318
965.389,0.078877,363056,302759
969.185,0.078957,373162,311129
972.976,0.079026,382632,318974
976.763,0.080113,391202,325303
981.806,0.079702,400190,333092
985.583,0.080612,406088,337294
989.355,0.081475,410162,340001
993.124,0.081605,412868,342142
996.888,0.081964,414263,343014
1000.65,0.083113,415476,343110
1004.4,0.084302,415479,342174
1009.41,0.085379,414358,340406
1013.15,0.086513,412923,338342
1016.89,0.086757,411526,337008
1020.63,0.085532,409066,335940
1024.36,0.085949,406777,333739
1028.09,0.085622,404427,332061
1031.82,0.085575,401911,330031
1036.78,0.085400,398410,327288
1040.49,0.084989,396204,325784
1044.2,0.085176,394236,324026
1047.91,0.084894,392042,322432
1051.61,0.084047,389823,321233
1055.31,0.084020,388234,319944
1059,0.084700,387599,318921
1063.92,0.082829,386688,319545
1067.61,0.082473,386598,319732
1071.29,0.082516,387377,320345
1074.96,0.081261,388536,322233
1078.63,0.081099,389855,323448
1082.3,0.080034,391215,325373
1085.96,0.079834,393215,327187
1090.84,0.078745,396270,330557
1094.49,0.078082,398760,333142
1098.14,0.077549,400987,335414
1101.79,0.076399,403477,338392
1105.43,0.076811,406116,340282
1109.06,0.076111,407701,342161
1112.7,0.075527,409859,344435
1117.53,0.074552,412494,347429
1121.15,0.075574,414909,348641
1124.77,0.076034,416559,349657
1128.38,0.076866,418532,350641
1131.99,0.077312,419956,351473
1135.6,0.079250,421946,351566
1139.2,0.080170,423881,352431
1143.99,0.082266,426786,353138
1147.58,0.083287,428617,353820
1151.17,0.084522,431169,354916
1154.75,0.085557,433579,356050
1158.33,0.087034,436264,357039
1161.91,0.087947,439132,358631
1165.48,0.090437,442389,359226
1169.04,0.093169,446101,359968
1173.79,0.095911,451929,362376
1177.34,0.097940,456026,363957
1180.9,0.100064,461306,366374
1184.44,0.101818,467657,369921
1187.99,0.102775,473969,374089
1191.52,0.103538,479856,378071
1195.06,0.103075,487372,384402
1199.76,0.102683,497347,392624
1203.29,0.101480,504311,399226
1206.81,0.101479,511507,404923
1210.33,0.100093,519078,412230
1213.84,0.099985,527163,418755
1217.35,0.099184,534208,425135
1220.85,0.098561,540472,430737
1225.51,0.098245,549929,438593
1229.01,0.097821,556888,444577
1232.5,0.096624,562180,450040
1235.98,0.096300,567975,455019
1239.46,0.095115,574815,461757
1242.94,0.094615,582782,468696
1246.41,0.093733,591476,476655
1251.03,0.093772,604016,486717
1254.5,0.093604,612289,493574
1257.96,0.094274,619125,498316
1261.41,0.094722,624551,502164
1264.86,0.095559,629900,505490
1268.31,0.095638,634345,508965
1271.75,0.096839,638574,510943
1276.33,0.096929,642499,513977
1279.76,0.096417,645905,517311
1283.19,0.096050,648307,519674
1286.61,0.095845,650446,521635
1290.03,0.095268,652132,523682
1293.44,0.094673,653907,525827
1296.85,0.095149,655963,526902
1301.39,0.094607,657349,528675
1304.8,0.094512,657558,528959
1308.19,0.094486,658515,529761
1311.58,0.095174,658804,529154
1314.97,0.095246,659011,529233
1318.36,0.095764,658272,528009
1321.73,0.095910,658022,527631
1326.23,0.096757,657870,526481
1329.6,0.098141,656482,523699
1332.97,0.098575,654926,521936
1336.33,0.100135,653727,519113
1339.69,0.101253,652497,516803
1343.04,0.103060,649913,512620
1346.39,0.105008,647671,508565
1349.73,0.106645,645338,504827
1354.18,0.110033,641175,497673
1357.52,0.111638,638376,493672
1360.85,0.114042,635805,488970
1364.17,0.115833,633413,485125
1367.49,0.118255,631026,480609
1370.81,0.120729,628050,475626
1374.12,0.122835,625034,471052
1378.54,0.125355,620272,464758
1381.84,0.128134,616892,459277
1385.14,0.132220,613613,452558
1388.43,0.135445,611526,447682
1391.72,0.140413,610663,441966
1395.01,0.145000,610634,437302
1398.29,0.149933,611700,433117
1402.66,0.156714,614051,428046
1405.93,0.161894,616268,424498
1409.2,0.166481,617795,421079
1412.46,0.171440,618872,417024
1415.72,0.175919,619795,413361
1418.98,0.179180,620495,410732
1422.23,0.182817,621087,407695
1426.56,0.187061,621375,403918
1429.8,0.189191,621616,402097
1433.04,0.192631,622129,399254
1436.27,0.194526,621526,397131
1439.5,0.196426,621113,395134
1442.72,0.198649,620921,392995
1445.94,0.200780,620270,390662
1450.23,0.204779,618860,386201
1453.44,0.206959,617697,383545
1456.64,0.209907,616264,380067
1459.85,0.211900,614413,377190
1463.04,0.215196,612307,373055
1466.24,0.218476,610032,368873
1469.43,0.222122,607345,364178
1473.67,0.227592,603789,357514
1476.85,0.232671,601175,351828
1480.02,0.238457,597737,345186
1483.19,0.244059,594479,338905
1486.36,0.249769,591232,332651
1489.52,0.254442,587853,327210
1492.68,0.257711,583875,322559
1496.89,0.259173,578062,318274
1500.03,0.259760,574159,315698
1503.18,0.259753,570285,313573
1506.32,0.259554,565444,311054
1509.45,0.258380,560571,309208
1512.58,0.256171,555821,308151
1515.71,0.253770,550344,306806
1519.87,0.250493,543983,305557
1522.99,0.249270,538764,303479
1526.1,0.246182,533692,302767
1529.21,0.242903,527902,301752
1532.32,0.239426,521886,300711
1535.42,0.236759,515888,299086
1538.51,0.235022,509987,296850
1541.6,0.231988,503936,295384
1545.72,0.227536,494694,292955
1548.8,0.225094,488378,290845
1551.88,0.222950,481832,288367
1554.95,0.220305,474989,286008
1558.02,0.218076,467818,283140
1561.08,0.218119,460730,278822
1564.15,0.217128,454170,275480
1568.22,0.215738,444181,270285
1571.27,0.216127,436947,265645
1574.32,0.214340,429598,262254
1577.36,0.213369,422039,258216
1580.4,0.212122,414375,254256
1583.43,0.210216,406354,250431
1586.46,0.208901,398475,246320
1590.49,0.207442,388982,241261
1593.51,0.205003,380708,237459
1596.53,0.203080,372727,233513
1599.54,0.201324,365060,229636
1602.55,0.199358,357543,225928
1605.55,0.197848,349495,221612
1608.55,0.195192,341154,217650
1612.54,0.193443,330877,211945
1615.53,0.192594,322904,207243
1618.51,0.190953,315116,203010
1621.49,0.189409,307217,198626
1624.47,0.187988,299481,194259
1627.44,0.187326,292112,189768
1630.41,0.186782,284245,184889
1634.36,0.185333,274079,178872
1637.32,0.184385,266916,174578
1640.27,0.184300,259612,169834
1643.22,0.183387,251804,165073
1646.16,0.182055,244348,160677
1649.1,0.180345,236703,156264
1652.04,0.179462,228171,150938
1655.95,0.175334,215408,143856
1658.88,0.173182,204937,137543
1661.8,0.168677,193395,131150
1664.72,0.160284,179728,124260
1667.63,0.146969,163642,116661
1670.54,0.133702,146312,107542
1673.44,0.116692,128451,98185
1677.31,0.101245,105080,83229
1680.21,0.085222,88906,73065
1683.1,0.083435,75033,61918
1685.99,0.081702,63520,52627
1688.87,0.086566,53714,44007
1691.75,0.090834,45653,37037
1694.62,0.097474,39137,31269
1697.49,0.096024,33776,27076
1701.31,0.112145,28175,21763

File: Column 1_050591_20150331_121933.csv
Method:,Column 1,,
Host Date-Time:,31/3/15 @ 12:19:33,,
Header Version:,1,,
System Temp (C):,33.88,,
Detector Temp (C):,34.64,,
Humidity (%):,1.81,,
Lamp PD:,3819,,
Shift Vector Coefficients:,-10.5391,0.0761263,-0.000134223,,
Pixel to Wavelength Coefficients:,1775.68,-0.916766,-0.000235065,,
Serial Number:,5510004,,
Scan Config Name:,Column 1,,
Scan Config Type:,Slew,,
Section 1,,
Start wavelength (nm):,900,,
End wavelength (nm):,1700,,
Pattern Pixel Width (nm):,   7.03,,,,
Exposure (ms):,  0.635,,,,
Digital Resolution:,228,,
Num Repeats:,6,,
PGA Gain:,64,,
Total Measurement Time in sec:,  2.684,,
Wavelength (nm),Absorbance (AU),Reference Signal (unitless),Sample Signal (unitless)
901.51,0.069129,108485,92521
905.376,0.075521,121306,101944
909.237,0.078215,131909,110169
913.095,0.078363,143299,119641
916.948,0.079202,156982,130812
922.079,0.081582,179937,149121
925.923,0.082426,200504,165843
929.762,0.082494,222660,184140
933.597,0.083452,244426,201695
937.427,0.081655,263972,218727
941.254,0.080956,281845,233913
945.076,0.079835,297271,247353
950.165,0.079140,315605,263029
953.978,0.078776,328029,273613
957.786,0.079065,340470,283801
961.59,0.079306,352317,293513
965.389,0.078227,363056,303212
969.185,0.079006,373162,311094
972.976,0.079324,382632,318755
976.763,0.080062,391202,325341
981.806,0.080031,400190,332840
985.583,0.080905,406088,337066
989.355,0.081510,410162,339974
993.124,0.082038,412868,341801
996.888,0.082676,414263,342452
1000.65,0.082658,415476,343469
1004.4,0.084004,415479,342409
1009.41,0.085694,414358,340159
1013.15,0.086054,412923,338700
1016.89,0.086393,411526,337291
1020.63,0.085609,409066,335880
1024.36,0.086304,406777,333467
1028.09,0.086304,404427,331540
1031.82,0.085950,401911,329746
1036.78,0.086065,398410,326787
1040.49,0.084617,396204,326063
1044.2,0.085428,394236,323838
1047.91,0.085250,392042,322168
1051.61,0.084588,389823,320833
1055.31,0.084521,388234,319575
1059,0.083959,387599,319465
1063.92,0.082584,386688,319725
1067.61,0.082233,386598,319909
1071.29,0.082351,387377,320467
1074.96,0.081667,388536,321932
1078.63,0.081078,389855,323463
1082.3,0.080599,391215,324950
1085.96,0.079541,393215,327408
1090.84,0.078577,396270,330685
1094.49,0.078350,398760,332937
1098.14,0.077602,400987,335373
1101.79,0.076822,403477,338062
1105.43,0.076595,406116,340451
1109.06,0.075868,407701,342353
1112.7,0.075937,409859,344110
1117.53,0.075612,412494,346582
1121.15,0.076051,414909,348259
1124.77,0.075550,416559,350047
1128.38,0.076722,418532,350757
1131.99,0.077889,419956,351006
1135.6,0.079626,421946,351262
1139.2,0.080939,423881,351807
1143.99,0.082768,426786,352730
1147.58,0.083094,428617,353977
1151.17,0.084751,431169,354729
1154.75,0.085528,433579,356074
1158.33,0.087376,436264,356758
1161.91,0.088460,439132,358208
1165.48,0.090799,442389,358926
1169.04,0.092887,446101,360202
1173.79,0.096542,451929,361850
1177.34,0.098682,456026,363335
1180.9,0.100468,461306,366034
1184.44,0.101881,467657,369868
1187.99,0.103459,473969,373500
1191.52,0.102997,479856,378542
1195.06,0.103437,487372,384082
1199.76,0.102557,497347,392738
1203.29,0.102066,504311,398687
1206.81,0.101230,511507,405155
1210.33,0.100406,519078,411933
1213.84,0.100128,527163,418617
1217.35,0.099530,534208,424796
1220.85,0.098448,540472,430849
1225.51,0.097756,549929,439087
1229.01,0.097638,556888,444764
1232.5,0.097909,562180,448711
1235.98,0.096831,567975,454463
1239.46,0.095453,574815,461397
1242.94,0.094368,582782,468963
1246.41,0.094027,591476,476332
1251.03,0.093991,604016,486472
1254.5,0.094153,612289,492951
1257.96,0.094396,619125,498176
1261.41,0.095024,624551,501815
1264.86,0.095460,629900,505605
1268.31,0.095764,634345,508817
1271.75,0.097041,638574,510705
1276.33,0.096787,642499,514145
1279.76,0.096398,645905,517333
1283.19,0.095932,648307,519815
1286.61,0.095580,650446,521953
1290.03,0.095664,652132,523205
1293.44,0.095036,653907,525388
1296.85,0.094821,655963,527301
1301.39,0.094776,657349,528470
1304.8,0.094557,657558,528904
1308.19,0.094894,658515,529263
1311.58,0.094494,658804,529983
1314.97,0.095325,659011,529137
1318.36,0.096061,658272,527648
1321.73,0.096309,658022,527147
1326.23,0.097064,657870,526109
1329.6,0.098112,656482,523734
1332.97,0.099030,654926,521390
1336.33,0.100333,653727,518876
1339.69,0.101672,652497,516305
1343.04,0.103169,649913,512491
1346.39,0.105087,647671,508473
1349.73,0.107064,645338,504340
1354.18,0.109952,641175,497765
1357.52,0.111959,638376,493307
1360.85,0.114008,635805,489008
1364.17,0.116131,633413,484793
1367.49,0.118428,631026,480418
1370.81,0.120578,628050,475791
1374.12,0.122446,625034,471474
1378.54,0.125603,620272,464493
1381.84,0.128427,616892,458968
1385.14,0.132165,613613,452616
1388.43,0.136154,611526,446952
1391.72,0.140362,610663,442018
1395.01,0.144546,610634,437759
1398.29,0.149661,611700,433389
1402.66,0.156736,614051,428024
1405.93,0.161619,616268,424767
1409.2,0.166864,617795,420708
1412.46,0.171742,618872,416734
1415.72,0.175906,619795,413373
1418.98,0.179856,620495,410093
1422.23,0.182633,621087,407868
1426.56,0.187027,621375,403949
1429.8,0.189697,621616,401629
1433.04,0.192342,622129,399520
1436.27,0.194241,621526,397391
1439.5,0.196203,621113,395337
1442.72,0.198349,620921,393267
1445.94,0.200755,620270,390684
1450.23,0.204389,618860,386548
1453.44,0.207025,617697,383487
1456.64,0.209712,616264,380237
1459.85,0.212910,614413,376314
1463.04,0.215505,612307,372790
1466.24,0.218174,610032,369129
1469.43,0.221691,607345,364539
1473.67,0.227133,603789,357892
1476.85,0.233092,601175,351487
1480.02,0.238363,597737,345261
1483.19,0.243916,594479,339016
1486.36,0.250117,591232,332385
1489.52,0.254243,587853,327360
1492.68,0.257333,583875,322840
1496.89,0.260124,578062,317578
1500.03,0.260099,574159,315452
1503.18,0.260373,570285,313126
1506.32,0.258909,565444,311516
1509.45,0.257955,560571,309511
1512.58,0.256472,555821,307938
1515.71,0.254208,550344,306497
1519.87,0.250564,543983,305507
1522.99,0.248947,538764,303705
1526.1,0.246446,533692,302583
1529.21,0.243426,527902,301389
1532.32,0.240288,521886,300115
1535.42,0.238157,515888,298125
1538.51,0.234981,509987,296878
1541.6,0.231856,503936,295474
1545.72,0.227892,494694,292715
1548.8,0.224510,488378,291237
1551.88,0.222583,481832,288611
1554.95,0.220656,474989,285777
1558.02,0.218664,467818,282757
1561.08,0.218042,460730,278872
1564.15,0.217269,454170,275391
1568.22,0.216142,444181,270034
1571.27,0.215464,436947,266051
1574.32,0.215259,429598,261700
1577.36,0.213800,422039,257960
1580.4,0.212503,414375,254033
1583.43,0.211328,406354,249791
1586.46,0.208886,398475,246329
1590.49,0.206887,388982,241570
1593.51,0.205627,380708,237118
1596.53,0.202996,372727,233558
1599.54,0.201701,365060,229437
1602.55,0.199431,357543,225890
1605.55,0.196748,349495,222174
1608.55,0.196343,341154,217074
1612.54,0.192807,330877,212256
1615.53,0.191771,322904,207636
1618.51,0.191128,315116,202928
1621.49,0.189562,307217,198556
1624.47,0.188216,299481,194157
1627.44,0.187723,292112,189595
1630.41,0.186716,284245,184917
1634.36,0.184892,274079,179054
1637.32,0.184721,266916,174443
1640.27,0.183863,259612,170005
1643.22,0.182609,251804,165369
1646.16,0.181377,244348,160928
1649.1,0.181369,236703,155896
1652.04,0.180361,228171,150626
1655.95,0.177422,215408,143166
1658.88,0.173896,204937,137317
1661.8,0.167916,193395,131380
1664.72,0.160155,179728,124297
1667.63,0.148640,163642,116213
1670.54,0.133484,146312,107596
1673.44,0.119070,128451,97649
1677.31,0.099761,105080,83514
1680.21,0.087074,88906,72754
1683.1,0.083470,75033,61913
1685.99,0.084193,63520,52326
1688.87,0.087999,53714,43862
1691.75,0.089978,45653,37110
1694.62,0.097654,39137,31256
1697.49,0.098759,33776,26906
1701.31,0.099810,28175,22390

File: Column 1_050592_20150331_121939.csv
Method:,Column 1,,
Host Date-Time:,31/3/15 @ 12:19:39,,
Header Version:,1,,
System Temp (C):,33.92,,
Detector Temp (C):,34.66,,
Humidity (%):,1.76,,
Lamp PD:,3819,,
Shift Vector Coefficients:,-10.5391,0.0761263,-0.000134223,,
Pixel to Wavelength Coefficients:,1775.68,-0.916766,-0.000235065,,
Serial Number:,5510004,,
Scan Config Name:,Column 1,,
Scan Config Type:,Slew,,
Section 1,,
Start wavelength (nm):,900,,
End wavelength (nm):,1700,,
Pattern Pixel Width (nm):,   7.03,,,,
Exposure (ms):,  0.635,,,,
Digital Resolution:,228,,
Num Repeats:,6,,
PGA Gain:,64,,
Total Measurement Time in sec:,  2.680,,
Wavelength (nm),Absorbance (AU),Reference Signal (unitless),Sample Signal (unitless)
901.51,0.070549,108485,92219
905.376,0.076907,121306,101619
909.237,0.076959,131909,110488
913.095,0.076751,143299,120086
916.948,0.079378,156982,130759
922.079,0.080790,179937,149393
925.923,0.082672,200504,165749
929.762,0.082529,222660,184125
933.597,0.083431,244426,201705
937.427,0.080840,263972,219138
941.254,0.081203,281845,233780
945.076,0.080369,297271,247049
950.165,0.079429,315605,262854
953.978,0.079425,328029,273204
957.786,0.078304,340470,284299
961.59,0.079690,352317,293254
965.389,0.079187,363056,302543
969.185,0.079439,373162,310784
972.976,0.079575,382632,318571
976.763,0.079890,391202,325470
981.806,0.080243,400190,332677
985.583,0.081127,406088,336894
989.355,0.081906,410162,339664
993.124,0.081640,412868,342114
996.888,0.082033,414263,342960
1000.65,0.082991,415476,343206
1004.4,0.084041,415479,342380
1009.41,0.085678,414358,340171
1013.15,0.085482,412923,339146
1016.89,0.086384,411526,337298
1020.63,0.086403,409066,335267
1024.36,0.085952,406777,333737
1028.09,0.086112,404427,331687
1031.82,0.085221,401911,330300
1036.78,0.084902,398410,327664
1040.49,0.085840,396204,325146
1044.2,0.085367,394236,323884
1047.91,0.084989,392042,322362
1051.61,0.084188,389823,321129
1055.31,0.083954,388234,319992
1059,0.083535,387599,319777
1063.92,0.082848,386688,319531
1067.61,0.082416,386598,319774
1071.29,0.081816,387377,320862
1074.96,0.081419,388536,322116
1078.63,0.081108,389855,323441
1082.3,0.080667,391215,324899
1085.96,0.078858,393215,327923
1090.84,0.078438,396270,330791
1094.49,0.077909,398760,333275
1098.14,0.077907,400987,335138
1101.79,0.076576,403477,338254
1105.43,0.076603,406116,340445
1109.06,0.075926,407701,342307
1112.7,0.075303,409859,344613
1117.53,0.074767,412494,347257
1121.15,0.075777,414909,348478
1124.77,0.076019,416559,349669
1128.38,0.077086,418532,350463
1131.99,0.077775,419956,351098
1135.6,0.079273,421946,351547
1139.2,0.080645,423881,352046
1143.99,0.082652,426786,352824
1147.58,0.082946,428617,354098
1151.17,0.084543,431169,354899
1154.75,0.085148,433579,356386
1158.33,0.086846,436264,357193
1161.91,0.088313,439132,358329
1165.48,0.090808,442389,358919
1169.04,0.092720,446101,360341
1173.79,0.096125,451929,362197
1177.34,0.098138,456026,363791
1180.9,0.100642,461306,365887
1184.44,0.102167,467657,369624
1187.99,0.103020,473969,373878
1191.52,0.102767,479856,378742
1195.06,0.102881,487372,384574
1199.76,0.102411,497347,392870
1203.29,0.101533,504311,399177
1206.81,0.101007,511507,405363
1210.33,0.100460,519078,411882
1213.84,0.100299,527163,418452
1217.35,0.099628,534208,424700
1220.85,0.098771,540472,430529
1225.51,0.098166,549929,438673
1229.01,0.097651,556888,444751
1232.5,0.096874,562180,449781
1235.98,0.095969,567975,455366
1239.46,0.094947,574815,461935
1242.94,0.094688,582782,468617
1246.41,0.093799,591476,476583
1251.03,0.093748,604016,486744
1254.5,0.093834,612289,493313
1257.96,0.094475,619125,498085
1261.41,0.095129,624551,501694
1264.86,0.095463,629900,505602
1268.31,0.095673,634345,508924
1271.75,0.096597,638574,511228
1276.33,0.096678,642499,514274
1279.76,0.096645,645905,517040
1283.19,0.095865,648307,519895
1286.61,0.095954,650446,521503
1290.03,0.095682,652132,523183
1293.44,0.094995,653907,525438
1296.85,0.094916,655963,527185
1301.39,0.094596,657349,528689
1304.8,0.094540,657558,528925
1308.19,0.094658,658515,529551
1311.58,0.094845,658804,529555
1314.97,0.095348,659011,529108
1318.36,0.095509,658272,528319
1321.73,0.095898,658022,527646
1326.23,0.097082,657870,526088
1329.6,0.097660,656482,524279
1332.97,0.098741,654926,521736
1336.33,0.099766,653727,519554
1339.69,0.101461,652497,516556
1343.04,0.102573,649913,513195
1346.39,0.105277,647671,508250
1349.73,0.106899,645338,504532
1354.18,0.109834,641175,497901
1357.52,0.111854,638376,493427
1360.85,0.113680,635805,489377
1364.17,0.115871,633413,485083
1367.49,0.118328,631026,480529
1370.81,0.120399,628050,475987
1374.12,0.122307,625034,471625
1378.54,0.124940,620272,465203
1381.84,0.128376,616892,459022
1385.14,0.131524,613613,453284
1388.43,0.135729,611526,447390
1391.72,0.140306,610663,442075
1395.01,0.144814,610634,437489
1398.29,0.149561,611700,433488
1402.66,0.155924,614051,428825
1405.93,0.161381,616268,425000
1409.2,0.166559,617795,421003
1412.46,0.171194,618872,417260
1415.72,0.175461,619795,413797
1418.98,0.179162,620495,410749
1422.23,0.182649,621087,407853
1426.56,0.186714,621375,404240
1429.8,0.188877,621616,402388
1433.04,0.191735,622129,400079
1436.27,0.193891,621526,397712
1439.5,0.196823,621113,394773
1442.72,0.198422,620921,393201
1445.94,0.200670,620270,390761
1450.23,0.203847,618860,387031
1453.44,0.206909,617697,383589
1456.64,0.209331,616264,380571
1459.85,0.212746,614413,376456
1463.04,0.215266,612307,372995
1466.24,0.217784,610032,369461
1469.43,0.221234,607345,364923
1473.67,0.227375,603789,357693
1476.85,0.232172,601175,352232
1480.02,0.237699,597737,345789
1483.19,0.243873,594479,339050
1486.36,0.249427,591232,332913
1489.52,0.254182,587853,327406
1492.68,0.257234,583875,322913
1496.89,0.259377,578062,318125
1500.03,0.260049,574159,315488
1503.18,0.260542,570285,313004
1506.32,0.259141,565444,311350
1509.45,0.258025,560571,309461
1512.58,0.256348,555821,308026
1515.71,0.253915,550344,306704
1519.87,0.251014,543983,305191
1522.99,0.248135,538764,304273
1526.1,0.245569,533692,303195
1529.21,0.243315,527902,301466
1532.32,0.240313,521886,300098
1535.42,0.237544,515888,298546
1538.51,0.234055,509987,297512
1541.6,0.232149,503936,295275
1545.72,0.227238,494694,293156
1548.8,0.224981,488378,290921
1551.88,0.222470,481832,288686
1554.95,0.221154,474989,285450
1558.02,0.218573,467818,282816
1561.08,0.218116,460730,278824
1564.15,0.216908,454170,275620
1568.22,0.216244,444181,269970
1571.27,0.215802,436947,265844
1574.32,0.214734,429598,262016
1577.36,0.213918,422039,257890
1580.4,0.212054,414375,254296
1583.43,0.210324,406354,250369
1586.46,0.208051,398475,246803
1590.49,0.206193,388982,241956
1593.51,0.205066,380708,237425
1596.53,0.203190,372727,233454
1599.54,0.201269,365060,229665
1602.55,0.198352,357543,226452
1605.55,0.197399,349495,221841
1608.55,0.195058,341154,217717
1612.54,0.193597,330877,211870
1615.53,0.190778,322904,208111
1618.51,0.190216,315116,203355
1621.49,0.189735,307217,198477
1624.47,0.188630,299481,193972
1627.44,0.186963,292112,189927
1630.41,0.186805,284245,184879
1634.36,0.184579,274079,179183
1637.32,0.182283,266916,175425
1640.27,0.184057,259612,169929
1643.22,0.183087,251804,165187
1646.16,0.182407,244348,160547
1649.1,0.181720,236703,155770
1652.04,0.179574,228171,150899
1655.95,0.175621,215408,143761
1658.88,0.171716,204937,138008
1661.8,0.165641,193395,132070
1664.72,0.159153,179728,124584
1667.63,0.148024,163642,116378
1670.54,0.133242,146312,107656
1673.44,0.118861,128451,97696
1677.31,0.097660,105080,83919
1680.21,0.084052,88906,73262
1683.1,0.082931,75033,61990
1685.99,0.084052,63520,52343
1688.87,0.082617,53714,44409
1691.75,0.090822,45653,37038
1694.62,0.092324,39137,31642
1697.49,0.102992,33776,26645
1701.31,0.102651,28175,22244