Folder: textile_sorting_NIRSCAN_/samples/wool/wool-000811 (part 83)

File: Column 1_050575_20150331_121154.csv
Method:,Column 1,,
Host Date-Time:,31/3/15 @ 12:11:54,,
Header Version:,1,,
System Temp (C):,33.77,,
Detector Temp (C):,34.48,,
Humidity (%):,2.05,,
Lamp PD:,3818,,
Shift Vector Coefficients:,-10.5391,0.0761263,-0.000134223,,
Pixel to Wavelength Coefficients:,1775.68,-0.916766,-0.000235065,,
Serial Number:,5510004,,
Scan Config Name:,Column 1,,
Scan Config Type:,Slew,,
Section 1,,
Start wavelength (nm):,900,,
End wavelength (nm):,1700,,
Pattern Pixel Width (nm):,   7.03,,,,
Exposure (ms):,  0.635,,,,
Digital Resolution:,228,,
Num Repeats:,6,,
PGA Gain:,64,,
Total Measurement Time in sec:,  2.667,,
Wavelength (nm),Absorbance (AU),Reference Signal (unitless),Sample Signal (unitless)
901.51,0.079004,108485,90441
905.376,0.083392,121306,100113
909.237,0.087756,131909,107775
913.095,0.086342,143299,117463
916.948,0.086383,156982,128667
922.079,0.089680,179937,146366
925.923,0.089637,200504,163112
929.762,0.089669,222660,181123
933.597,0.089705,244426,198812
937.427,0.089206,263972,214957
941.254,0.088623,281845,229820
945.076,0.087664,297271,242934
950.165,0.086396,315605,258671
953.978,0.086976,328029,268495
957.786,0.086973,340470,278680
961.59,0.087959,352317,287723
965.389,0.087539,363056,296780
969.185,0.087084,373162,305361
972.976,0.087796,382632,312597
976.763,0.088465,391202,319107
981.806,0.088426,400190,326468
985.583,0.089952,406088,330117
989.355,0.089519,410162,333762
993.124,0.090550,412868,335167
996.888,0.091682,414263,335424
1000.65,0.092185,415476,336017
1004.4,0.093025,415479,335370
1009.41,0.094518,414358,333317
1013.15,0.094496,412923,332180
1016.89,0.094703,411526,330898
1020.63,0.095298,409066,328470
1024.36,0.095421,406777,326539
1028.09,0.094958,404427,324999
1031.82,0.094710,401911,323162
1036.78,0.093912,398410,320936
1040.49,0.093729,396204,319293
1044.2,0.093254,394236,318055
1047.91,0.094125,392042,315651
1051.61,0.093105,389823,314603
1055.31,0.092738,388234,313585
1059,0.091835,387599,313724
1063.92,0.091567,386688,313180
1067.61,0.090661,386598,313761
1071.29,0.090589,387377,314445
1074.96,0.090066,388536,315766
1078.63,0.089002,389855,317615
1082.3,0.087795,391215,319610
1085.96,0.087560,393215,321418
1090.84,0.086303,396270,324854
1094.49,0.085360,398760,327606
1098.14,0.085216,400987,329545
1101.79,0.084420,403477,332199
1105.43,0.083915,406116,334761
1109.06,0.083793,407701,336162
1112.7,0.083466,409859,338196
1117.53,0.082780,412494,340908
1121.15,0.083249,414909,342534
1124.77,0.083326,416559,343835
1128.38,0.084217,418532,344756
1131.99,0.085477,419956,344927
1135.6,0.086887,421946,345438
1139.2,0.088375,423881,345835
1143.99,0.090383,426786,346599
1147.58,0.090697,428617,347834
1151.17,0.091691,431169,349105
1154.75,0.093056,433579,349955
1158.33,0.094452,436264,350992
1161.91,0.095934,439132,352096
1165.48,0.097848,442389,353148
1169.04,0.100229,446101,354164
1173.79,0.103397,451929,356183
1177.34,0.104954,456026,358126
1180.9,0.106453,461306,361024
1184.44,0.108825,467657,364001
1187.99,0.109143,473969,368644
1191.52,0.109601,479856,372829
1195.06,0.109180,487372,379036
1199.76,0.108228,497347,387643
1203.29,0.107615,504311,393626
1206.81,0.106971,511507,399835
1210.33,0.106668,519078,406036
1213.84,0.106302,527163,412708
1217.35,0.105171,534208,419314
1220.85,0.104548,540472,424840
1225.51,0.103812,549929,433007
1229.01,0.103508,556888,438793
1232.5,0.102716,562180,443771
1235.98,0.102698,567975,448364
1239.46,0.101662,574815,454848
1242.94,0.100437,582782,462455
1246.41,0.100116,591476,469701
1251.03,0.099973,604016,479817
1254.5,0.099850,612289,486526
1257.96,0.100453,619125,491276
1261.41,0.100789,624551,495198
1264.86,0.100990,629900,499208
1268.31,0.101181,634345,502510
1271.75,0.102346,638574,504505
1276.33,0.103086,642499,506741
1279.76,0.102560,645905,510045
1283.19,0.102546,648307,511959
1286.61,0.101596,650446,514772
1290.03,0.101348,652132,516401
1293.44,0.101035,653907,518180
1296.85,0.101138,655963,519686
1301.39,0.101105,657349,520824
1304.8,0.100606,657558,521588
1308.19,0.101329,658515,521479
1311.58,0.101651,658804,521321
1314.97,0.101910,659011,521174
1318.36,0.102239,658272,520195
1321.73,0.102868,658022,519245
1326.23,0.103932,657870,517855
1329.6,0.104657,656482,515900
1332.97,0.105571,654926,513596
1336.33,0.106859,653727,511137
1339.69,0.108896,652497,507788
1343.04,0.110175,649913,504290
1346.39,0.112435,647671,499942
1349.73,0.113983,645338,496368
1354.18,0.117249,641175,489472
1357.52,0.118663,638376,485751
1360.85,0.121108,635805,481079
1364.17,0.123162,633413,477007
1367.49,0.125457,631026,472705
1370.81,0.127270,628050,468516
1374.12,0.129590,625034,463782
1378.54,0.132401,620272,457279
1381.84,0.135278,616892,451784
1385.14,0.139245,613613,445297
1388.43,0.144371,611526,438575
1391.72,0.149561,610663,432754
1395.01,0.154605,610634,427736
1398.29,0.160126,611700,423070
1402.66,0.168443,614051,416640
1405.93,0.174563,616268,412294
1409.2,0.180554,617795,407653
1412.46,0.185826,618872,403436
1415.72,0.190999,619795,399254
1418.98,0.195736,620495,395369
1422.23,0.200217,621087,391684
1426.56,0.204955,621375,387613
1429.8,0.207625,621616,385387
1433.04,0.211128,622129,382607
1436.27,0.213488,621526,380164
1439.5,0.216088,621113,377644
1442.72,0.218160,620921,375730
1445.94,0.220783,620270,373076
1450.23,0.223513,618860,369896
1453.44,0.226616,617697,366572
1456.64,0.229529,616264,363277
1459.85,0.231736,614413,360350
1463.04,0.234080,612307,357182
1466.24,0.237382,610032,353159
1469.43,0.240402,607345,349167
1473.67,0.244923,603789,343528
1476.85,0.249243,601175,338655
1480.02,0.253000,597737,333818
1483.19,0.258948,594479,327483
1486.36,0.263483,591232,322311
1489.52,0.266869,587853,317980
1492.68,0.269693,583875,313781
1496.89,0.271294,578062,309514
1500.03,0.271758,574159,307096
1503.18,0.271536,570285,305180
1506.32,0.270325,565444,303434
1509.45,0.269014,560571,301729
1512.58,0.267916,555821,299929
1515.71,0.265470,550344,298651
1519.87,0.263022,543983,296868
1522.99,0.260069,538764,296026
1526.1,0.257550,533692,294945
1529.21,0.255416,527902,293182
1532.32,0.252456,521886,291823
1535.42,0.250489,515888,289779
1538.51,0.249370,509987,287203
1541.6,0.244248,503936,287162
1545.72,0.239661,494694,284889
1548.8,0.236798,488378,283112
1551.88,0.235437,481832,280194
1554.95,0.232898,474989,277834
1558.02,0.231081,467818,274787
1561.08,0.229808,460730,271418
1564.15,0.229234,454170,267907
1568.22,0.227614,444181,262994
1571.27,0.226519,436947,259364
1574.32,0.226187,429598,255197
1577.36,0.224723,422039,251553
1580.4,0.223345,414375,247770
1583.43,0.221232,406354,244159
1586.46,0.220052,398475,240076
1590.49,0.217264,388982,235866
1593.51,0.215726,380708,231668
1596.53,0.213056,372727,228210
1599.54,0.211177,365060,224485
1602.55,0.209437,357543,220745
1605.55,0.207710,349495,216636
1608.55,0.205075,341154,212753
1612.54,0.203315,330877,207182
1615.53,0.201584,322904,202997
1618.51,0.200896,315116,198415
1621.49,0.198787,307217,194383
1624.47,0.196584,299481,190452
1627.44,0.196270,292112,185900
1630.41,0.195068,284245,181395
1634.36,0.193532,274079,175527
1637.32,0.190735,266916,172044
1640.27,0.192189,259612,166777
1643.22,0.189974,251804,162588
1646.16,0.190249,244348,157674
1649.1,0.188376,236703,153401
1652.04,0.187029,228171,148331
1655.95,0.183975,215408,141022
1658.88,0.178877,204937,135751
1661.8,0.174665,193395,129354
1664.72,0.167374,179728,122248
1667.63,0.153904,163642,114813
1670.54,0.138032,146312,106475
1673.44,0.122405,128451,96902
1677.31,0.103490,105080,82800
1680.21,0.091870,88906,71955
1683.1,0.086836,75033,61435
1685.99,0.084201,63520,52325
1688.87,0.089656,53714,43695
1691.75,0.090787,45653,37041
1694.62,0.094305,39137,31498
1697.49,0.100052,33776,26826
1701.31,0.102983,28175,22227

File: Column 1_050576_20150331_121200.csv
Method:,Column 1,,
Host Date-Time:,31/3/15 @ 12:12:0,,
Header Version:,1,,
System Temp (C):,33.8,,
Detector Temp (C):,34.51,,
Humidity (%):,2.69,,
Lamp PD:,3818,,
Shift Vector Coefficients:,-10.5391,0.0761263,-0.000134223,,
Pixel to Wavelength Coefficients:,1775.68,-0.916766,-0.000235065,,
Serial Number:,5510004,,
Scan Config Name:,Column 1,,
Scan Config Type:,Slew,,
Section 1,,
Start wavelength (nm):,900,,
End wavelength (nm):,1700,,
Pattern Pixel Width (nm):,   7.03,,,,
Exposure (ms):,  0.635,,,,
Digital Resolution:,228,,
Num Repeats:,6,,
PGA Gain:,64,,
Total Measurement Time in sec:,  2.678,,
Wavelength (nm),Absorbance (AU),Reference Signal (unitless),Sample Signal (unitless)
901.51,0.072324,108485,91843
905.376,0.077635,121306,101449
909.237,0.079553,131909,109830
913.095,0.081485,143299,118784
916.948,0.082870,156982,129712
922.079,0.084105,179937,148257
925.923,0.085277,200504,164758
929.762,0.085918,222660,182694
933.597,0.084917,244426,201016
937.427,0.084212,263972,217443
941.254,0.083367,281845,232618
945.076,0.082583,297271,245793
950.165,0.082199,315605,261183
953.978,0.082088,328029,271534
957.786,0.082289,340470,281702
961.59,0.082416,352317,291419
965.389,0.082096,363056,300523
969.185,0.082157,373162,308845
972.976,0.082701,382632,316286
976.763,0.083516,391202,322764
981.806,0.083572,400190,330137
985.583,0.084132,406088,334571
989.355,0.085242,410162,337065
993.124,0.084626,412868,339770
996.888,0.085792,414263,340004
1000.65,0.086371,415476,340545
1004.4,0.087442,415479,339709
1009.41,0.088165,414358,338229
1013.15,0.088760,412923,336596
1016.89,0.089609,411526,334802
1020.63,0.089430,409066,332938
1024.36,0.089837,406777,330765
1028.09,0.089237,404427,329309
1031.82,0.089484,401911,327074
1036.78,0.088345,398410,325076
1040.49,0.087994,396204,323538
1044.2,0.089203,394236,321036
1047.91,0.087818,392042,320269
1051.61,0.088188,389823,318185
1055.31,0.087650,388234,317281
1059,0.087259,387599,317047
1063.92,0.086536,386688,316829
1067.61,0.085636,386598,317412
1071.29,0.085303,387377,318296
1074.96,0.085164,388536,319350
1078.63,0.084753,389855,320738
1082.3,0.083610,391215,322705
1085.96,0.082843,393215,324928
1090.84,0.082258,396270,327894
1094.49,0.081637,398760,330426
1098.14,0.080947,400987,332800
1101.79,0.079919,403477,335660
1105.43,0.080591,406116,337333
1109.06,0.079310,407701,339650
1112.7,0.079204,409859,341531
1117.53,0.079107,412494,343804
1121.15,0.079358,414909,345617
1124.77,0.080190,416559,346327
1128.38,0.080615,418532,347627
1131.99,0.081741,419956,347907
1135.6,0.082992,421946,348550
1139.2,0.084605,423881,348850
1143.99,0.086885,426786,349402
1147.58,0.087799,428617,350163
1151.17,0.088054,431169,352041
1154.75,0.089786,433579,352600
1158.33,0.091741,436264,353190
1161.91,0.092791,439132,354653
1165.48,0.095597,442389,354983
1169.04,0.096805,446101,356967
1173.79,0.100671,451929,358426
1177.34,0.102817,456026,359892
1180.9,0.104576,461306,362588
1184.44,0.106194,467657,366213
1187.99,0.107670,473969,369896
1191.52,0.106923,479856,375135
1195.06,0.107694,487372,380335
1199.76,0.106163,497347,389490
1203.29,0.106017,504311,395077
1206.81,0.104929,511507,401719
1210.33,0.104912,519078,407681
1213.84,0.104486,527163,414437
1217.35,0.103538,534208,420894
1220.85,0.102970,540472,426386
1225.51,0.101896,549929,434921
1229.01,0.101864,556888,440457
1232.5,0.101450,562180,445067
1235.98,0.100555,567975,450582
1239.46,0.099343,574815,457283
1242.94,0.098579,582782,464437
1246.41,0.098294,591476,471675
1251.03,0.098167,604016,481816
1254.5,0.098092,612289,488500
1257.96,0.098720,619125,493240
1261.41,0.099205,624551,497007
1264.86,0.099436,629900,500998
1268.31,0.100031,634345,503842
1271.75,0.100697,638574,506424
1276.33,0.100897,642499,509302
1279.76,0.100996,645905,511885
1283.19,0.100277,648307,514640
1286.61,0.099815,650446,516888
1290.03,0.099713,652132,518349
1293.44,0.099517,653907,519995
1296.85,0.099126,655963,522100
1301.39,0.098819,657349,523573
1304.8,0.098619,657558,523980
1308.19,0.099294,658515,523928
1311.58,0.099608,658804,523779
1314.97,0.099804,659011,523707
1318.36,0.100104,658272,522759
1321.73,0.100988,658022,521498
1326.23,0.101755,657870,520457
1329.6,0.102973,656482,517905
1332.97,0.103984,654926,515476
1336.33,0.105592,653727,512630
1339.69,0.107218,652497,509754
1343.04,0.108573,649913,506153
1346.39,0.111148,647671,501426
1349.73,0.113178,645338,497289
1354.18,0.115676,641175,491248
1357.52,0.118087,638376,486396
1360.85,0.119903,635805,482415
1364.17,0.121742,633413,478570
1367.49,0.123943,631026,474356
1370.81,0.126134,628050,469743
1374.12,0.128302,625034,465159
1378.54,0.131780,620272,457933
1381.84,0.135389,616892,451669
1385.14,0.138946,613613,445603
1388.43,0.143596,611526,439358
1391.72,0.148699,610663,433613
1395.01,0.153806,610634,428524
1398.29,0.159762,611700,423425
1402.66,0.168118,614051,416952
1405.93,0.174098,616268,412735
1409.2,0.180354,617795,407841
1412.46,0.185765,618872,403493
1415.72,0.190445,619795,399763
1418.98,0.195139,620495,395913
1422.23,0.199680,621087,392168
1426.56,0.204416,621375,388095
1429.8,0.207395,621616,385591
1433.04,0.209553,622129,383997
1436.27,0.212537,621526,380998
1439.5,0.214688,621113,378863
1442.72,0.216785,620921,376922
1445.94,0.219253,620270,374393
1450.23,0.222601,618860,370673
1453.44,0.225427,617697,367577
1456.64,0.227467,616264,365006
1459.85,0.230192,614413,361633
1463.04,0.232376,612307,358586
1466.24,0.235553,610032,354650
1469.43,0.238074,607345,351044
1473.67,0.242857,603789,345166
1476.85,0.246695,601175,340648
1480.02,0.251826,597737,334722
1483.19,0.256578,594479,329275
1486.36,0.261096,591232,324087
1489.52,0.264136,587853,319987
1492.68,0.268227,583875,314842
1496.89,0.269623,578062,310707
1500.03,0.270046,574159,308309
1503.18,0.270183,570285,306132
1506.32,0.269637,565444,303915
1509.45,0.268213,560571,302286
1512.58,0.266089,555821,301194
1515.71,0.264065,550344,299619
1519.87,0.262222,543983,297415
1522.99,0.259001,538764,296755
1526.1,0.257001,533692,295318
1529.21,0.254332,527902,293915
1532.32,0.251803,521886,292262
1535.42,0.248567,515888,291064
1538.51,0.245618,509987,289695
1541.6,0.242504,503936,288318
1545.72,0.239058,494694,285285
1548.8,0.236444,488378,283343
1551.88,0.233819,481832,281240
1554.95,0.231737,474989,278578
1558.02,0.229776,467818,275614
1561.08,0.228254,460730,272391
1564.15,0.227728,454170,268838
1568.22,0.226438,444181,263707
1571.27,0.225726,436947,259838
1574.32,0.225073,429598,255852
1577.36,0.223861,422039,252053
1580.4,0.220666,414375,249303
1583.43,0.220587,406354,244522
1586.46,0.219158,398475,240571
1590.49,0.216859,388982,236086
1593.51,0.215273,380708,231910
1596.53,0.212527,372727,228488
1599.54,0.211339,365060,224401
1602.55,0.209333,357543,220798
1605.55,0.206819,349495,217081
1608.55,0.204489,341154,213040
1612.54,0.202896,330877,207382
1615.53,0.200392,322904,203555
1618.51,0.199827,315116,198904
1621.49,0.198820,307217,194368
1624.47,0.197639,299481,189990
1627.44,0.196550,292112,185780
1630.41,0.194434,284245,181660
1634.36,0.194419,274079,175169
1637.32,0.192024,266916,171534
1640.27,0.192176,259612,166782
1643.22,0.190739,251804,162302
1646.16,0.190015,244348,157759
1649.1,0.190157,236703,152773
1652.04,0.188301,228171,147897
1655.95,0.185097,215408,140658
1658.88,0.182195,204937,134718
1661.8,0.177093,193395,128633
1664.72,0.169521,179728,121645
1667.63,0.155947,163642,114274
1670.54,0.141217,146312,105697
1673.44,0.125987,128451,96106
1677.31,0.105851,105080,82351
1680.21,0.096494,88906,71193
1683.1,0.096450,75033,60090
1685.99,0.091053,63520,51506
1688.87,0.095248,53714,43136
1691.75,0.106594,45653,35717
1694.62,0.109785,39137,30395
1697.49,0.110522,33776,26187
1701.31,0.121484,28175,21300

File: Column 1_050576_20150331_121206.csv
Method:,Column 1,,
Host Date-Time:,31/3/15 @ 12:12:6,,
Header Version:,1,,
System Temp (C):,33.79,,
Detector Temp (C):,34.56,,
Humidity (%):,2.84,,
Lamp PD:,3819,,
Shift Vector Coefficients:,-10.5391,0.0761263,-0.000134223,,
Pixel to Wavelength Coefficients:,1775.68,-0.916766,-0.000235065,,
Serial Number:,5510004,,
Scan Config Name:,Column 1,,
Scan Config Type:,Slew,,
Section 1,,
Start wavelength (nm):,900,,
End wavelength (nm):,1700,,
Pattern Pixel Width (nm):,   7.03,,,,
Exposure (ms):,  0.635,,,,
Digital Resolution:,228,,
Num Repeats:,6,,
PGA Gain:,64,,
Total Measurement Time in sec:,  2.730,,
Wavelength (nm),Absorbance (AU),Reference Signal (unitless),Sample Signal (unitless)
901.51,0.072239,108485,91861
905.376,0.077724,121306,101428
909.237,0.078148,131909,110186
913.095,0.080674,143299,119006
916.948,0.081319,156982,130176
922.079,0.082701,179937,148737
925.923,0.085503,200504,164672
929.762,0.084596,222660,183251
933.597,0.084977,244426,200988
937.427,0.084015,263972,217542
941.254,0.083089,281845,232767
945.076,0.083437,297271,245310
950.165,0.082334,315605,261102
953.978,0.081551,328029,271870
957.786,0.081747,340470,282054
961.59,0.082012,352317,291690
965.389,0.082115,363056,300510
969.185,0.081983,373162,308969
972.976,0.082657,382632,316318
976.763,0.082673,391202,323391
981.806,0.083137,400190,330468
985.583,0.084373,406088,334385
989.355,0.084139,410162,337922
993.124,0.084901,412868,339555
996.888,0.085012,414263,340615
1000.65,0.085976,415476,340855
1004.4,0.086743,415479,340256
1009.41,0.088019,414358,338343
1013.15,0.088344,412923,336919
1016.89,0.088751,411526,335464
1020.63,0.088506,409066,333647
1024.36,0.088463,406777,331813
1028.09,0.088953,404427,329524
1031.82,0.088468,401911,327840
1036.78,0.088170,398410,325207
1040.49,0.088620,396204,323072
1044.2,0.088150,394236,321815
1047.91,0.088128,392042,320040
1051.61,0.087969,389823,318345
1055.31,0.087409,388234,317457
1059,0.086598,387599,317530
1063.92,0.085915,386688,317282
1067.61,0.085278,386598,317674
1071.29,0.085345,387377,318265
1074.96,0.084663,388536,319719
1078.63,0.083497,389855,321667
1082.3,0.082583,391215,323469
1085.96,0.082275,393215,325353
1090.84,0.081448,396270,328506
1094.49,0.081573,398760,330475
1098.14,0.080841,400987,332881
1101.79,0.080229,403477,335421
1105.43,0.079988,406116,337802
1109.06,0.079630,407701,339400
1112.7,0.078393,409859,342170
1117.53,0.078244,412494,344488
1121.15,0.079049,414909,345863
1124.77,0.079116,416559,347185
1128.38,0.080226,418532,347939
1131.99,0.081162,419956,348371
1135.6,0.082693,421946,348790
1139.2,0.084370,423881,349039
1143.99,0.086403,426786,349790
1147.58,0.086947,428617,350851
1151.17,0.087931,431169,352141
1154.75,0.088898,433579,353322
1158.33,0.091139,436264,353680
1161.91,0.093119,439132,354386
1165.48,0.094855,442389,355590
1169.04,0.097130,446101,356700
1173.79,0.100850,451929,358278
1177.34,0.102401,456026,360237
1180.9,0.104456,461306,362688
1184.44,0.105794,467657,366550
1187.99,0.106949,473969,370511
1191.52,0.106837,479856,375210
1195.06,0.106651,487372,381250
1199.76,0.105800,497347,389816
1203.29,0.105572,504311,395482
1206.81,0.105284,511507,401391
1210.33,0.104570,519078,408002
1213.84,0.103765,527163,415126
1217.35,0.103395,534208,421032
1220.85,0.102514,540472,426834
1225.51,0.102050,549929,434767
1229.01,0.101513,556888,440813
1232.5,0.102081,562180,444421
1235.98,0.100416,567975,450727
1239.46,0.099292,574815,457337
1242.94,0.098070,582782,464982
1246.41,0.097615,591476,472413
1251.03,0.097724,604016,482308
1254.5,0.097903,612289,488712
1257.96,0.098269,619125,493752
1261.41,0.098595,624551,497706
1264.86,0.099096,629900,501390
1268.31,0.099784,634345,504129
1271.75,0.100227,638574,506972
1276.33,0.100775,642499,509445
1279.76,0.100501,645905,512469
1283.19,0.100161,648307,514778
1286.61,0.099913,650446,516771
1290.03,0.099516,652132,518585
1293.44,0.098686,653907,520991
1296.85,0.098828,655963,522458
1301.39,0.098816,657349,523576
1304.8,0.098679,657558,523908
1308.19,0.099049,658515,524224
1311.58,0.099390,658804,524042
1314.97,0.099730,659011,523796
1318.36,0.100347,658272,522466
1321.73,0.101044,658022,521430
1326.23,0.102030,657870,520128
1329.6,0.102938,656482,517946
1332.97,0.103989,654926,515470
1336.33,0.104749,653727,513627
1339.69,0.106776,652497,510273
1343.04,0.108597,649913,506125
1346.39,0.110294,647671,502412
1349.73,0.112589,645338,497964
1354.18,0.115331,641175,491638
1357.52,0.117451,638376,487108
1360.85,0.119465,635805,482902
1364.17,0.121396,633413,478951
1367.49,0.123654,631026,474672
1370.81,0.125862,628050,470037
1374.12,0.128199,625034,465270
1378.54,0.131616,620272,458106
1381.84,0.134734,616892,452351
1385.14,0.139318,613613,445222
1388.43,0.143622,611526,439332
1391.72,0.148166,610663,434146
1395.01,0.153762,610634,428567
1398.29,0.159812,611700,423376
1402.66,0.167586,614051,417463
1405.93,0.174314,616268,412530
1409.2,0.179662,617795,408491
1412.46,0.185212,618872,404007
1415.72,0.189998,619795,400175
1418.98,0.194531,620495,396467
1422.23,0.198391,621087,393334
1426.56,0.203025,621375,389340
1429.8,0.205458,621616,387315
1433.04,0.208833,622129,384634
1436.27,0.211299,621526,382085
1439.5,0.213731,621113,379699
1442.72,0.215782,620921,377793
1445.94,0.218170,620270,375328
1450.23,0.221638,618860,371496
1453.44,0.224406,617697,368442
1456.64,0.226643,616264,365699
1459.85,0.228796,614413,362798
1463.04,0.231748,612307,359105
1466.24,0.234333,610032,355647
1469.43,0.237641,607345,351394
1473.67,0.242094,603789,345773
1476.85,0.245847,601175,341314
1480.02,0.250301,597737,335899
1483.19,0.255519,594479,330079
1486.36,0.260780,591232,324323
1489.52,0.264014,587853,320077
1492.68,0.266600,583875,316024
1496.89,0.269382,578062,310880
1500.03,0.269161,574159,308938
1503.18,0.269234,570285,306802
1506.32,0.268389,565444,304790
1509.45,0.267772,560571,302593
1512.58,0.266145,555821,301155
1515.71,0.263137,550344,300260
1519.87,0.260906,543983,298318
1522.99,0.258578,538764,297044
1526.1,0.256144,533692,295901
1529.21,0.253639,527902,294384
1532.32,0.250446,521886,293177
1535.42,0.248029,515888,291425
1538.51,0.244414,509987,290499
1541.6,0.242275,503936,288470
1545.72,0.237972,494694,285999
1548.8,0.235442,488378,283997
1551.88,0.233266,481832,281598
1554.95,0.231617,474989,278655
1558.02,0.228968,467818,276127
1561.08,0.228377,460730,272314
1564.15,0.227397,454170,269043
1568.22,0.226109,444181,263907
1571.27,0.224851,436947,260362
1574.32,0.224165,429598,256388
1577.36,0.222704,422039,252725
1580.4,0.221192,414375,249001
1583.43,0.220054,406354,244822
1586.46,0.218617,398475,240871
1590.49,0.215748,388982,236691
1593.51,0.214163,380708,232503
1596.53,0.212653,372727,228422
1599.54,0.210257,365060,224961
1602.55,0.208810,357543,221064
1605.55,0.206010,349495,217486
1608.55,0.204777,341154,212899
1612.54,0.202778,330877,207438
1615.53,0.200266,322904,203614
1618.51,0.198771,315116,199388
1621.49,0.198418,307217,194548
1624.47,0.195802,299481,190795
1627.44,0.194687,292112,186579
1630.41,0.194218,284245,181750
1634.36,0.193156,274079,175679
1637.32,0.191997,266916,171545
1640.27,0.191725,259612,166955
1643.22,0.190814,251804,162274
1646.16,0.190026,244348,157755
1649.1,0.189067,236703,153157
1652.04,0.188363,228171,147876
1655.95,0.184175,215408,140957
1658.88,0.179140,204937,135669
1661.8,0.176961,193395,128672
1664.72,0.166859,179728,122393
1667.63,0.155230,163642,114463
1670.54,0.142868,146312,105296
1673.44,0.126462,128451,96001
1677.31,0.107637,105080,82013
1680.21,0.097098,88906,71094
1683.1,0.092644,75033,60619
1685.99,0.094949,63520,51046
1688.87,0.099263,53714,42739
1691.75,0.101133,45653,36169
1694.62,0.101156,39137,31005
1697.49,0.112167,33776,26088
1701.31,0.118801,28175,21432