Folder: textile_sorting_NIRSCAN_/samples/wool/wool-000811 (part 164)

File: Column 1_050622_20150331_123354.csv
Method:,Column 1,,
Host Date-Time:,31/3/15 @ 12:33:54,,
Header Version:,1,,
System Temp (C):,34.12,,
Detector Temp (C):,35.03,,
Humidity (%):,1.56,,
Lamp PD:,3818,,
Shift Vector Coefficients:,-10.5391,0.0761263,-0.000134223,,
Pixel to Wavelength Coefficients:,1775.68,-0.916766,-0.000235065,,
Serial Number:,5510004,,
Scan Config Name:,Column 1,,
Scan Config Type:,Slew,,
Section 1,,
Start wavelength (nm):,900,,
End wavelength (nm):,1700,,
Pattern Pixel Width (nm):,   7.03,,,,
Exposure (ms):,  0.635,,,,
Digital Resolution:,228,,
Num Repeats:,6,,
PGA Gain:,64,,
Total Measurement Time in sec:,  2.678,,
Wavelength (nm),Absorbance (AU),Reference Signal (unitless),Sample Signal (unitless)
901.51,0.069881,108485,92361
905.376,0.075269,121306,102003
909.237,0.076260,131909,110666
913.095,0.078675,143299,119555
916.948,0.078990,156982,130876
922.079,0.079438,179937,149859
925.923,0.081502,200504,166196
929.762,0.082692,222660,184056
933.597,0.082783,244426,202006
937.427,0.080521,263972,219299
941.254,0.080055,281845,234399
945.076,0.078764,297271,247964
950.165,0.077410,315605,264079
953.978,0.077092,328029,274676
957.786,0.077168,340470,285043
961.59,0.077368,352317,294826
965.389,0.077670,363056,303601
969.185,0.077191,373162,312397
972.976,0.077999,382632,319729
976.763,0.078537,391202,326486
981.806,0.078898,400190,333709
985.583,0.079127,406088,338449
989.355,0.078754,410162,342138
993.124,0.080632,412868,342909
996.888,0.080459,414263,344205
1000.65,0.081241,415476,344592
1004.4,0.082136,415479,343885
1009.41,0.083531,414358,341857
1013.15,0.084216,412923,340136
1016.89,0.083995,411526,339158
1020.63,0.084089,409066,337058
1024.36,0.085252,406777,334275
1028.09,0.084236,404427,333123
1031.82,0.083764,401911,331410
1036.78,0.084087,398410,328279
1040.49,0.083291,396204,327060
1044.2,0.082989,394236,325662
1047.91,0.082979,392042,323857
1051.61,0.082886,389823,322093
1055.31,0.082437,388234,321112
1059,0.082112,387599,320827
1063.92,0.081508,386688,320518
1067.61,0.080810,386598,320959
1071.29,0.080845,387377,321580
1074.96,0.080014,388536,323160
1078.63,0.078586,389855,325325
1082.3,0.078034,391215,326875
1085.96,0.077601,393215,328874
1090.84,0.076480,396270,332285
1094.49,0.076034,398760,334717
1098.14,0.075473,400987,337021
1101.79,0.074832,403477,339615
1105.43,0.074615,406116,342007
1109.06,0.073469,407701,344249
1112.7,0.073457,409859,346081
1117.53,0.073195,412494,348516
1121.15,0.073590,414909,350238
1124.77,0.073641,416559,351589
1128.38,0.074586,418532,352487
1131.99,0.075695,419956,352784
1135.6,0.076952,421946,353431
1139.2,0.078238,423881,354002
1143.99,0.080563,426786,354525
1147.58,0.081262,428617,355474
1151.17,0.081937,431169,357035
1154.75,0.082974,433579,358174
1158.33,0.083839,436264,359675
1161.91,0.085796,439132,360412
1165.48,0.087945,442389,361293
1169.04,0.090196,446101,362441
1173.79,0.093610,451929,364301
1177.34,0.095659,456026,365873
1180.9,0.097858,461306,368240
1184.44,0.099501,467657,371900
1187.99,0.100857,473969,375745
1191.52,0.100506,479856,380719
1195.06,0.101205,487372,386061
1199.76,0.100162,497347,394909
1203.29,0.099549,504311,401005
1206.81,0.098642,511507,407577
1210.33,0.098006,519078,414216
1213.84,0.097517,527163,421141
1217.35,0.096943,534208,427334
1220.85,0.096161,540472,433124
1225.51,0.095077,549929,441804
1229.01,0.095841,556888,446608
1232.5,0.094371,562180,452381
1235.98,0.093898,567975,457542
1239.46,0.092769,574815,464258
1242.94,0.092123,582782,471393
1246.41,0.091106,591476,479547
1251.03,0.091383,604016,489402
1254.5,0.091849,612289,495573
1257.96,0.091875,619125,501076
1261.41,0.092602,624551,504622
1264.86,0.092789,629900,508724
1268.31,0.093167,634345,511869
1271.75,0.094209,638574,514046
1276.33,0.094145,642499,517282
1279.76,0.093990,645905,520210
1283.19,0.093516,648307,522715
1286.61,0.093035,650446,525020
1290.03,0.093022,652132,526397
1293.44,0.092534,653907,528423
1296.85,0.092282,655963,530392
1301.39,0.091870,657349,532018
1304.8,0.091715,657558,532377
1308.19,0.091892,658515,532934
1311.58,0.091790,658804,533293
1314.97,0.092280,659011,532859
1318.36,0.092923,658272,531475
1321.73,0.093325,658022,530781
1326.23,0.093802,657870,530076
1329.6,0.094430,656482,528193
1332.97,0.095301,654926,525886
1336.33,0.096205,653727,523831
1339.69,0.097467,652497,521329
1343.04,0.098869,649913,517591
1346.39,0.100881,647671,513421
1349.73,0.102931,645338,509162
1354.18,0.105586,641175,502794
1357.52,0.107569,638376,498319
1360.85,0.109518,635805,494090
1364.17,0.111411,633413,490090
1367.49,0.114042,631026,485294
1370.81,0.116174,628050,480640
1374.12,0.117983,625034,476344
1378.54,0.120777,620272,469683
1381.84,0.123412,616892,464298
1385.14,0.126734,613613,458311
1388.43,0.130266,611526,453053
1391.72,0.133616,610663,448937
1395.01,0.138248,610634,444153
1398.29,0.141937,611700,441165
1402.66,0.148089,614051,436632
1405.93,0.152494,616268,433786
1409.2,0.157236,617795,430139
1412.46,0.161117,618872,427055
1415.72,0.165123,619795,423765
1418.98,0.168315,620495,421137
1422.23,0.172237,621087,417749
1426.56,0.176064,621375,414276
1429.8,0.178015,621616,412579
1433.04,0.180722,622129,410354
1436.27,0.182947,621526,407861
1439.5,0.184947,621113,405717
1442.72,0.187470,620921,403243
1445.94,0.189821,620270,400645
1450.23,0.193367,618860,396484
1453.44,0.196097,617697,393259
1456.64,0.198847,616264,389870
1459.85,0.201467,614413,386361
1463.04,0.204912,612307,381995
1466.24,0.208160,610032,377740
1469.43,0.211912,607345,372841
1473.67,0.218657,603789,364946
1476.85,0.224572,601175,358450
1480.02,0.230598,597737,351489
1483.19,0.236933,594479,344511
1486.36,0.243442,591232,337533
1489.52,0.248407,587853,331789
1492.68,0.251475,583875,327224
1496.89,0.253857,578062,322194
1500.03,0.254292,574159,319698
1503.18,0.254159,570285,317638
1506.32,0.253518,565444,315407
1509.45,0.251859,560571,313886
1512.58,0.250988,555821,311851
1515.71,0.247983,550344,310922
1519.87,0.245368,543983,309184
1522.99,0.242535,538764,308222
1526.1,0.239957,533692,307138
1529.21,0.236803,527902,306020
1532.32,0.234569,521886,304093
1535.42,0.231725,515888,302573
1538.51,0.228125,509987,301602
1541.6,0.225990,503936,299492
1545.72,0.221558,494694,297015
1548.8,0.218919,488378,295010
1551.88,0.215981,481832,293032
1554.95,0.214450,474989,289890
1558.02,0.213251,467818,286303
1561.08,0.211586,460730,283048
1564.15,0.211238,454170,279242
1568.22,0.209998,444181,273881
1571.27,0.209823,436947,269529
1574.32,0.208530,429598,265786
1577.36,0.207527,422039,261713
1580.4,0.206657,414375,257476
1583.43,0.205033,406354,253438
1586.46,0.204047,398475,249089
1590.49,0.201594,388982,244532
1593.51,0.199941,380708,240243
1596.53,0.197666,372727,236442
1599.54,0.195829,365060,232560
1602.55,0.194973,357543,228221
1605.55,0.192490,349495,224363
1608.55,0.190252,341154,220140
1612.54,0.188312,330877,214464
1615.53,0.185444,322904,210683
1618.51,0.185063,315116,205782
1621.49,0.184954,307217,200674
1624.47,0.183425,299481,196311
1627.44,0.183045,292112,191648
1630.41,0.181684,284245,187072
1634.36,0.180168,274079,181012
1637.32,0.179349,266916,176614
1640.27,0.178763,259612,172013
1643.22,0.177489,251804,167330
1646.16,0.177468,244348,162383
1649.1,0.176336,236703,157713
1652.04,0.175566,228171,152298
1655.95,0.171609,215408,145095
1658.88,0.169813,204937,138614
1661.8,0.162901,193395,132906
1664.72,0.154887,179728,125814
1667.63,0.141729,163642,118077
1670.54,0.127284,146312,109143
1673.44,0.109711,128451,99776
1677.31,0.090225,105080,85368
1680.21,0.077960,88906,74297
1683.1,0.073362,75033,63371
1685.99,0.070790,63520,53966
1688.87,0.081913,53714,44481
1691.75,0.075048,45653,38408
1694.62,0.085853,39137,32117
1697.49,0.084189,33776,27824
1701.31,0.094125,28175,22685

File: Column 1_050622_20150331_123402.csv
Method:,Column 1,,
Host Date-Time:,31/3/15 @ 12:34:2,,
Header Version:,1,,
System Temp (C):,34.14,,
Detector Temp (C):,35.01,,
Humidity (%):,1.56,,
Lamp PD:,3817,,
Shift Vector Coefficients:,-10.5391,0.0761263,-0.000134223,,
Pixel to Wavelength Coefficients:,1775.68,-0.916766,-0.000235065,,
Serial Number:,5510004,,
Scan Config Name:,Column 1,,
Scan Config Type:,Slew,,
Section 1,,
Start wavelength (nm):,900,,
End wavelength (nm):,1700,,
Pattern Pixel Width (nm):,   7.03,,,,
Exposure (ms):,  0.635,,,,
Digital Resolution:,228,,
Num Repeats:,6,,
PGA Gain:,64,,
Total Measurement Time in sec:,  2.721,,
Wavelength (nm),Absorbance (AU),Reference Signal (unitless),Sample Signal (unitless)
901.51,0.068942,108485,92561
905.376,0.073264,121306,102475
909.237,0.073007,131909,111498
913.095,0.076979,143299,120023
916.948,0.077923,156982,131198
922.079,0.078161,179937,150300
925.923,0.081411,200504,166231
929.762,0.081575,222660,184530
933.597,0.081609,244426,202553
937.427,0.080430,263972,219345
941.254,0.079120,281845,234904
945.076,0.078804,297271,247941
950.165,0.077165,315605,264228
953.978,0.077473,328029,274435
957.786,0.076922,340470,285205
961.59,0.077138,352317,294982
965.389,0.077629,363056,303630
969.185,0.077149,373162,312427
972.976,0.077372,382632,320191
976.763,0.077829,391202,327018
981.806,0.078047,400190,334364
985.583,0.078570,406088,338883
989.355,0.079430,410162,341606
993.124,0.079809,412868,343560
996.888,0.080197,414263,344413
1000.65,0.080790,415476,344950
1004.4,0.082531,415479,343572
1009.41,0.083774,414358,341666
1013.15,0.083047,412923,341053
1016.89,0.083866,411526,339259
1020.63,0.083821,409066,337266
1024.36,0.083796,406777,335398
1028.09,0.083988,404427,333313
1031.82,0.084029,401911,331208
1036.78,0.082931,398410,329154
1040.49,0.082811,396204,327422
1044.2,0.082696,394236,325882
1047.91,0.083002,392042,323840
1051.61,0.082284,389823,322540
1055.31,0.082056,388234,321394
1059,0.081899,387599,320984
1063.92,0.080697,386688,321117
1067.61,0.080369,386598,321285
1071.29,0.079346,387377,322692
1074.96,0.079094,388536,323845
1078.63,0.078648,389855,325278
1082.3,0.077337,391215,327400
1085.96,0.076785,393215,329492
1090.84,0.075967,396270,332678
1094.49,0.075242,398760,335328
1098.14,0.075238,400987,337204
1101.79,0.074178,403477,340127
1105.43,0.074106,406116,342408
1109.06,0.073367,407701,344330
1112.7,0.073644,409859,345932
1117.53,0.072121,412494,349379
1121.15,0.073485,414909,350322
1124.77,0.073019,416559,352093
1128.38,0.074195,418532,352804
1131.99,0.075297,419956,353107
1135.6,0.077076,421946,353330
1139.2,0.078487,423881,353799
1143.99,0.079928,426786,355044
1147.58,0.080749,428617,355894
1151.17,0.081465,431169,357423
1154.75,0.082477,433579,358584
1158.33,0.083799,436264,359708
1161.91,0.085989,439132,360252
1165.48,0.088085,442389,361176
1169.04,0.089712,446101,362845
1173.79,0.092998,451929,364815
1177.34,0.095886,456026,365682
1180.9,0.097239,461306,368765
1184.44,0.099478,467657,371920
1187.99,0.100275,473969,376249
1191.52,0.099990,479856,381172
1195.06,0.100820,487372,386403
1199.76,0.099658,497347,395368
1203.29,0.098901,504311,401603
1206.81,0.098471,511507,407737
1210.33,0.098264,519078,413970
1213.84,0.097304,527163,421348
1217.35,0.096836,534208,427439
1220.85,0.096358,540472,432928
1225.51,0.095493,549929,441381
1229.01,0.094699,556888,447784
1232.5,0.094023,562180,452744
1235.98,0.093751,567975,457697
1239.46,0.092811,574815,464213
1242.94,0.091684,582782,471870
1246.41,0.091370,591476,479255
1251.03,0.090920,604016,489924
1254.5,0.090954,612289,496595
1257.96,0.091765,619125,501203
1261.41,0.091928,624551,505406
1264.86,0.092739,629900,508783
1268.31,0.092796,634345,512306
1271.75,0.093487,638574,514901
1276.33,0.093511,642499,518038
1279.76,0.093784,645905,520457
1283.19,0.092964,648307,523380
1286.61,0.093025,650446,525033
1290.03,0.092200,652132,527394
1293.44,0.092106,653907,528944
1296.85,0.091842,655963,530930
1301.39,0.091876,657349,532010
1304.8,0.091521,657558,532614
1308.19,0.091877,658515,532953
1311.58,0.091531,658804,533612
1314.97,0.092007,659011,533195
1318.36,0.092401,658272,532114
1321.73,0.093038,658022,531132
1326.23,0.093514,657870,530427
1329.6,0.094357,656482,528282
1332.97,0.094836,654926,526449
1336.33,0.096154,653727,523893
1339.69,0.097286,652497,521546
1343.04,0.098897,649913,517557
1346.39,0.100621,647671,513728
1349.73,0.102755,645338,509369
1354.18,0.105521,641175,502870
1357.52,0.107242,638376,498694
1360.85,0.109510,635805,494099
1364.17,0.111535,633413,489950
1367.49,0.113679,631026,485700
1370.81,0.115652,628050,481218
1374.12,0.117764,625034,476584
1378.54,0.120477,620272,470008
1381.84,0.123166,616892,464561
1385.14,0.126331,613613,458737
1388.43,0.130090,611526,453237
1391.72,0.133685,610663,448866
1395.01,0.137776,610634,444636
1398.29,0.141536,611700,441573
1402.66,0.147669,614051,437054
1405.93,0.152378,616268,433902
1409.2,0.156687,617795,430683
1412.46,0.161366,618872,426810
1415.72,0.164770,619795,424110
1418.98,0.168120,620495,421326
1422.23,0.171229,621087,418720
1426.56,0.175261,621375,415043
1429.8,0.177853,621616,412733
1433.04,0.180064,622129,410976
1436.27,0.182608,621526,408180
1439.5,0.184413,621113,406217
1442.72,0.186630,620921,404023
1445.94,0.189115,620270,401297
1450.23,0.192612,618860,397174
1453.44,0.196275,617697,393098
1456.64,0.198662,616264,390036
1459.85,0.201112,614413,386677
1463.04,0.203931,612307,382858
1466.24,0.207548,610032,378272
1469.43,0.211769,607345,372964
1473.67,0.218586,603789,365005
1476.85,0.224104,601175,358837
1480.02,0.230056,597737,351928
1483.19,0.236492,594479,344861
1486.36,0.243097,591232,337801
1489.52,0.248131,587853,332000
1492.68,0.250808,583875,327727
1496.89,0.253951,578062,322124
1500.03,0.253855,574159,320020
1503.18,0.253823,570285,317884
1506.32,0.252949,565444,315821
1509.45,0.251539,560571,314117
1512.58,0.250193,555821,312422
1515.71,0.249032,550344,310172
1519.87,0.244453,543983,309836
1522.99,0.241751,538764,308779
1526.1,0.239431,533692,307510
1529.21,0.236334,527902,306351
1532.32,0.233566,521886,304796
1535.42,0.231590,515888,302667
1538.51,0.228291,509987,301487
1541.6,0.225128,503936,300087
1545.72,0.221067,494694,297351
1548.8,0.218301,488378,295430
1551.88,0.215548,481832,293324
1554.95,0.214482,474989,289869
1558.02,0.212337,467818,286906
1561.08,0.211024,460730,283415
1564.15,0.211367,454170,279159
1568.22,0.209884,444181,273953
1571.27,0.209042,436947,270014
1574.32,0.208497,429598,265806
1577.36,0.207385,422039,261799
1580.4,0.206016,414375,257856
1583.43,0.204182,406354,253935
1586.46,0.203224,398475,249561
1590.49,0.200813,388982,244972
1593.51,0.199129,380708,240693
1596.53,0.198232,372727,236134
1599.54,0.194526,365060,233259
1602.55,0.193106,357543,229204
1605.55,0.190876,349495,225198
1608.55,0.189235,341154,220656
1612.54,0.187962,330877,214637
1615.53,0.185815,322904,210503
1618.51,0.185166,315116,205733
1621.49,0.183338,307217,201422
1624.47,0.183245,299481,196392
1627.44,0.181914,292112,192148
1630.41,0.180377,284245,187636
1634.36,0.179948,274079,181104
1637.32,0.177078,266916,177540
1640.27,0.179150,259612,171860
1643.22,0.176802,251804,167595
1646.16,0.176998,244348,162559
1649.1,0.176066,236703,157811
1652.04,0.173881,228171,152890
1655.95,0.170668,215408,145410
1658.88,0.167903,204937,139225
1661.8,0.160938,193395,133508
1664.72,0.152652,179728,126463
1667.63,0.141832,163642,118049
1670.54,0.125216,146312,109664
1673.44,0.109664,128451,99787
1677.31,0.087921,105080,85822
1680.21,0.078018,88906,74287
1683.1,0.070051,75033,63856
1685.99,0.070975,63520,53943
1688.87,0.072248,53714,45482
1691.75,0.073310,45653,38562
1694.62,0.078040,39137,32700
1697.49,0.086835,33776,27655
1701.31,0.092806,28175,22754

File: Column 1_050622_20150331_123405.csv
Method:,Column 1,,
Host Date-Time:,31/3/15 @ 12:34:5,,
Header Version:,1,,
System Temp (C):,34.12,,
Detector Temp (C):,35.06,,
Humidity (%):,1.56,,
Lamp PD:,3818,,
Shift Vector Coefficients:,-10.5391,0.0761263,-0.000134223,,
Pixel to Wavelength Coefficients:,1775.68,-0.916766,-0.000235065,,
Serial Number:,5510004,,
Scan Config Name:,Column 1,,
Scan Config Type:,Slew,,
Section 1,,
Start wavelength (nm):,900,,
End wavelength (nm):,1700,,
Pattern Pixel Width (nm):,   7.03,,,,
Exposure (ms):,  0.635,,,,
Digital Resolution:,228,,
Num Repeats:,6,,
PGA Gain:,64,,
Total Measurement Time in sec:,  2.669,,
Wavelength (nm),Absorbance (AU),Reference Signal (unitless),Sample Signal (unitless)
901.51,0.069566,108485,92428
905.376,0.074338,121306,102222
909.237,0.076154,131909,110693
913.095,0.077902,143299,119768
916.948,0.078042,156982,131162
922.079,0.079064,179937,149988
925.923,0.081338,200504,166259
929.762,0.082013,222660,184344
933.597,0.081960,244426,202389
937.427,0.081048,263972,219033
941.254,0.079890,281845,234488
945.076,0.078713,297271,247993
950.165,0.078128,315605,263643
953.978,0.077240,328029,274582
957.786,0.077559,340470,284787
961.59,0.077766,352317,294556
965.389,0.077742,363056,303551
969.185,0.077702,373162,312029
972.976,0.078445,382632,319401
976.763,0.078123,391202,326797
981.806,0.079137,400190,333526
985.583,0.078529,406088,338915
989.355,0.079566,410162,341499
993.124,0.080039,412868,343378
996.888,0.080409,414263,344245
1000.65,0.080278,415476,345357
1004.4,0.082788,415479,343369
1009.41,0.083502,414358,341880
1013.15,0.083860,412923,340415
1016.89,0.084846,411526,338494
1020.63,0.085286,409066,336130
1024.36,0.084619,406777,334763
1028.09,0.084181,404427,333165
1031.82,0.084058,401911,331186
1036.78,0.083677,398410,328589
1040.49,0.083260,396204,327084
1044.2,0.083750,394236,325092
1047.91,0.082751,392042,324027
1051.61,0.082843,389823,322125
1055.31,0.082195,388234,321291
1059,0.082728,387599,320372
1063.92,0.081237,386688,320718
1067.61,0.080859,386598,320923
1071.29,0.080204,387377,322055
1074.96,0.079769,388536,323342
1078.63,0.078940,389855,325060
1082.3,0.078010,391215,326893
1085.96,0.077926,393215,328628
1090.84,0.076107,396270,332571
1094.49,0.075970,398760,334766
1098.14,0.075115,400987,337299
1101.79,0.074808,403477,339634
1105.43,0.074637,406116,341990
1109.06,0.073622,407701,344128
1112.7,0.073307,409859,346200
1117.53,0.073139,412494,348561
1121.15,0.073309,414909,350464
1124.77,0.073696,416559,351545
1128.38,0.075119,418532,352054
1131.99,0.075045,419956,353312
1135.6,0.077421,421946,353050
1139.2,0.078097,423881,354117
1143.99,0.079427,426786,355454
1147.58,0.081084,428617,355619
1151.17,0.081613,431169,357301
1154.75,0.082739,433579,358368
1158.33,0.084139,436264,359427
1161.91,0.085785,439132,360421
1165.48,0.087859,442389,361364
1169.04,0.090265,446101,362383
1173.79,0.093111,451929,364720
1177.34,0.096050,456026,365544
1180.9,0.097596,461306,368462
1184.44,0.099487,467657,371912
1187.99,0.100723,473969,375861
1191.52,0.100415,479856,380799
1195.06,0.100736,487372,386478
1199.76,0.099628,497347,395395
1203.29,0.099222,504311,401307
1206.81,0.097910,511507,408264
1210.33,0.098129,519078,414098
1213.84,0.097947,527163,420725
1217.35,0.096904,534208,427372
1220.85,0.096300,540472,432985
1225.51,0.095463,549929,441411
1229.01,0.094806,556888,447674
1232.5,0.094239,562180,452519
1235.98,0.093793,567975,457653
1239.46,0.092535,574815,464508
1242.94,0.091808,582782,471735
1246.41,0.091390,591476,479234
1251.03,0.091247,604016,489555
1254.5,0.091385,612289,496102
1257.96,0.092030,619125,500897
1261.41,0.092193,624551,505097
1264.86,0.092818,629900,508690
1268.31,0.093098,634345,511950
1271.75,0.093741,638574,514601
1276.33,0.094347,642499,517041
1279.76,0.094470,645905,519635
1283.19,0.093225,648307,523065
1286.61,0.093183,650446,524841
1290.03,0.092909,652132,526534
1293.44,0.092165,653907,528873
1296.85,0.091941,655963,530809
1301.39,0.091609,657349,532337
1304.8,0.091692,657558,532405
1308.19,0.091476,658515,533445
1311.58,0.092163,658804,532835
1314.97,0.092130,659011,533043
1318.36,0.092717,658272,531726
1321.73,0.092983,658022,531199
1326.23,0.093887,657870,529972
1329.6,0.094540,656482,528060
1332.97,0.095348,654926,525829
1336.33,0.095756,653727,524373
1339.69,0.097816,652497,520910
1343.04,0.099119,649913,517293
1346.39,0.101066,647671,513202
1349.73,0.102756,645338,509367
1354.18,0.105819,641175,502525
1357.52,0.107571,638376,498317
1360.85,0.109615,635805,493979
1364.17,0.111423,633413,490077
1367.49,0.113596,631026,485793
1370.81,0.116111,628050,480710
1374.12,0.117838,625034,476503
1378.54,0.120772,620272,469689
1381.84,0.123486,616892,464219
1385.14,0.126705,613613,458342
1388.43,0.129728,611526,453615
1391.72,0.133677,610663,448874
1395.01,0.137769,610634,444644
1398.29,0.142053,611700,441048
1402.66,0.147635,614051,437089
1405.93,0.153192,616268,433089
1409.2,0.156927,617795,430445
1412.46,0.160884,618872,427284
1415.72,0.165044,619795,423842
1418.98,0.168491,620495,420966
1422.23,0.171684,621087,418281
1426.56,0.175387,621375,414922
1429.8,0.177819,621616,412765
1433.04,0.180382,622129,410675
1436.27,0.182544,621526,408240
1439.5,0.184225,621113,406392
1442.72,0.187131,620921,403557
1445.94,0.189209,620270,401210
1450.23,0.192947,618860,396867
1453.44,0.195699,617697,393619
1456.64,0.198642,616264,390054
1459.85,0.201192,614413,386606
1463.04,0.204544,612307,382318
1466.24,0.208237,610032,377673
1469.43,0.212305,607345,372504
1473.67,0.218876,603789,364762
1476.85,0.224317,601175,358661
1480.02,0.230566,597737,351515
1483.19,0.237418,594479,344127
1486.36,0.243838,591232,337225
1489.52,0.247966,587853,332126
1492.68,0.251530,583875,327182
1496.89,0.253346,578062,322573
1500.03,0.254674,574159,319417
1503.18,0.254451,570285,317425
1506.32,0.253398,565444,315494
1509.45,0.252275,560571,313585
1512.58,0.250268,555821,312368
1515.71,0.248176,550344,310784
1519.87,0.245014,543983,309436
1522.99,0.242466,538764,308271
1526.1,0.239758,533692,307279
1529.21,0.236945,527902,305920
1532.32,0.234405,521886,304208
1535.42,0.231722,515888,302575
1538.51,0.228473,509987,301360
1541.6,0.225282,503936,299981
1545.72,0.221843,494694,296820
1548.8,0.218494,488378,295299
1551.88,0.216012,481832,293011
1554.95,0.214211,474989,290050
1558.02,0.211862,467818,287220
1561.08,0.211986,460730,282788
1564.15,0.211278,454170,279216
1568.22,0.210087,444181,273825
1571.27,0.209145,436947,269950
1574.32,0.209156,429598,265403
1577.36,0.207197,422039,261912
1580.4,0.206532,414375,257550
1583.43,0.204555,406354,253717
1586.46,0.203038,398475,249668
1590.49,0.201336,388982,244677
1593.51,0.200482,380708,239944
1596.53,0.197661,372727,236445
1599.54,0.195503,365060,232735
1602.55,0.194056,357543,228703
1605.55,0.192679,349495,224265
1608.55,0.189997,341154,220269
1612.54,0.187837,330877,214699
1615.53,0.185974,322904,210426
1618.51,0.184941,315116,205840
1621.49,0.183699,307217,201255
1624.47,0.182686,299481,196645
1627.44,0.182262,292112,191994
1630.41,0.181053,284245,187344
1634.36,0.179253,274079,181394
1637.32,0.178499,266916,176960
1640.27,0.178882,259612,171966
1643.22,0.178461,251804,166956
1646.16,0.177784,244348,162265
1649.1,0.176201,236703,157762
1652.04,0.173907,228171,152881
1655.95,0.170730,215408,145389
1658.88,0.168196,204937,139131
1661.8,0.162950,193395,132891
1664.72,0.154614,179728,125893
1667.63,0.142775,163642,117793
1670.54,0.126703,146312,109289
1673.44,0.111037,128451,99472
1677.31,0.090205,105080,85372
1680.21,0.078755,88906,74161
1683.1,0.074480,75033,63208
1685.99,0.074338,63520,53527
1688.87,0.072668,53714,45438
1691.75,0.080326,45653,37944
1694.62,0.083412,39137,32298
1697.49,0.086599,33776,27670
1701.31,0.097932,28175,22487