Folder: textile_sorting_NIRSCAN_/samples/wool/wool-000811 (part 7)

File: Column 1_050534_20150331_115224.csv
Method:,Column 1,,
Host Date-Time:,31/3/15 @ 11:52:24,,
Header Version:,1,,
System Temp (C):,31.1,,
Detector Temp (C):,30.26,,
Humidity (%):,4.1,,
Lamp PD:,3828,,
Shift Vector Coefficients:,-10.5391,0.0761263,-0.000134223,,
Pixel to Wavelength Coefficients:,1775.68,-0.916766,-0.000235065,,
Serial Number:,5510004,,
Scan Config Name:,Column 1,,
Scan Config Type:,Slew,,
Section 1,,
Start wavelength (nm):,900,,
End wavelength (nm):,1700,,
Pattern Pixel Width (nm):,   7.03,,,,
Exposure (ms):,  0.635,,,,
Digital Resolution:,228,,
Num Repeats:,6,,
PGA Gain:,64,,
Total Measurement Time in sec:,  2.730,,
Wavelength (nm),Absorbance (AU),Reference Signal (unitless),Sample Signal (unitless)
901.51,0.042781,108485,98308
905.376,0.047976,121306,108619
909.237,0.048893,131909,117864
913.095,0.049631,143299,127824
916.948,0.049111,156982,140197
922.079,0.050038,179937,160355
925.923,0.049758,200504,178799
929.762,0.050508,222660,198214
933.597,0.052160,244426,216764
937.427,0.051339,263972,234541
941.254,0.052950,281845,249494
945.076,0.052413,297271,263475
950.165,0.052656,315605,279568
953.978,0.051894,328029,291084
957.786,0.053220,340470,301203
961.59,0.053021,352317,311826
965.389,0.053892,363056,320687
969.185,0.054573,373162,329097
972.976,0.055306,382632,336880
976.763,0.055979,391202,343892
981.806,0.056136,400190,351666
985.583,0.056912,406088,356212
989.355,0.058053,410162,358841
993.124,0.058162,412868,361118
996.888,0.058965,414263,361669
1000.65,0.059938,415476,361916
1004.4,0.060895,415479,361122
1009.41,0.062430,414358,358877
1013.15,0.062634,412923,357466
1016.89,0.063140,411526,355842
1020.63,0.062466,409066,354264
1024.36,0.063090,406777,351776
1028.09,0.062714,404427,350047
1031.82,0.062387,401911,348131
1036.78,0.061119,398410,346108
1040.49,0.060885,396204,344377
1044.2,0.060861,394236,342685
1047.91,0.059341,392042,341973
1051.61,0.059519,389823,339898
1055.31,0.058777,388234,339091
1059,0.057977,387599,339161
1063.92,0.056634,386688,339412
1067.61,0.055677,386598,340081
1071.29,0.054949,387377,341338
1074.96,0.054449,388536,342754
1078.63,0.054128,389855,344172
1082.3,0.053101,391215,346190
1085.96,0.052153,393215,348720
1090.84,0.051530,396270,351934
1094.49,0.050768,398760,354767
1098.14,0.050231,400987,357190
1101.79,0.050219,403477,359418
1105.43,0.050622,406116,361433
1109.06,0.050375,407701,363050
1112.7,0.049786,409859,365467
1117.53,0.049856,412494,367758
1121.15,0.051037,414909,368906
1124.77,0.051504,416559,369975
1128.38,0.052944,418532,370497
1131.99,0.054233,419956,370656
1135.6,0.056585,421946,370401
1139.2,0.059057,423881,369987
1143.99,0.061374,426786,370541
1147.58,0.062550,428617,371124
1151.17,0.063904,431169,372172
1154.75,0.066133,433579,372336
1158.33,0.067864,436264,373152
1161.91,0.070634,439132,373217
1165.48,0.072873,442389,374051
1169.04,0.076318,446101,374210
1173.79,0.080361,451929,375586
1177.34,0.083222,456026,376502
1180.9,0.085513,461306,378858
1184.44,0.087479,467657,382339
1187.99,0.088170,473969,386883
1191.52,0.087836,479856,391990
1195.06,0.087159,487372,398751
1199.76,0.086306,497347,407712
1203.29,0.084381,504311,415257
1206.81,0.083444,511507,422092
1210.33,0.082002,519078,429765
1213.84,0.081285,527163,437180
1217.35,0.079663,534208,444680
1220.85,0.078965,540472,450618
1225.51,0.077188,549929,460382
1229.01,0.077290,556888,466099
1232.5,0.075859,562180,472081
1235.98,0.075114,567975,477766
1239.46,0.073757,574815,485033
1242.94,0.072613,582782,493052
1246.41,0.071939,591476,501185
1251.03,0.071632,604016,512173
1254.5,0.071655,612289,519160
1257.96,0.072241,619125,524249
1261.41,0.072870,624551,528078
1264.86,0.072992,629900,532451
1268.31,0.073889,634345,535102
1271.75,0.074419,638574,538012
1276.33,0.074635,642499,541050
1279.76,0.074539,645905,544038
1283.19,0.074204,648307,546483
1286.61,0.073684,650446,548943
1290.03,0.073380,652132,550751
1293.44,0.072762,653907,553037
1296.85,0.072757,655963,554782
1301.39,0.072576,657349,556186
1304.8,0.072388,657558,556604
1308.19,0.072795,658515,556891
1311.58,0.073073,658804,556779
1314.97,0.073787,659011,556040
1318.36,0.074373,658272,554667
1321.73,0.074857,658022,553839
1326.23,0.076118,657870,552106
1329.6,0.076807,656482,550067
1332.97,0.078070,654926,547170
1336.33,0.079786,653727,544015
1339.69,0.081457,652497,540906
1343.04,0.083870,649913,535779
1346.39,0.086136,647671,531152
1349.73,0.088538,645338,526319
1354.18,0.092178,641175,518559
1357.52,0.094747,638376,513251
1360.85,0.096921,635805,508631
1364.17,0.099590,633413,503613
1367.49,0.102023,631026,498912
1370.81,0.104759,628050,493441
1374.12,0.107746,625034,487705
1378.54,0.111526,620272,479795
1381.84,0.116050,616892,472236
1385.14,0.120279,613613,465174
1388.43,0.125695,611526,457847
1391.72,0.131700,610663,450922
1395.01,0.138184,610634,444219
1398.29,0.144586,611700,438483
1402.66,0.153580,614051,431146
1405.93,0.161190,616268,425187
1409.2,0.167475,617795,420116
1412.46,0.173852,618872,414714
1415.72,0.179868,619795,409619
1418.98,0.183961,620495,406235
1422.23,0.188733,621087,402179
1426.56,0.194007,621375,397509
1429.8,0.197080,621616,394859
1433.04,0.200375,622129,392198
1436.27,0.202689,621526,389736
1439.5,0.205232,621113,387203
1442.72,0.207635,620921,384947
1445.94,0.210707,620270,381833
1450.23,0.214065,618860,378031
1453.44,0.217128,617697,374669
1456.64,0.219524,616264,371743
1459.85,0.222178,614413,368368
1463.04,0.224861,612307,364845
1466.24,0.227720,610032,361104
1469.43,0.230472,607345,357243
1473.67,0.236123,603789,350560
1476.85,0.239875,601175,346040
1480.02,0.245243,597737,339834
1483.19,0.251339,594479,333271
1486.36,0.256792,591232,327315
1489.52,0.261673,587853,321807
1492.68,0.265007,583875,317185
1496.89,0.268008,578062,311865
1500.03,0.268859,574159,309153
1503.18,0.269582,570285,306556
1506.32,0.269209,565444,304215
1509.45,0.268092,560571,302370
1512.58,0.266168,555821,301139
1515.71,0.264282,550344,299469
1519.87,0.260599,543983,298529
1522.99,0.258084,538764,297382
1526.1,0.255763,533692,296161
1529.21,0.252038,527902,295471
1532.32,0.249249,521886,293986
1535.42,0.245820,515888,292911
1538.51,0.242876,509987,291530
1541.6,0.239807,503936,290114
1545.72,0.234995,494694,287966
1548.8,0.231260,488378,286745
1551.88,0.228199,481832,284903
1554.95,0.226747,474989,281797
1558.02,0.225012,467818,278654
1561.08,0.222712,460730,275889
1564.15,0.222507,454170,272089
1568.22,0.221104,444181,266966
1571.27,0.219942,436947,263322
1574.32,0.218751,429598,259604
1577.36,0.217135,422039,255987
1580.4,0.215332,414375,252384
1583.43,0.213096,406354,248776
1586.46,0.211829,398475,244665
1590.49,0.208381,388982,240740
1593.51,0.207323,380708,236194
1596.53,0.204565,372727,232716
1599.54,0.201866,365060,229350
1602.55,0.199226,357543,225997
1605.55,0.197164,349495,221961
1608.55,0.195467,341154,217512
1612.54,0.192120,330877,212592
1615.53,0.190595,322904,208199
1618.51,0.188664,315116,204083
1621.49,0.186072,307217,200158
1624.47,0.186061,299481,195123
1627.44,0.184230,292112,191126
1630.41,0.183105,284245,186461
1634.36,0.180872,274079,180719
1637.32,0.180216,266916,176262
1640.27,0.179501,259612,171721
1643.22,0.177079,251804,167488
1646.16,0.177273,244348,162456
1649.1,0.177417,236703,157321
1652.04,0.175033,228171,152485
1655.95,0.175714,215408,143730
1658.88,0.173656,204937,137393
1661.8,0.173874,193395,129590
1664.72,0.169500,179728,121651
1667.63,0.167692,163642,111225
1670.54,0.164720,146312,100129
1673.44,0.159797,128451,88908
1677.31,0.159556,105080,72772
1680.21,0.160756,88906,61401
1683.1,0.159826,75033,51931
1685.99,0.170575,63520,42888
1688.87,0.175150,53714,35887
1691.75,0.178873,45653,30241
1694.62,0.179858,39137,25866
1697.49,0.183627,33776,22130
1701.31,0.187745,28175,18286

File: Column 1_050534_20150331_115227.csv
Method:,Column 1,,
Host Date-Time:,31/3/15 @ 11:52:27,,
Header Version:,1,,
System Temp (C):,31.08,,
Detector Temp (C):,30.26,,
Humidity (%):,4.05,,
Lamp PD:,3828,,
Shift Vector Coefficients:,-10.5391,0.0761263,-0.000134223,,
Pixel to Wavelength Coefficients:,1775.68,-0.916766,-0.000235065,,
Serial Number:,5510004,,
Scan Config Name:,Column 1,,
Scan Config Type:,Slew,,
Section 1,,
Start wavelength (nm):,900,,
End wavelength (nm):,1700,,
Pattern Pixel Width (nm):,   7.03,,,,
Exposure (ms):,  0.635,,,,
Digital Resolution:,228,,
Num Repeats:,6,,
PGA Gain:,64,,
Total Measurement Time in sec:,  2.722,,
Wavelength (nm),Absorbance (AU),Reference Signal (unitless),Sample Signal (unitless)
901.51,0.041867,108485,98515
905.376,0.047289,121306,108791
909.237,0.047690,131909,118191
913.095,0.048314,143299,128212
916.948,0.047855,156982,140603
922.079,0.048416,179937,160955
925.923,0.048778,200504,179203
929.762,0.050263,222660,198326
933.597,0.050249,244426,217720
937.427,0.050359,263972,235071
941.254,0.051364,281845,250407
945.076,0.052021,297271,263713
950.165,0.052647,315605,279574
953.978,0.052327,328029,290794
957.786,0.052959,340470,301384
961.59,0.053746,352317,311306
965.389,0.053816,363056,320743
969.185,0.053380,373162,330003
972.976,0.054886,382632,337206
976.763,0.054810,391202,344819
981.806,0.055788,400190,351948
985.583,0.056651,406088,356426
989.355,0.057060,410162,359663
993.124,0.057923,412868,361317
996.888,0.058476,414263,362076
1000.65,0.058990,415476,362707
1004.4,0.060383,415479,361548
1009.41,0.061784,414358,359411
1013.15,0.062126,412923,357885
1016.89,0.062742,411526,356168
1020.63,0.062757,409066,354027
1024.36,0.062365,406777,352364
1028.09,0.061907,404427,350698
1031.82,0.061768,401911,348628
1036.78,0.060838,398410,346332
1040.49,0.060983,396204,344299
1044.2,0.060476,394236,342989
1047.91,0.058924,392042,342301
1051.61,0.058586,389823,340629
1055.31,0.058346,388234,339428
1059,0.057570,387599,339479
1063.92,0.056449,386688,339556
1067.61,0.055220,386598,340439
1071.29,0.054903,387377,341374
1074.96,0.053940,388536,343156
1078.63,0.053115,389855,344975
1082.3,0.052480,391215,346685
1085.96,0.052125,393215,348743
1090.84,0.051005,396270,352360
1094.49,0.050089,398760,355322
1098.14,0.050280,400987,357150
1101.79,0.050026,403477,359578
1105.43,0.050407,406116,361612
1109.06,0.050069,407701,363306
1112.7,0.049631,409859,365598
1117.53,0.049328,412494,368205
1121.15,0.050592,414909,369284
1124.77,0.051280,416559,370166
1128.38,0.052535,418532,370846
1131.99,0.054006,419956,370850
1135.6,0.056171,421946,370754
1139.2,0.058652,423881,370333
1143.99,0.061375,426786,370540
1147.58,0.062389,428617,371262
1151.17,0.063865,431169,372205
1154.75,0.065948,433579,372495
1158.33,0.067482,436264,373480
1161.91,0.069374,439132,374301
1165.48,0.073193,442389,373776
1169.04,0.076035,446101,374454
1173.79,0.080141,451929,375776
1177.34,0.082554,456026,377082
1180.9,0.085310,461306,379035
1184.44,0.086612,467657,383103
1187.99,0.087576,473969,387413
1191.52,0.087735,479856,392081
1195.06,0.086684,487372,399187
1199.76,0.085450,497347,408516
1203.29,0.084571,504311,415076
1206.81,0.082978,511507,422546
1210.33,0.081941,519078,429825
1213.84,0.081173,527163,437292
1217.35,0.079353,534208,444997
1220.85,0.078615,540472,450981
1225.51,0.076951,549929,460634
1229.01,0.076253,556888,467213
1232.5,0.076125,562180,471792
1235.98,0.074673,567975,478251
1239.46,0.073386,574815,485447
1242.94,0.072315,582782,493391
1246.41,0.071605,591476,501571
1251.03,0.071466,604016,512368
1254.5,0.071138,612289,519779
1257.96,0.071882,619125,524682
1261.41,0.072116,624551,528995
1264.86,0.072844,629900,532632
1268.31,0.073470,634345,535618
1271.75,0.074282,638574,538182
1276.33,0.074895,642499,540726
1279.76,0.074514,645905,544070
1283.19,0.074121,648307,546587
1286.61,0.073435,650446,549258
1290.03,0.073471,652132,550636
1293.44,0.072920,653907,552836
1296.85,0.072867,655963,554641
1301.39,0.072048,657349,556862
1304.8,0.072107,657558,556964
1308.19,0.072568,658515,557183
1311.58,0.072961,658804,556923
1314.97,0.073709,659011,556140
1318.36,0.074135,658272,554971
1321.73,0.074626,658022,554133
1326.23,0.075799,657870,552511
1329.6,0.076983,656482,549844
1332.97,0.078114,654926,547115
1336.33,0.079167,653727,544790
1339.69,0.081344,652497,541046
1343.04,0.083484,649913,536255
1346.39,0.085922,647671,531413
1349.73,0.088698,645338,526125
1354.18,0.092002,641175,518770
1357.52,0.094315,638376,513762
1360.85,0.096533,635805,509086
1364.17,0.099248,633413,504010
1367.49,0.101813,631026,499154
1370.81,0.104678,628050,493533
1374.12,0.107407,625034,488086
1378.54,0.111164,620272,480196
1381.84,0.115630,616892,472693
1385.14,0.120327,613613,465123
1388.43,0.125457,611526,458098
1391.72,0.131737,610663,450884
1395.01,0.137891,610634,444519
1398.29,0.143996,611700,439079
1402.66,0.153550,614051,431176
1405.93,0.160222,616268,426135
1409.2,0.167267,617795,420317
1412.46,0.173540,618872,415012
1415.72,0.179440,619795,410023
1418.98,0.183667,620495,406510
1422.23,0.188205,621087,402668
1426.56,0.193850,621375,397653
1429.8,0.196880,621616,395041
1433.04,0.199835,622129,392686
1436.27,0.202102,621526,390263
1439.5,0.204996,621113,387413
1442.72,0.206974,620921,385534
1445.94,0.209746,620270,382679
1450.23,0.214087,618860,378012
1453.44,0.216377,617697,375317
1456.64,0.219443,616264,371812
1459.85,0.222183,614413,368364
1463.04,0.224873,612307,364835
1466.24,0.227786,610032,361049
1469.43,0.230416,607345,357289
1473.67,0.235294,603789,351230
1476.85,0.239973,601175,345962
1480.02,0.244790,597737,340189
1483.19,0.250475,594479,333935
1486.36,0.256136,591232,327810
1489.52,0.261768,587853,321737
1492.68,0.264836,583875,317310
1496.89,0.267432,578062,312279
1500.03,0.268127,574159,309674
1503.18,0.269068,570285,306919
1506.32,0.267993,565444,305068
1509.45,0.267912,560571,302495
1512.58,0.266050,555821,301221
1515.71,0.263564,550344,299965
1519.87,0.260496,543983,298600
1522.99,0.257564,538764,297738
1526.1,0.255342,533692,296448
1529.21,0.252175,527902,295378
1532.32,0.249298,521886,293953
1535.42,0.246271,515888,292607
1538.51,0.242380,509987,291863
1541.6,0.239576,503936,290268
1545.72,0.234768,494694,288117
1548.8,0.231366,488378,286675
1551.88,0.227617,481832,285285
1554.95,0.226113,474989,282209
1558.02,0.224445,467818,279018
1561.08,0.222977,460730,275721
1564.15,0.222118,454170,272333
1568.22,0.220079,444181,267597
1571.27,0.219179,436947,263785
1574.32,0.218768,429598,259594
1577.36,0.216592,422039,256307
1580.4,0.215234,414375,252441
1583.43,0.213582,406354,248498
1586.46,0.210581,398475,245369
1590.49,0.208751,388982,240535
1593.51,0.206027,380708,236900
1596.53,0.203284,372727,233403
1599.54,0.201351,365060,229622
1602.55,0.199406,357543,225903
1605.55,0.197137,349495,221975
1608.55,0.194631,341154,217931
1612.54,0.191022,330877,213130
1615.53,0.189982,322904,208493
1618.51,0.187990,315116,204400
1621.49,0.186381,307217,200016
1624.47,0.184375,299481,195882
1627.44,0.183626,292112,191392
1630.41,0.181559,284245,187126
1634.36,0.179636,274079,181234
1637.32,0.179077,266916,176725
1640.27,0.177888,259612,172360
1643.22,0.176511,251804,167707
1646.16,0.176346,244348,162803
1649.1,0.174918,236703,158229
1652.04,0.174436,228171,152695
1655.95,0.172430,215408,144821
1658.88,0.171578,204937,138052
1661.8,0.171864,193395,130191
1664.72,0.170315,179728,121423
1667.63,0.166227,163642,111601
1670.54,0.161768,146312,100812
1673.44,0.161348,128451,88591
1677.31,0.158215,105080,72997
1680.21,0.157907,88906,61805
1683.1,0.160788,75033,51816
1685.99,0.164381,63520,43504
1688.87,0.172929,53714,36071
1691.75,0.173592,45653,30611
1694.62,0.170326,39137,26440
1697.49,0.178632,33776,22386
1701.31,0.178417,28175,18683

File: Column 1_050535_20150331_115238.csv
Method:,Column 1,,
Host Date-Time:,31/3/15 @ 11:52:38,,
Header Version:,1,,
System Temp (C):,31.23,,
Detector Temp (C):,30.19,,
Humidity (%):,3.9,,
Lamp PD:,3828,,
Shift Vector Coefficients:,-10.5391,0.0761263,-0.000134223,,
Pixel to Wavelength Coefficients:,1775.68,-0.916766,-0.000235065,,
Serial Number:,5510004,,
Scan Config Name:,Column 1,,
Scan Config Type:,Slew,,
Section 1,,
Start wavelength (nm):,900,,
End wavelength (nm):,1700,,
Pattern Pixel Width (nm):,   7.03,,,,
Exposure (ms):,  0.635,,,,
Digital Resolution:,228,,
Num Repeats:,6,,
PGA Gain:,64,,
Total Measurement Time in sec:,  2.662,,
Wavelength (nm),Absorbance (AU),Reference Signal (unitless),Sample Signal (unitless)
901.51,0.044529,108485,97913
905.376,0.049122,121306,108333
909.237,0.049255,131909,117766
913.095,0.051132,143299,127383
916.948,0.051086,156982,139561
922.079,0.050743,179937,160095
925.923,0.049887,200504,178746
929.762,0.051038,222660,197972
933.597,0.051662,244426,217013
937.427,0.051995,263972,234187
941.254,0.052204,281845,249923
945.076,0.052631,297271,263343
950.165,0.052880,315605,279424
953.978,0.052935,328029,290387
957.786,0.053569,340470,300961
961.59,0.053756,352317,311299
965.389,0.054499,363056,320239
969.185,0.054674,373162,329021
972.976,0.054577,382632,337446
976.763,0.056168,391202,343742
981.806,0.056744,400190,351174
985.583,0.057559,406088,355681
989.355,0.057943,410162,358932
993.124,0.058660,412868,360704
996.888,0.059119,414263,361541
1000.65,0.059917,415476,361934
1004.4,0.061077,415479,360971
1009.41,0.062538,414358,358788
1013.15,0.063269,412923,356944
1016.89,0.063648,411526,355426
1020.63,0.063383,409066,353517
1024.36,0.063369,406777,351550
1028.09,0.063337,404427,349545
1031.82,0.062581,401911,347976
1036.78,0.061559,398410,345757
1040.49,0.061930,396204,343549
1044.2,0.061277,394236,342357
1047.91,0.060212,392042,341288
1051.61,0.060087,389823,339454
1055.31,0.058478,388234,339325
1059,0.058147,387599,339028
1063.92,0.057089,386688,339056
1067.61,0.056183,386598,339685
1071.29,0.055270,387377,341086
1074.96,0.055455,388536,341961
1078.63,0.054041,389855,344241
1082.3,0.053651,391215,345752
1085.96,0.052492,393215,348448
1090.84,0.051524,396270,351939
1094.49,0.051298,398760,354335
1098.14,0.050856,400987,356676
1101.79,0.050690,403477,359028
1105.43,0.050368,406116,361645
1109.06,0.050232,407701,363170
1112.7,0.050549,409859,364826
1117.53,0.050385,412494,367310
1121.15,0.051017,414909,368923
1124.77,0.051711,416559,369799
1128.38,0.052953,418532,370489
1131.99,0.054966,419956,370031
1135.6,0.056729,421946,370278
1139.2,0.059083,423881,369965
1143.99,0.061646,426786,370309
1147.58,0.062453,428617,371207
1151.17,0.064536,431169,371631
1154.75,0.065602,433579,372792
1158.33,0.067509,436264,373457
1161.91,0.070481,439132,373348
1165.48,0.072980,442389,373959
1169.04,0.076103,446101,374395
1173.79,0.080625,451929,375358
1177.34,0.083452,456026,376303
1180.9,0.085963,461306,378465
1184.44,0.087655,467657,382184
1187.99,0.088018,473969,387019
1191.52,0.088533,479856,391361
1195.06,0.086786,487372,399093
1199.76,0.086110,497347,407896
1203.29,0.084528,504311,415117
1206.81,0.082942,511507,422581
1210.33,0.082179,519078,429589
1213.84,0.081443,527163,437021
1217.35,0.079909,534208,444428
1220.85,0.078615,540472,450981
1225.51,0.077351,549929,460210
1229.01,0.076896,556888,466522
1232.5,0.076011,562180,471916
1235.98,0.075110,567975,477770
1239.46,0.074071,574815,484682
1242.94,0.072901,582782,492726
1246.41,0.071805,591476,501340
1251.03,0.071708,604016,512083
1254.5,0.071704,612289,519102
1257.96,0.072003,619125,524536
1261.41,0.072524,624551,528499
1264.86,0.073124,629900,532289
1268.31,0.073869,634345,535127
1271.75,0.074804,638574,537536
1276.33,0.074636,642499,541049
1279.76,0.075069,645905,543375
1283.19,0.074318,648307,546340
1286.61,0.074197,650446,548295
1290.03,0.073402,652132,550724
1293.44,0.073070,653907,552645
1296.85,0.072885,655963,554618
1301.39,0.072775,657349,555931
1304.8,0.072712,657558,556188
1308.19,0.072844,658515,556829
1311.58,0.073141,658804,556692
1314.97,0.073724,659011,556120
1318.36,0.074594,658272,554385
1321.73,0.074795,658022,553918
1326.23,0.075978,657870,552283
1329.6,0.077229,656482,549533
1332.97,0.078372,654926,546789
1336.33,0.079785,653727,544016
1339.69,0.081792,652497,540488
1343.04,0.083678,649913,536015
1346.39,0.085944,647671,531387
1349.73,0.088810,645338,525990
1354.18,0.092302,641175,518411
1357.52,0.094463,638376,513586
1360.85,0.097055,635805,508474
1364.17,0.099294,633413,503956
1367.49,0.102136,631026,498783
1370.81,0.104983,628050,493187
1374.12,0.107713,625034,487742
1378.54,0.112151,620272,479105
1381.84,0.115939,616892,472357
1385.14,0.121014,613613,464387
1388.43,0.126324,611526,457184
1391.72,0.132133,610663,450473
1395.01,0.137756,610634,444657
1398.29,0.144506,611700,438564
1402.66,0.153549,614051,431177
1405.93,0.160848,616268,425522
1409.2,0.167828,617795,419775
1412.46,0.173653,618872,414904
1415.72,0.179431,619795,410031
1418.98,0.184325,620495,405895
1422.23,0.188517,621087,402379
1426.56,0.193943,621375,397567
1429.8,0.196311,621616,395559
1433.04,0.200001,622129,392536
1436.27,0.202183,621526,390190
1439.5,0.204937,621113,387466
1442.72,0.207875,620921,384735
1445.94,0.209956,620270,382494
1450.23,0.213528,618860,378499
1453.44,0.216880,617697,374883
1456.64,0.219799,616264,371508
1459.85,0.222114,614413,368423
1463.04,0.224469,612307,365174
1466.24,0.227800,610032,361038
1469.43,0.230288,607345,357394
1473.67,0.235369,603789,351169
1476.85,0.240396,601175,345625
1480.02,0.245262,597737,339819
1483.19,0.251425,594479,333205
1486.36,0.257034,591232,327133
1489.52,0.262020,587853,321550
1492.68,0.265932,583875,316510
1496.89,0.268684,578062,311380
1500.03,0.269110,574159,308974
1503.18,0.268945,570285,307006
1506.32,0.268473,565444,304731
1509.45,0.267571,560571,302733
1512.58,0.266221,555821,301102
1515.71,0.263874,550344,299751
1519.87,0.260763,543983,298416
1522.99,0.258388,538764,297174
1526.1,0.255131,533692,296592
1529.21,0.252258,527902,295322
1532.32,0.248501,521886,294493
1535.42,0.245768,515888,292946
1538.51,0.242763,509987,291606
1541.6,0.239428,503936,290367
1545.72,0.234209,494694,288488
1548.8,0.231368,488378,286674
1551.88,0.228171,481832,284921
1554.95,0.226421,474989,282009
1558.02,0.223837,467818,279409
1561.08,0.222849,460730,275802
1564.15,0.221425,454170,272768
1568.22,0.220946,444181,267063
1571.27,0.219900,436947,263347
1574.32,0.218707,429598,259630
1577.36,0.217715,422039,255645
1580.4,0.215593,414375,252232
1583.43,0.213316,406354,248650
1586.46,0.211240,398475,244997
1590.49,0.209317,388982,240222
1593.51,0.206320,380708,236740
1596.53,0.204486,372727,232758
1599.54,0.202167,365060,229191
1602.55,0.199602,357543,225801
1605.55,0.197149,349495,221969
1608.55,0.195381,341154,217555
1612.54,0.192979,330877,212172
1615.53,0.190505,322904,208242
1618.51,0.188606,315116,204110
1621.49,0.187128,307217,199672
1624.47,0.185760,299481,195258
1627.44,0.183365,292112,191507
1630.41,0.181477,284245,187161
1634.36,0.180449,274079,180895
1637.32,0.179871,266916,176402
1640.27,0.179195,259612,171842
1643.22,0.178110,251804,167091
1646.16,0.178073,244348,162157
1649.1,0.176923,236703,157500
1652.04,0.175452,228171,152338
1655.95,0.173818,215408,144359
1658.88,0.173179,204937,137544
1661.8,0.171938,193395,130169
1664.72,0.169686,179728,121599
1667.63,0.167685,163642,111227
1670.54,0.164568,146312,100164
1673.44,0.161446,128451,88571
1677.31,0.159436,105080,72792
1680.21,0.158794,88906,61679
1683.1,0.160319,75033,51872
1685.99,0.170413,63520,42904
1688.87,0.174957,53714,35903
1691.75,0.173720,45653,30602
1694.62,0.185350,39137,25541
1697.49,0.182138,33776,22206
1701.31,0.198518,28175,17838