Folder: textile_sorting_NIRSCAN_/samples/wool/wool-000811 (part 43)

File: Column 1_050554_20150331_120157.csv
Method:,Column 1,,
Host Date-Time:,31/3/15 @ 12:1:57,,
Header Version:,1,,
System Temp (C):,33.44,,
Detector Temp (C):,32.5,,
Humidity (%):,2.44,,
Lamp PD:,3820,,
Shift Vector Coefficients:,-10.5391,0.0761263,-0.000134223,,
Pixel to Wavelength Coefficients:,1775.68,-0.916766,-0.000235065,,
Serial Number:,5510004,,
Scan Config Name:,Column 1,,
Scan Config Type:,Slew,,
Section 1,,
Start wavelength (nm):,900,,
End wavelength (nm):,1700,,
Pattern Pixel Width (nm):,   7.03,,,,
Exposure (ms):,  0.635,,,,
Digital Resolution:,228,,
Num Repeats:,6,,
PGA Gain:,64,,
Total Measurement Time in sec:,  2.735,,
Wavelength (nm),Absorbance (AU),Reference Signal (unitless),Sample Signal (unitless)
901.51,0.034506,108485,100199
905.376,0.039362,121306,110795
909.237,0.042965,131909,119484
913.095,0.043806,143299,129550
916.948,0.043274,156982,142094
922.079,0.044251,179937,162506
925.923,0.044692,200504,180897
929.762,0.046660,222660,199978
933.597,0.046826,244426,219443
937.427,0.046824,263972,236992
941.254,0.046385,281845,253294
945.076,0.046123,297271,267319
950.165,0.045095,315605,284478
953.978,0.045558,328029,295362
957.786,0.045665,340470,306488
961.59,0.046161,352317,316791
965.389,0.046213,363056,326408
969.185,0.046473,373162,335293
972.976,0.047038,382632,343355
976.763,0.048120,391202,350172
981.806,0.048226,400190,358130
985.583,0.048630,406088,363070
989.355,0.049728,410162,365786
993.124,0.049842,412868,368103
996.888,0.050709,414263,368610
1000.65,0.051323,415476,369167
1004.4,0.052835,415479,367887
1009.41,0.054074,414358,365849
1013.15,0.054299,412923,364393
1016.89,0.055004,411526,362571
1020.63,0.054787,409066,360584
1024.36,0.055302,406777,358141
1028.09,0.055063,404427,356268
1031.82,0.054226,401911,354735
1036.78,0.053891,398410,351916
1040.49,0.053546,396204,350246
1044.2,0.053423,394236,348605
1047.91,0.052767,392042,347189
1051.61,0.052511,389823,345427
1055.31,0.052414,388234,344096
1059,0.051593,387599,344183
1063.92,0.049821,386688,344778
1067.61,0.049681,386598,344809
1071.29,0.048996,387377,346049
1074.96,0.049266,388536,346869
1078.63,0.047862,389855,349173
1082.3,0.047159,391215,350959
1085.96,0.046271,393215,353475
1090.84,0.045805,396270,356604
1094.49,0.045595,398760,359018
1098.14,0.045678,400987,360954
1101.79,0.045068,403477,363706
1105.43,0.044829,406116,366287
1109.06,0.044068,407701,368361
1112.7,0.044150,409859,370241
1117.53,0.044214,412494,372566
1121.15,0.044927,414909,374133
1124.77,0.046225,416559,374500
1128.38,0.046959,418532,375638
1131.99,0.048991,419956,375157
1135.6,0.050758,421946,375404
1139.2,0.051900,423881,376135
1143.99,0.054968,426786,376047
1147.58,0.055495,428617,377202
1151.17,0.057080,431169,378066
1154.75,0.058125,433579,379265
1158.33,0.059785,436264,380158
1161.91,0.061627,439132,381038
1165.48,0.064834,442389,381040
1169.04,0.067338,446101,382028
1173.79,0.071020,451929,383752
1177.34,0.073247,456026,385250
1180.9,0.075451,461306,387738
1184.44,0.077059,467657,391623
1187.99,0.078411,473969,395675
1191.52,0.077764,479856,401187
1195.06,0.077785,487372,407451
1199.76,0.076441,497347,417079
1203.29,0.075701,504311,423640
1206.81,0.074898,511507,430481
1210.33,0.074022,519078,437734
1213.84,0.073475,527163,445113
1217.35,0.072585,534208,451986
1220.85,0.071787,540472,458127
1225.51,0.070885,549929,467113
1229.01,0.070464,556888,473482
1232.5,0.069437,562180,479113
1235.98,0.068915,567975,484634
1239.46,0.068164,574815,491320
1242.94,0.066991,582782,499477
1246.41,0.066425,591476,507589
1251.03,0.066258,604016,518550
1254.5,0.066289,612289,525615
1257.96,0.066773,619125,530891
1261.41,0.067389,624551,534785
1264.86,0.067991,629900,538618
1268.31,0.068578,634345,541686
1271.75,0.069193,638574,544525
1276.33,0.070036,642499,546810
1279.76,0.069939,645905,549831
1283.19,0.069338,648307,552640
1286.61,0.069046,650446,554837
1290.03,0.068504,652132,556970
1293.44,0.067978,653907,559162
1296.85,0.068063,655963,560811
1301.39,0.067698,657349,562468
1304.8,0.067879,657558,562413
1308.19,0.067843,658515,563278
1311.58,0.067680,658804,563736
1314.97,0.068425,659011,562947
1318.36,0.069198,658272,561316
1321.73,0.069572,658022,560620
1326.23,0.070439,657870,559372
1329.6,0.071510,656482,556817
1332.97,0.072722,654926,553950
1336.33,0.074198,653727,551059
1339.69,0.076060,652497,547669
1343.04,0.077823,649913,543291
1346.39,0.079780,647671,538982
1349.73,0.082156,645338,534111
1354.18,0.085446,641175,526660
1357.52,0.087611,638376,521754
1360.85,0.090263,635805,516489
1364.17,0.092195,633413,512262
1367.49,0.094614,631026,507497
1370.81,0.097452,628050,501813
1374.12,0.099725,625034,496797
1378.54,0.103498,620272,488747
1381.84,0.107039,616892,482137
1385.14,0.110967,613613,475256
1388.43,0.115444,611526,468782
1391.72,0.120462,610663,462743
1395.01,0.125563,610634,457318
1398.29,0.132049,611700,451325
1402.66,0.140108,614051,444730
1405.93,0.146362,616268,439954
1409.2,0.152301,617795,435054
1412.46,0.157252,618872,430873
1415.72,0.161996,619795,426827
1418.98,0.166883,620495,422528
1422.23,0.170841,621087,419094
1426.56,0.174962,621375,415329
1429.8,0.178201,621616,412402
1433.04,0.181263,622129,409843
1436.27,0.183713,621526,407142
1439.5,0.185932,621113,404798
1442.72,0.188392,620921,402387
1445.94,0.190470,620270,400047
1450.23,0.194495,618860,395455
1453.44,0.197558,617697,391938
1456.64,0.200256,616264,388607
1459.85,0.202927,614413,385064
1463.04,0.205620,612307,381372
1466.24,0.208535,610032,377414
1469.43,0.212247,607345,372553
1473.67,0.217693,603789,365757
1476.85,0.222526,601175,360143
1480.02,0.228309,597737,353347
1483.19,0.235093,594479,345974
1486.36,0.240946,591232,339478
1489.52,0.245429,587853,334072
1492.68,0.248838,583875,329217
1496.89,0.250817,578062,324457
1500.03,0.250912,574159,322196
1503.18,0.250840,570285,320075
1506.32,0.250617,565444,317521
1509.45,0.249667,560571,315474
1512.58,0.247685,555821,314232
1515.71,0.245415,550344,312766
1519.87,0.242253,543983,311410
1522.99,0.239699,538764,310241
1526.1,0.237055,533692,309197
1529.21,0.233716,527902,308203
1532.32,0.230466,521886,306980
1535.42,0.227911,515888,305242
1538.51,0.224580,509987,304074
1541.6,0.222078,503936,302202
1545.72,0.217518,494694,299791
1548.8,0.214001,488378,298370
1551.88,0.212024,481832,295714
1554.95,0.209278,474989,293363
1558.02,0.207342,467818,290225
1561.08,0.207038,460730,286028
1564.15,0.205269,454170,283106
1568.22,0.204238,444181,277538
1571.27,0.203390,436947,273551
1574.32,0.201694,429598,270003
1577.36,0.200655,422039,265887
1580.4,0.198907,414375,262112
1583.43,0.197859,406354,257659
1586.46,0.195272,398475,254173
1590.49,0.194318,388982,248663
1593.51,0.191472,380708,244974
1596.53,0.189032,372727,241190
1599.54,0.186587,365060,237562
1602.55,0.184508,357543,233787
1605.55,0.182745,349495,229454
1608.55,0.180648,341154,225062
1612.54,0.178284,330877,219474
1615.53,0.176859,322904,214889
1618.51,0.174721,315116,210741
1621.49,0.173570,307217,206004
1624.47,0.172105,299481,201495
1627.44,0.171849,292112,196653
1630.41,0.169829,284245,192249
1634.36,0.168963,274079,185743
1637.32,0.167108,266916,181663
1640.27,0.166172,259612,177073
1643.22,0.165504,251804,172012
1646.16,0.165568,244348,166894
1649.1,0.164332,236703,162133
1652.04,0.163352,228171,156642
1655.95,0.161734,215408,148432
1658.88,0.157641,204937,142554
1661.8,0.154326,193395,135556
1664.72,0.150296,179728,127151
1667.63,0.140001,163642,118548
1670.54,0.131410,146312,108111
1673.44,0.121769,128451,97044
1677.31,0.109883,105080,81590
1680.21,0.104218,88906,69938
1683.1,0.103121,75033,59174
1685.99,0.105603,63520,49809
1688.87,0.112060,53714,41498
1691.75,0.116943,45653,34876
1694.62,0.126803,39137,29227
1697.49,0.133422,33776,24842
1701.31,0.129780,28175,20897

File: Column 1_050554_20150331_120159.csv
Method:,Column 1,,
Host Date-Time:,31/3/15 @ 12:1:59,,
Header Version:,1,,
System Temp (C):,33.47,,
Detector Temp (C):,32.5,,
Humidity (%):,2.44,,
Lamp PD:,3820,,
Shift Vector Coefficients:,-10.5391,0.0761263,-0.000134223,,
Pixel to Wavelength Coefficients:,1775.68,-0.916766,-0.000235065,,
Serial Number:,5510004,,
Scan Config Name:,Column 1,,
Scan Config Type:,Slew,,
Section 1,,
Start wavelength (nm):,900,,
End wavelength (nm):,1700,,
Pattern Pixel Width (nm):,   7.03,,,,
Exposure (ms):,  0.635,,,,
Digital Resolution:,228,,
Num Repeats:,6,,
PGA Gain:,64,,
Total Measurement Time in sec:,  2.727,,
Wavelength (nm),Absorbance (AU),Reference Signal (unitless),Sample Signal (unitless)
901.51,0.032444,108485,100676
905.376,0.039131,121306,110854
909.237,0.042082,131909,119727
913.095,0.041722,143299,130173
916.948,0.043164,156982,142130
922.079,0.044917,179937,162257
925.923,0.045956,200504,180371
929.762,0.046104,222660,200234
933.597,0.046019,244426,219851
937.427,0.045876,263972,237510
941.254,0.046205,281845,253399
945.076,0.045545,297271,267675
950.165,0.045975,315605,283902
953.978,0.045080,328029,295687
957.786,0.045466,340470,306629
961.59,0.045915,352317,316970
965.389,0.045977,363056,326585
969.185,0.046499,373162,335273
972.976,0.047461,382632,343021
976.763,0.047349,391202,350794
981.806,0.048121,400190,358216
985.583,0.048511,406088,363169
989.355,0.049569,410162,365920
993.124,0.050179,412868,367817
996.888,0.050532,414263,368760
1000.65,0.051036,415476,369411
1004.4,0.052208,415479,368418
1009.41,0.054073,414358,365850
1013.15,0.054292,412923,364399
1016.89,0.055132,411526,362464
1020.63,0.054372,409066,360929
1024.36,0.055090,406777,358316
1028.09,0.054397,404427,356815
1031.82,0.054485,401911,354523
1036.78,0.053748,398410,352032
1040.49,0.053432,396204,350338
1044.2,0.053159,394236,348817
1047.91,0.052570,392042,347346
1051.61,0.052567,389823,345383
1055.31,0.052071,388234,344368
1059,0.051277,387599,344434
1063.92,0.050208,386688,344471
1067.61,0.049471,386598,344976
1071.29,0.049164,387377,345915
1074.96,0.048459,388536,347514
1078.63,0.048243,389855,348867
1082.3,0.047137,391215,350977
1085.96,0.046387,393215,353381
1090.84,0.046121,396270,356345
1094.49,0.045511,398760,359088
1098.14,0.045176,400987,361372
1101.79,0.044904,403477,363844
1105.43,0.044698,406116,366397
1109.06,0.044276,407701,368185
1112.7,0.043839,409859,370506
1117.53,0.044474,412494,372343
1121.15,0.045697,414909,373470
1124.77,0.045568,416559,375067
1128.38,0.046609,418532,375941
1131.99,0.047887,419956,376112
1135.6,0.050723,421946,375434
1139.2,0.051802,423881,376220
1143.99,0.054663,426786,376311
1147.58,0.055688,428617,377035
1151.17,0.056786,431169,378322
1154.75,0.057958,433579,379411
1158.33,0.060050,436264,379926
1161.91,0.061607,439132,381055
1165.48,0.064215,442389,381583
1169.04,0.067016,446101,382311
1173.79,0.071162,451929,383626
1177.34,0.073170,456026,385318
1180.9,0.075275,461306,387895
1184.44,0.077324,467657,391384
1187.99,0.078373,473969,395710
1191.52,0.078010,479856,400960
1195.06,0.077773,487372,407462
1199.76,0.076798,497347,416736
1203.29,0.075372,504311,423962
1206.81,0.074845,511507,430533
1210.33,0.074341,519078,437413
1213.84,0.073907,527163,444670
1217.35,0.072889,534208,451670
1220.85,0.072096,540472,457801
1225.51,0.070735,549929,467274
1229.01,0.070139,556888,473837
1232.5,0.069784,562180,478731
1235.98,0.068867,567975,484688
1239.46,0.068217,574815,491260
1242.94,0.067192,582782,499245
1246.41,0.066279,591476,507760
1251.03,0.065961,604016,518905
1254.5,0.066356,612289,525533
1257.96,0.066939,619125,530688
1261.41,0.067165,624551,535060
1264.86,0.067625,629900,539072
1268.31,0.068595,634345,541665
1271.75,0.069348,638574,544331
1276.33,0.069617,642499,547338
1279.76,0.069609,645905,550249
1283.19,0.068614,648307,553563
1286.61,0.068295,650446,555797
1290.03,0.068118,652132,557465
1293.44,0.067776,653907,559423
1296.85,0.067870,655963,561060
1301.39,0.067301,657349,562983
1304.8,0.067568,657558,562815
1308.19,0.067798,658515,563336
1311.58,0.068022,658804,563293
1314.97,0.068870,659011,562371
1318.36,0.069326,658272,561151
1321.73,0.069625,658022,560551
1326.23,0.070780,657870,558934
1329.6,0.071358,656482,557012
1332.97,0.072311,654926,554474
1336.33,0.073827,653727,551530
1339.69,0.075710,652497,548111
1343.04,0.077849,649913,543258
1346.39,0.079567,647671,539247
1349.73,0.082063,645338,534225
1354.18,0.085470,641175,526631
1357.52,0.087977,638376,521314
1360.85,0.089705,635805,517153
1364.17,0.092183,633413,512276
1367.49,0.094256,631026,507915
1370.81,0.097141,628050,502173
1374.12,0.099338,625034,497240
1378.54,0.103249,620272,489027
1381.84,0.106862,616892,482333
1385.14,0.110697,613613,475551
1388.43,0.115375,611526,468856
1391.72,0.120725,610663,462463
1395.01,0.126192,610634,456656
1398.29,0.131395,611700,452005
1402.66,0.139673,614051,445176
1405.93,0.145644,616268,440682
1409.2,0.151804,617795,435552
1412.46,0.157183,618872,430941
1415.72,0.162053,619795,426771
1418.98,0.166461,620495,422939
1422.23,0.170560,621087,419365
1426.56,0.175470,621375,414843
1429.8,0.178586,621616,412037
1433.04,0.181373,622129,409739
1436.27,0.183386,621526,407449
1439.5,0.185812,621113,404910
1442.72,0.188445,620921,402338
1445.94,0.190703,620270,399832
1450.23,0.194650,618860,395314
1453.44,0.197312,617697,392160
1456.64,0.199774,616264,389039
1459.85,0.202685,614413,385279
1463.04,0.205541,612307,381442
1466.24,0.208622,610032,377338
1469.43,0.211833,607345,372909
1473.67,0.216825,603789,366488
1476.85,0.222489,601175,360174
1480.02,0.228381,597737,353288
1483.19,0.234037,594479,346816
1486.36,0.240418,591232,339891
1489.52,0.244899,587853,334480
1492.68,0.247994,583875,329857
1496.89,0.250205,578062,324915
1500.03,0.250951,574159,322167
1503.18,0.251440,570285,319633
1506.32,0.251215,565444,317084
1509.45,0.248795,560571,316108
1512.58,0.247526,555821,314347
1515.71,0.245186,550344,312931
1519.87,0.242157,543983,311479
1522.99,0.239487,538764,310393
1526.1,0.236801,533692,309378
1529.21,0.233970,527902,308023
1532.32,0.230340,521886,307069
1535.42,0.227871,515888,305270
1538.51,0.224676,509987,304007
1541.6,0.222196,503936,302120
1545.72,0.217156,494694,300041
1548.8,0.213738,488378,298551
1551.88,0.211174,481832,296293
1554.95,0.209139,474989,293457
1558.02,0.206477,467818,290804
1561.08,0.205575,460730,286993
1564.15,0.204055,454170,283899
1568.22,0.203537,444181,277986
1571.27,0.202926,436947,273844
1574.32,0.202024,429598,269798
1577.36,0.200114,422039,266219
1580.4,0.199450,414375,261784
1583.43,0.197708,406354,257749
1586.46,0.196224,398475,253616
1590.49,0.193385,388982,249198
1593.51,0.191279,380708,245083
1596.53,0.189104,372727,241150
1599.54,0.186531,365060,237593
1602.55,0.185142,357543,233446
1605.55,0.182798,349495,229426
1608.55,0.180471,341154,225154
1612.54,0.178291,330877,219470
1615.53,0.175997,322904,215316
1618.51,0.175086,315116,210564
1621.49,0.174004,307217,205798
1624.47,0.172094,299481,201500
1627.44,0.171257,292112,196921
1630.41,0.169833,284245,192247
1634.36,0.168412,274079,185979
1637.32,0.167364,266916,181556
1640.27,0.166359,259612,176997
1643.22,0.165133,251804,172159
1646.16,0.164090,244348,167463
1649.1,0.163899,236703,162295
1652.04,0.162757,228171,156857
1655.95,0.160951,215408,148700
1658.88,0.157105,204937,142730
1661.8,0.155019,193395,135340
1664.72,0.149467,179728,127394
1667.63,0.140484,163642,118416
1670.54,0.131768,146312,108022
1673.44,0.119666,128451,97515
1677.31,0.111360,105080,81313
1680.21,0.103349,88906,70078
1683.1,0.103202,75033,59163
1685.99,0.106205,63520,49740
1688.87,0.111788,53714,41524
1691.75,0.122091,45653,34465
1694.62,0.118182,39137,29813
1697.49,0.118861,33776,25689
1701.31,0.140681,28175,20379

File: Column 1_050555_20150331_120202.csv
Method:,Column 1,,
Host Date-Time:,31/3/15 @ 12:2:2,,
Header Version:,1,,
System Temp (C):,33.49,,
Detector Temp (C):,32.52,,
Humidity (%):,2.44,,
Lamp PD:,3820,,
Shift Vector Coefficients:,-10.5391,0.0761263,-0.000134223,,
Pixel to Wavelength Coefficients:,1775.68,-0.916766,-0.000235065,,
Serial Number:,5510004,,
Scan Config Name:,Column 1,,
Scan Config Type:,Slew,,
Section 1,,
Start wavelength (nm):,900,,
End wavelength (nm):,1700,,
Pattern Pixel Width (nm):,   7.03,,,,
Exposure (ms):,  0.635,,,,
Digital Resolution:,228,,
Num Repeats:,6,,
PGA Gain:,64,,
Total Measurement Time in sec:,  2.670,,
Wavelength (nm),Absorbance (AU),Reference Signal (unitless),Sample Signal (unitless)
901.51,0.033567,108485,100416
905.376,0.040783,121306,110433
909.237,0.041499,131909,119888
913.095,0.043136,143299,129750
916.948,0.042303,156982,142412
922.079,0.044596,179937,162377
925.923,0.045631,200504,180506
929.762,0.046328,222660,200131
933.597,0.046406,244426,219655
937.427,0.047218,263972,236777
941.254,0.046754,281845,253079
945.076,0.046921,297271,266828
950.165,0.046240,315605,283729
953.978,0.044681,328029,295959
957.786,0.046812,340470,305680
961.59,0.046520,352317,316529
965.389,0.046895,363056,325896
969.185,0.046586,373162,335206
972.976,0.047487,382632,343000
976.763,0.047887,391202,350360
981.806,0.048417,400190,357972
985.583,0.048991,406088,362768
989.355,0.049629,410162,365870
993.124,0.050153,412868,367839
996.888,0.050845,414263,368495
1000.65,0.051610,415476,368923
1004.4,0.052837,415479,367885
1009.41,0.054239,414358,365710
1013.15,0.054663,412923,364088
1016.89,0.055040,411526,362541
1020.63,0.054877,409066,360509
1024.36,0.054710,406777,358630
1028.09,0.055099,404427,356239
1031.82,0.054505,401911,354507
1036.78,0.053931,398410,351884
1040.49,0.054326,396204,349617
1044.2,0.053698,394236,348384
1047.91,0.053120,392042,346907
1051.61,0.052662,389823,345307
1055.31,0.051960,388234,344456
1059,0.052002,387599,343859
1063.92,0.050982,386688,343858
1067.61,0.049947,386598,344598
1071.29,0.048950,387377,346086
1074.96,0.048842,388536,347208
1078.63,0.047891,389855,349150
1082.3,0.047314,391215,350834
1085.96,0.046184,393215,353546
1090.84,0.045817,396270,356594
1094.49,0.045568,398760,359041
1098.14,0.045582,400987,361034
1101.79,0.045209,403477,363588
1105.43,0.045415,406116,365793
1109.06,0.044496,407701,367998
1112.7,0.044955,409859,369555
1117.53,0.044317,412494,372478
1121.15,0.044755,414909,374281
1124.77,0.045467,416559,375154
1128.38,0.047341,418532,375308
1131.99,0.048444,419956,375630
1135.6,0.050615,421946,375528
1139.2,0.052407,423881,375696
1143.99,0.054839,426786,376159
1147.58,0.055279,428617,377390
1151.17,0.057158,431169,377998
1154.75,0.057994,433579,379380
1158.33,0.059981,436264,379987
1161.91,0.062189,439132,380545
1165.48,0.064585,442389,381258
1169.04,0.066726,446101,382567
1173.79,0.070975,451929,383791
1177.34,0.073188,456026,385302
1180.9,0.075500,461306,387694
1184.44,0.077119,467657,391569
1187.99,0.078197,473969,395870
1191.52,0.078024,479856,400947
1195.06,0.077594,487372,407630
1199.76,0.076702,497347,416829
1203.29,0.076030,504311,423320
1206.81,0.075028,511507,430352
1210.33,0.074290,519078,437464
1213.84,0.073783,527163,444797
1217.35,0.072775,534208,451789
1220.85,0.072109,540472,457788
1225.51,0.070860,549929,467140
1229.01,0.070141,556888,473835
1232.5,0.069761,562180,478756
1235.98,0.069344,567975,484156
1239.46,0.068102,574815,491390
1242.94,0.067067,582782,499389
1246.41,0.066505,591476,507496
1251.03,0.066173,604016,518651
1254.5,0.066370,612289,525517
1257.96,0.067130,619125,530455
1261.41,0.067794,624551,534286
1264.86,0.068072,629900,538517
1268.31,0.068455,634345,541839
1271.75,0.069339,638574,544342
1276.33,0.069541,642499,547433
1279.76,0.069534,645905,550345
1283.19,0.069435,648307,552517
1286.61,0.068820,650446,555125
1290.03,0.068714,652132,556701
1293.44,0.067898,653907,559265
1296.85,0.067929,655963,560984
1301.39,0.067867,657349,562250
1304.8,0.067307,657558,563154
1308.19,0.068033,658515,563031
1311.58,0.068235,658804,563017
1314.97,0.068555,659011,562779
1318.36,0.069525,658272,560894
1321.73,0.069869,658022,560237
1326.23,0.071070,657870,558560
1329.6,0.072056,656482,556118
1332.97,0.072755,654926,553907
1336.33,0.073833,653727,551523
1339.69,0.075857,652497,547926
1343.04,0.078031,649913,543031
1346.39,0.080085,647671,538604
1349.73,0.082292,645338,533944
1354.18,0.085443,641175,526664
1357.52,0.087642,638376,521716
1360.85,0.089796,635805,517045
1364.17,0.092569,633413,511821
1367.49,0.094576,631026,507541
1370.81,0.097034,628050,502297
1374.12,0.099647,625034,496886
1378.54,0.103267,620272,489007
1381.84,0.106825,616892,482374
1385.14,0.110801,613613,475438
1388.43,0.115686,611526,468521
1391.72,0.120600,610663,462596
1395.01,0.126080,610634,456774
1398.29,0.132112,611700,451260
1402.66,0.139837,614051,445008
1405.93,0.146299,616268,440018
1409.2,0.152134,617795,435222
1412.46,0.157749,618872,430380
1415.72,0.162466,619795,426366
1418.98,0.166867,620495,422543
1422.23,0.170668,621087,419261
1426.56,0.175217,621375,415085
1429.8,0.178449,621616,412167
1433.04,0.181465,622129,409652
1436.27,0.183797,621526,407064
1439.5,0.185763,621113,404956
1442.72,0.187717,620921,403013
1445.94,0.190551,620270,399972
1450.23,0.194719,618860,395251
1453.44,0.197201,617697,392260
1456.64,0.200493,616264,388395
1459.85,0.203308,614413,384727
1463.04,0.205157,612307,381779
1466.24,0.208308,610032,377611
1469.43,0.211899,607345,372852
1473.67,0.217223,603789,366153
1476.85,0.222706,601175,359994
1480.02,0.228515,597737,353179
1483.19,0.234527,594479,346425
1486.36,0.240067,591232,340166
1489.52,0.244939,587853,334449
1492.68,0.248952,583875,329130
1496.89,0.251301,578062,324096
1500.03,0.251936,574159,321437
1503.18,0.251133,570285,319859
1506.32,0.250553,565444,317568
1509.45,0.249253,560571,315775
1512.58,0.248113,555821,313922
1515.71,0.245549,550344,312669
1519.87,0.241904,543983,311660
1522.99,0.239796,538764,310172
1526.1,0.236507,533692,309588
1529.21,0.234358,527902,307748
1532.32,0.231192,521886,306467
1535.42,0.227999,515888,305180
1538.51,0.224990,509987,303787
1541.6,0.222419,503936,301965
1545.72,0.217560,494694,299762
1548.8,0.214388,488378,298104
1551.88,0.211228,481832,296256
1554.95,0.209154,474989,293447
1558.02,0.207601,467818,290052
1561.08,0.206163,460730,286605
1564.15,0.205223,454170,283136
1568.22,0.204335,444181,277476
1571.27,0.203335,436947,273586
1574.32,0.201424,429598,270171
1577.36,0.201425,422039,265416
1580.4,0.199509,414375,261749
1583.43,0.198645,406354,257193
1586.46,0.195720,398475,253911
1590.49,0.194063,388982,248809
1593.51,0.191360,380708,245037
1596.53,0.189581,372727,240885
1599.54,0.187803,365060,236898
1602.55,0.185745,357543,233122
1605.55,0.182808,349495,229421
1608.55,0.179719,341154,225544
1612.54,0.177412,330877,219915
1615.53,0.176104,322904,215263
1618.51,0.175270,315116,210475
1621.49,0.173610,307217,205985
1624.47,0.173173,299481,201000
1627.44,0.172291,292112,196453
1630.41,0.170545,284245,191932
1634.36,0.168501,274079,185941
1637.32,0.167405,266916,181539
1640.27,0.167027,259612,176725
1643.22,0.166108,251804,171773
1646.16,0.165784,244348,166811
1649.1,0.164539,236703,162056
1652.04,0.163865,228171,156457
1655.95,0.160495,215408,148856
1658.88,0.158806,204937,142172
1661.8,0.154589,193395,135474
1664.72,0.148092,179728,127798
1667.63,0.140716,163642,118353
1670.54,0.132440,146312,107855
1673.44,0.120933,128451,97231
1677.31,0.107314,105080,82074
1680.21,0.104025,88906,69969
1683.1,0.105012,75033,58917
1685.99,0.108858,63520,49437
1688.87,0.113812,53714,41331
1691.75,0.117765,45653,34810
1694.62,0.124639,39137,29373
1697.49,0.132705,33776,24883
1701.31,0.133873,28175,20701