Folder: textile_sorting_NIRSCAN_/samples/wool/wool-000811 (part 61)

File: Column 1_050564_20150331_120618.csv
Method:,Column 1,,
Host Date-Time:,31/3/15 @ 12:6:18,,
Header Version:,1,,
System Temp (C):,33.85,,
Detector Temp (C):,33.6,,
Humidity (%):,1.95,,
Lamp PD:,3819,,
Shift Vector Coefficients:,-10.5391,0.0761263,-0.000134223,,
Pixel to Wavelength Coefficients:,1775.68,-0.916766,-0.000235065,,
Serial Number:,5510004,,
Scan Config Name:,Column 1,,
Scan Config Type:,Slew,,
Section 1,,
Start wavelength (nm):,900,,
End wavelength (nm):,1700,,
Pattern Pixel Width (nm):,   7.03,,,,
Exposure (ms):,  0.635,,,,
Digital Resolution:,228,,
Num Repeats:,6,,
PGA Gain:,64,,
Total Measurement Time in sec:,  2.687,,
Wavelength (nm),Absorbance (AU),Reference Signal (unitless),Sample Signal (unitless)
901.51,0.034537,108485,100192
905.376,0.039990,121306,110635
909.237,0.041901,131909,119777
913.095,0.043330,143299,129692
916.948,0.043198,156982,142119
922.079,0.047462,179937,161309
925.923,0.046942,200504,179962
929.762,0.048056,222660,199336
933.597,0.048561,244426,218568
937.427,0.047391,263972,236683
941.254,0.046926,281845,252979
945.076,0.046111,297271,267326
950.165,0.046029,315605,283867
953.978,0.045719,328029,295252
957.786,0.045420,340470,306661
961.59,0.046125,352317,316817
965.389,0.046361,363056,326297
969.185,0.046828,373162,335019
972.976,0.046647,382632,343664
976.763,0.047775,391202,350450
981.806,0.048546,400190,357866
985.583,0.048723,406088,362992
989.355,0.049071,410162,366340
993.124,0.049884,412868,368067
996.888,0.050522,414263,368769
1000.65,0.051214,415476,369260
1004.4,0.052555,415479,368124
1009.41,0.053897,414358,365998
1013.15,0.054089,412923,364569
1016.89,0.055043,411526,362539
1020.63,0.055147,409066,360285
1024.36,0.054672,406777,358661
1028.09,0.054639,404427,356616
1031.82,0.054304,401911,354671
1036.78,0.054018,398410,351813
1040.49,0.053241,396204,350492
1044.2,0.053200,394236,348784
1047.91,0.053186,392042,346854
1051.61,0.051928,389823,345891
1055.31,0.051212,388234,345050
1059,0.050912,387599,344723
1063.92,0.049666,386688,344901
1067.61,0.049117,386598,345257
1071.29,0.049089,387377,345975
1074.96,0.047865,388536,347990
1078.63,0.048283,389855,348835
1082.3,0.047071,391215,351030
1085.96,0.045891,393215,353785
1090.84,0.045627,396270,356750
1094.49,0.045639,398760,358982
1098.14,0.044815,400987,361672
1101.79,0.044178,403477,364452
1105.43,0.044537,406116,366533
1109.06,0.044236,407701,368219
1112.7,0.043899,409859,370455
1117.53,0.044124,412494,372644
1121.15,0.044865,414909,374186
1124.77,0.045443,416559,375175
1128.38,0.046713,418532,375851
1131.99,0.047926,419956,376078
1135.6,0.049621,421946,376388
1139.2,0.051323,423881,376635
1143.99,0.053673,426786,377170
1147.58,0.055123,428617,377526
1151.17,0.055985,431169,379020
1154.75,0.057192,433579,380081
1158.33,0.059423,436264,380475
1161.91,0.061194,439132,381418
1165.48,0.063166,442389,382506
1169.04,0.066555,446101,382717
1173.79,0.070132,451929,384537
1177.34,0.072659,456026,385772
1180.9,0.074365,461306,388709
1184.44,0.076810,467657,391848
1187.99,0.077567,473969,396445
1191.52,0.077555,479856,401380
1195.06,0.076790,487372,408386
1199.76,0.075829,497347,417667
1203.29,0.075350,504311,423983
1206.81,0.074781,511507,430597
1210.33,0.073538,519078,438222
1213.84,0.072719,527163,445888
1217.35,0.071721,534208,452887
1220.85,0.071274,540472,458669
1225.51,0.070322,549929,467719
1229.01,0.069716,556888,474299
1232.5,0.068923,562180,479681
1235.98,0.068476,567975,485125
1239.46,0.067395,574815,492190
1242.94,0.066112,582782,500488
1246.41,0.065912,591476,508189
1251.03,0.065695,604016,519223
1254.5,0.065690,612289,526340
1257.96,0.066255,619125,531525
1261.41,0.066599,624551,535758
1264.86,0.067303,629900,539472
1268.31,0.067985,634345,542426
1271.75,0.069148,638574,544582
1276.33,0.069162,642499,547911
1279.76,0.069058,645905,550948
1283.19,0.068582,648307,553603
1286.61,0.068818,650446,555128
1290.03,0.067581,652132,558154
1293.44,0.067261,653907,560086
1296.85,0.067410,655963,561654
1301.39,0.066951,657349,563436
1304.8,0.067171,657558,563330
1308.19,0.067079,658515,564270
1311.58,0.067154,658804,564420
1314.97,0.067689,659011,563902
1318.36,0.068413,658272,562332
1321.73,0.068615,658022,561857
1326.23,0.069355,657870,560770
1329.6,0.070545,656482,558056
1332.97,0.071506,654926,555503
1336.33,0.072364,653727,553392
1339.69,0.074586,652497,549532
1343.04,0.076237,649913,545278
1346.39,0.078380,647671,540723
1349.73,0.080646,645338,535971
1354.18,0.083878,641175,528565
1357.52,0.086147,638376,523515
1360.85,0.088191,635805,518959
1364.17,0.090623,633413,514119
1367.49,0.093318,631026,509013
1370.81,0.095360,628050,504236
1374.12,0.097976,625034,498801
1378.54,0.101182,620272,491360
1381.84,0.104719,616892,484719
1385.14,0.108366,613613,478111
1388.43,0.113421,611526,470971
1391.72,0.117808,610663,465579
1395.01,0.122916,610634,460113
1398.29,0.128453,611700,455078
1402.66,0.135816,614051,449147
1405.93,0.141802,616268,444598
1409.2,0.146870,617795,440529
1412.46,0.152159,618872,435955
1415.72,0.156823,619795,431942
1418.98,0.160926,620495,428363
1422.23,0.164926,621087,424841
1426.56,0.168652,621375,421407
1429.8,0.171591,621616,418727
1433.04,0.174180,622129,416582
1436.27,0.176645,621526,413823
1439.5,0.178871,621113,411433
1442.72,0.181528,620921,408798
1445.94,0.184542,620270,405545
1450.23,0.187497,618860,401879
1453.44,0.190999,617697,397902
1456.64,0.193332,616264,394852
1459.85,0.196548,614413,390762
1463.04,0.199393,612307,386880
1466.24,0.203094,610032,382172
1469.43,0.206814,607345,377243
1473.67,0.212310,603789,370318
1476.85,0.217765,601175,364113
1480.02,0.224096,597737,356791
1483.19,0.230976,594479,349269
1486.36,0.236337,591232,343100
1489.52,0.241854,587853,336833
1492.68,0.245004,583875,332136
1496.89,0.247409,578062,327013
1500.03,0.248222,574159,324198
1503.18,0.248625,570285,321712
1506.32,0.247991,565444,319447
1509.45,0.246516,560571,317771
1512.58,0.244998,555821,316182
1515.71,0.242366,550344,314969
1519.87,0.239166,543983,313631
1522.99,0.236343,538764,312648
1526.1,0.233767,533692,311547
1529.21,0.230776,527902,310297
1532.32,0.227551,521886,309047
1535.42,0.225049,515888,307260
1538.51,0.221757,509987,306057
1541.6,0.217989,503936,305061
1545.72,0.213175,494694,302804
1548.8,0.210360,488378,300882
1551.88,0.208420,481832,298178
1554.95,0.205593,474989,295863
1558.02,0.203905,467818,292531
1561.08,0.202474,460730,289050
1564.15,0.202431,454170,284962
1568.22,0.201085,444181,279560
1571.27,0.199740,436947,275860
1574.32,0.199069,429598,271640
1577.36,0.197544,422039,267799
1580.4,0.196111,414375,263805
1583.43,0.194453,406354,259688
1586.46,0.193233,398475,255369
1590.49,0.190247,388982,251005
1593.51,0.188611,380708,246593
1596.53,0.186038,372727,242858
1599.54,0.183774,365060,239106
1602.55,0.181559,357543,235380
1605.55,0.179147,349495,231363
1608.55,0.177124,341154,226896
1612.54,0.175304,330877,220985
1615.53,0.172522,322904,217046
1618.51,0.172090,315116,212022
1621.49,0.170970,307217,207241
1624.47,0.170114,299481,202421
1627.44,0.168347,292112,198245
1630.41,0.168001,284245,193060
1634.36,0.165667,274079,187158
1637.32,0.164910,266916,182585
1640.27,0.164723,259612,177665
1643.22,0.162919,251804,173039
1646.16,0.161502,244348,168464
1649.1,0.161939,236703,163029
1652.04,0.159994,228171,157858
1655.95,0.157127,215408,150015
1658.88,0.154548,204937,143573
1661.8,0.149535,193395,137060
1664.72,0.142681,179728,129400
1667.63,0.133510,163642,120333
1670.54,0.123631,146312,110065
1673.44,0.109050,128451,99928
1677.31,0.092403,105080,84941
1680.21,0.089318,88906,72379
1683.1,0.083470,75033,61913
1685.99,0.089244,63520,51721
1688.87,0.095761,53714,43085
1691.75,0.101265,45653,36158
1694.62,0.107193,39137,30577
1697.49,0.105871,33776,26469
1701.31,0.119308,28175,21407

File: Column 1_050564_20150331_120621.csv
Method:,Column 1,,
Host Date-Time:,31/3/15 @ 12:6:21,,
Header Version:,1,,
System Temp (C):,33.85,,
Detector Temp (C):,33.55,,
Humidity (%):,1.95,,
Lamp PD:,3819,,
Shift Vector Coefficients:,-10.5391,0.0761263,-0.000134223,,
Pixel to Wavelength Coefficients:,1775.68,-0.916766,-0.000235065,,
Serial Number:,5510004,,
Scan Config Name:,Column 1,,
Scan Config Type:,Slew,,
Section 1,,
Start wavelength (nm):,900,,
End wavelength (nm):,1700,,
Pattern Pixel Width (nm):,   7.03,,,,
Exposure (ms):,  0.635,,,,
Digital Resolution:,228,,
Num Repeats:,6,,
PGA Gain:,64,,
Total Measurement Time in sec:,  2.688,,
Wavelength (nm),Absorbance (AU),Reference Signal (unitless),Sample Signal (unitless)
901.51,0.033675,108485,100391
905.376,0.037785,121306,111198
909.237,0.042068,131909,119731
913.095,0.042928,143299,129812
916.948,0.043763,156982,141934
922.079,0.046013,179937,161848
925.923,0.046532,200504,180132
929.762,0.047530,222660,199578
933.597,0.047628,244426,219038
937.427,0.047141,263972,236819
941.254,0.046761,281845,253075
945.076,0.045366,297271,267785
950.165,0.045544,315605,284184
953.978,0.045696,328029,295268
957.786,0.046098,340470,306183
961.59,0.045332,352317,317396
965.389,0.045735,363056,326767
969.185,0.046030,373162,335635
972.976,0.046752,382632,343581
976.763,0.047366,391202,350780
981.806,0.047733,400190,358536
985.583,0.048498,406088,363180
989.355,0.049307,410162,366141
993.124,0.049584,412868,368322
996.888,0.050377,414263,368892
1000.65,0.051037,415476,369410
1004.4,0.052312,415479,368330
1009.41,0.053175,414358,366607
1013.15,0.053556,412923,365017
1016.89,0.054424,411526,363056
1020.63,0.054250,409066,361030
1024.36,0.054153,406777,359090
1028.09,0.054028,404427,357118
1031.82,0.053648,401911,355207
1036.78,0.053289,398410,352404
1040.49,0.053221,396204,350508
1044.2,0.052580,394236,349282
1047.91,0.052222,392042,347625
1051.61,0.052475,389823,345456
1055.31,0.051419,388234,344885
1059,0.050210,387599,345281
1063.92,0.049537,386688,345004
1067.61,0.048731,386598,345564
1071.29,0.047901,387377,346923
1074.96,0.047835,388536,348014
1078.63,0.047662,389855,349334
1082.3,0.046438,391215,351542
1085.96,0.045496,393215,354107
1090.84,0.045541,396270,356821
1094.49,0.044693,398760,359765
1098.14,0.044651,400987,361809
1101.79,0.043902,403477,364684
1105.43,0.044202,406116,366816
1109.06,0.043397,407701,368931
1112.7,0.044268,409859,370140
1117.53,0.043615,412494,373081
1121.15,0.044619,414909,374398
1124.77,0.045116,416559,375457
1128.38,0.046527,418532,376012
1131.99,0.047259,419956,376656
1135.6,0.049840,421946,376198
1139.2,0.051211,423881,376732
1143.99,0.053822,426786,377041
1147.58,0.054699,428617,377894
1151.17,0.055539,431169,379410
1154.75,0.057020,433579,380232
1158.33,0.058954,436264,380886
1161.91,0.061203,439132,381410
1165.48,0.063388,442389,382311
1169.04,0.066341,446101,382906
1173.79,0.069266,451929,385305
1177.34,0.072223,456026,386159
1180.9,0.074220,461306,388838
1184.44,0.075590,467657,392950
1187.99,0.076696,473969,397241
1191.52,0.076693,479856,402178
1195.06,0.076457,487372,408699
1199.76,0.075788,497347,417707
1203.29,0.074625,504311,424691
1206.81,0.074073,511507,431299
1210.33,0.073603,519078,438157
1213.84,0.072419,527163,446196
1217.35,0.071769,534208,452836
1220.85,0.070654,540472,459324
1225.51,0.070088,549929,467971
1229.01,0.069460,556888,474578
1232.5,0.068655,562180,479977
1235.98,0.068051,567975,485600
1239.46,0.067304,574815,492294
1242.94,0.065745,582782,500912
1246.41,0.065347,591476,508850
1251.03,0.065261,604016,519742
1254.5,0.065162,612289,526980
1257.96,0.065913,619125,531943
1261.41,0.066541,624551,535830
1264.86,0.067436,629900,539307
1268.31,0.067697,634345,542786
1271.75,0.068463,638574,545441
1276.33,0.068485,642499,548766
1279.76,0.068737,645905,551355
1283.19,0.068022,648307,554318
1286.61,0.067960,650446,556226
1290.03,0.067545,652132,558201
1293.44,0.067042,653907,560369
1296.85,0.066893,655963,562324
1301.39,0.066479,657349,564049
1304.8,0.066447,657558,564270
1308.19,0.066472,658515,565059
1311.58,0.067042,658804,564565
1314.97,0.067866,659011,563672
1318.36,0.068168,658272,562649
1321.73,0.068188,658022,562409
1326.23,0.069698,657870,560328
1329.6,0.070340,656482,558320
1332.97,0.071146,654926,555964
1336.33,0.072496,653727,553223
1339.69,0.074217,652497,549998
1343.04,0.075775,649913,545859
1346.39,0.078025,647671,541165
1349.73,0.080353,645338,536333
1354.18,0.083533,641175,528985
1357.52,0.085943,638376,523761
1360.85,0.088178,635805,518974
1364.17,0.090286,633413,514519
1367.49,0.092584,631026,509874
1370.81,0.095453,628050,504129
1374.12,0.097725,625034,499090
1378.54,0.100853,620272,491733
1381.84,0.104573,616892,484882
1385.14,0.108582,613613,477873
1388.43,0.112821,611526,471622
1391.72,0.117753,610663,465638
1395.01,0.122616,610634,460431
1398.29,0.127940,611700,455615
1402.66,0.135346,614051,449633
1405.93,0.140931,616268,445491
1409.2,0.146697,617795,440704
1412.46,0.151643,618872,436473
1415.72,0.156177,619795,432585
1418.98,0.160964,620495,428326
1422.23,0.164277,621087,425476
1426.56,0.168764,621375,421298
1429.8,0.170894,621616,419400
1433.04,0.174257,622129,416508
1436.27,0.176659,621526,413809
1439.5,0.178530,621113,411757
1442.72,0.181198,620921,409108
1445.94,0.184168,620270,405894
1450.23,0.187448,618860,401924
1453.44,0.190143,617697,398687
1456.64,0.193018,616264,395138
1459.85,0.196227,614413,391051
1463.04,0.198737,612307,387465
1466.24,0.202270,610032,382898
1469.43,0.205895,607345,378042
1473.67,0.211742,603789,370803
1476.85,0.217567,601175,364279
1480.02,0.223537,597737,357251
1483.19,0.230351,594479,349772
1486.36,0.236246,591232,343172
1489.52,0.241617,587853,337017
1492.68,0.245044,583875,332105
1496.89,0.247848,578062,326683
1500.03,0.247682,574159,324601
1503.18,0.248134,570285,322076
1506.32,0.246652,565444,320433
1509.45,0.245989,560571,318157
1512.58,0.244893,555821,316258
1515.71,0.242229,550344,315069
1519.87,0.238513,543983,314103
1522.99,0.235807,538764,313034
1526.1,0.233071,533692,312047
1529.21,0.230081,527902,310794
1532.32,0.227262,521886,309253
1535.42,0.224398,515888,307721
1538.51,0.221042,509987,306561
1541.6,0.218182,503936,304925
1545.72,0.213374,494694,302665
1548.8,0.210345,488378,300892
1551.88,0.207197,481832,299019
1554.95,0.205055,474989,296230
1558.02,0.203823,467818,292586
1561.08,0.202008,460730,289360
1564.15,0.202038,454170,285220
1568.22,0.200444,444181,279973
1571.27,0.199663,436947,275909
1574.32,0.198380,429598,272071
1577.36,0.197539,422039,267802
1580.4,0.195969,414375,263891
1583.43,0.194729,406354,259523
1586.46,0.192166,398475,255997
1590.49,0.189516,388982,251428
1593.51,0.187795,380708,247057
1596.53,0.185745,372727,243022
1599.54,0.183549,365060,239230
1602.55,0.180917,357543,235728
1605.55,0.179673,349495,231083
1608.55,0.177135,341154,226890
1612.54,0.174501,330877,221394
1615.53,0.172618,322904,216998
1618.51,0.171875,315116,212127
1621.49,0.169528,307217,207930
1624.47,0.169325,299481,202789
1627.44,0.168413,292112,198215
1630.41,0.166980,284245,193514
1634.36,0.165549,274079,187209
1637.32,0.164049,266916,182947
1640.27,0.163932,259612,177989
1643.22,0.161573,251804,173576
1646.16,0.162728,244348,167989
1649.1,0.161191,236703,163310
1652.04,0.159384,228171,158080
1655.95,0.157240,215408,149976
1658.88,0.152968,204937,144096
1661.8,0.149617,193395,137034
1664.72,0.142836,179728,129354
1667.63,0.133979,163642,120203
1670.54,0.120728,146312,110803
1673.44,0.107636,128451,100254
1677.31,0.092531,105080,84916
1680.21,0.086555,88906,72841
1683.1,0.083723,75033,61877
1685.99,0.085531,63520,52165
1688.87,0.091828,53714,43477
1691.75,0.096855,45653,36527
1694.62,0.099074,39137,31154
1697.49,0.101674,33776,26726
1701.31,0.109043,28175,21919

File: Column 1_050564_20150331_120624.csv
Method:,Column 1,,
Host Date-Time:,31/3/15 @ 12:6:24,,
Header Version:,1,,
System Temp (C):,33.86,,
Detector Temp (C):,33.6,,
Humidity (%):,2,,
Lamp PD:,3818,,
Shift Vector Coefficients:,-10.5391,0.0761263,-0.000134223,,
Pixel to Wavelength Coefficients:,1775.68,-0.916766,-0.000235065,,
Serial Number:,5510004,,
Scan Config Name:,Column 1,,
Scan Config Type:,Slew,,
Section 1,,
Start wavelength (nm):,900,,
End wavelength (nm):,1700,,
Pattern Pixel Width (nm):,   7.03,,,,
Exposure (ms):,  0.635,,,,
Digital Resolution:,228,,
Num Repeats:,6,,
PGA Gain:,64,,
Total Measurement Time in sec:,  2.725,,
Wavelength (nm),Absorbance (AU),Reference Signal (unitless),Sample Signal (unitless)
901.51,0.035087,108485,100065
905.376,0.040536,121306,110496
909.237,0.044133,131909,119163
913.095,0.044624,143299,129306
916.948,0.044158,156982,141805
922.079,0.045844,179937,161911
925.923,0.046670,200504,180075
929.762,0.047273,222660,199696
933.597,0.048386,244426,218656
937.427,0.046879,263972,236962
941.254,0.046696,281845,253113
945.076,0.046311,297271,267203
950.165,0.046188,315605,283763
953.978,0.045702,328029,295264
957.786,0.046211,340470,306103
961.59,0.046495,352317,316547
965.389,0.046423,363056,326250
969.185,0.046399,373162,335350
972.976,0.047181,382632,343242
976.763,0.047224,391202,350895
981.806,0.048403,400190,357984
985.583,0.048363,406088,363293
989.355,0.049011,410162,366391
993.124,0.049683,412868,368238
996.888,0.050457,414263,368824
1000.65,0.051524,415476,368996
1004.4,0.052310,415479,368332
1009.41,0.053269,414358,366528
1013.15,0.054648,412923,364100
1016.89,0.055025,411526,362554
1020.63,0.054785,409066,360586
1024.36,0.054931,406777,358447
1028.09,0.054385,404427,356825
1031.82,0.054793,401911,354272
1036.78,0.053857,398410,351944
1040.49,0.053566,396204,350230
1044.2,0.053657,394236,348417
1047.91,0.052668,392042,347268
1051.61,0.052247,389823,345637
1055.31,0.051742,388234,344629
1059,0.051066,387599,344601
1063.92,0.050038,386688,344606
1067.61,0.049082,386598,345285
1071.29,0.048792,387377,346212
1074.96,0.048159,388536,347754
1078.63,0.047604,389855,349381
1082.3,0.046938,391215,351138
1085.96,0.046021,393215,353679
1090.84,0.045340,396270,356986
1094.49,0.045068,398760,359454
1098.14,0.045431,400987,361160
1101.79,0.044889,403477,363856
1105.43,0.044608,406116,366473
1109.06,0.043693,407701,368679
1112.7,0.043815,409859,370527
1117.53,0.043539,412494,373146
1121.15,0.044587,414909,374426
1124.77,0.044990,416559,375566
1128.38,0.045996,418532,376472
1131.99,0.047786,419956,376199
1135.6,0.049885,421946,376159
1139.2,0.050860,423881,377037
1143.99,0.054125,426786,376778
1147.58,0.055373,428617,377308
1151.17,0.056004,431169,379004
1154.75,0.057863,433579,379494
1158.33,0.058919,436264,380917
1161.91,0.060934,439132,381646
1165.48,0.063918,442389,381844
1169.04,0.066035,446101,383176
1173.79,0.069945,451929,384703
1177.34,0.072517,456026,385898
1180.9,0.074487,461306,388599
1184.44,0.076968,467657,391705
1187.99,0.077178,473969,396800
1191.52,0.077110,479856,401792
1195.06,0.076925,487372,408259
1199.76,0.075959,497347,417542
1203.29,0.075077,504311,424250
1206.81,0.074212,511507,431161
1210.33,0.073423,519078,438339
1213.84,0.072770,527163,445836
1217.35,0.071939,534208,452659
1220.85,0.070950,540472,459011
1225.51,0.070198,549929,467852
1229.01,0.069497,556888,474538
1232.5,0.068811,562180,479805
1235.98,0.068544,567975,485049
1239.46,0.067645,574815,491907
1242.94,0.066019,582782,500596
1246.41,0.065402,591476,508786
1251.03,0.065586,604016,519353
1254.5,0.065473,612289,526603
1257.96,0.065928,619125,531925
1261.41,0.066809,624551,535499
1264.86,0.067380,629900,539376
1268.31,0.067842,634345,542605
1271.75,0.069055,638574,544698
1276.33,0.069261,642499,547787
1279.76,0.069010,645905,551009
1283.19,0.068244,648307,554035
1286.61,0.068242,650446,555865
1290.03,0.067620,652132,558105
1293.44,0.067295,653907,560043
1296.85,0.066653,655963,562634
1301.39,0.066485,657349,564042
1304.8,0.066864,657558,563728
1308.19,0.067184,658515,564133
1311.58,0.066941,658804,564697
1314.97,0.068117,659011,563347
1318.36,0.068083,658272,562759
1321.73,0.068684,658022,561767
1326.23,0.069389,657870,560726
1329.6,0.070445,656482,558184
1332.97,0.071376,654926,555669
1336.33,0.072821,653727,552809
1339.69,0.074669,652497,549427
1343.04,0.076017,649913,545555
1346.39,0.078208,647671,540937
1349.73,0.080281,645338,536422
1354.18,0.083865,641175,528581
1357.52,0.085715,638376,524036
1360.85,0.088265,635805,518871
1364.17,0.090730,633413,513993
1367.49,0.093161,631026,509197
1370.81,0.095461,628050,504119
1374.12,0.097713,625034,499103
1378.54,0.101208,620272,491331
1381.84,0.104694,616892,484747
1385.14,0.108322,613613,478159
1388.43,0.113014,611526,471412
1391.72,0.117744,610663,465648
1395.01,0.122895,610634,460136
1398.29,0.127759,611700,455805
1402.66,0.135439,614051,449537
1405.93,0.141359,616268,445052
1409.2,0.147276,617795,440117
1412.46,0.152050,618872,436065
1415.72,0.156534,619795,432229
1418.98,0.160614,620495,428671
1422.23,0.164237,621087,425516
1426.56,0.168999,621375,421070
1429.8,0.171611,621616,418708
1433.04,0.173801,622129,416946
1436.27,0.176837,621526,413640
1439.5,0.179033,621113,411280
1442.72,0.181677,620921,408657
1445.94,0.184023,620270,406030
1450.23,0.187834,618860,401567
1453.44,0.190239,617697,398599
1456.64,0.193708,616264,394511
1459.85,0.196414,614413,390883
1463.04,0.199370,612307,386900
1466.24,0.202771,610032,382456
1469.43,0.206828,607345,377231
1473.67,0.212713,603789,369975
1476.85,0.217520,601175,364318
1480.02,0.223984,597737,356883
1483.19,0.230412,594479,349723
1486.36,0.236606,591232,342888
1489.52,0.241430,587853,337162
1492.68,0.245110,583875,332055
1496.89,0.248271,578062,326365
1500.03,0.248566,574159,323941
1503.18,0.248105,570285,322097
1506.32,0.247508,565444,319802
1509.45,0.246561,560571,317738
1512.58,0.244162,555821,316791
1515.71,0.242251,550344,315053
1519.87,0.239173,543983,313626
1522.99,0.236879,538764,312262
1526.1,0.234132,533692,311285
1529.21,0.231201,527902,309993
1532.32,0.227547,521886,309050
1535.42,0.224515,515888,307638
1538.51,0.221964,509987,305911
1541.6,0.218764,503936,304517
1545.72,0.214011,494694,302222
1548.8,0.210816,488378,300566
1551.88,0.207570,481832,298762
1554.95,0.205449,474989,295961
1558.02,0.203875,467818,292551
1561.08,0.202550,460730,288999
1564.15,0.202668,454170,284807
1568.22,0.200511,444181,279930
1571.27,0.199716,436947,275875
1574.32,0.199843,429598,271156
1577.36,0.197187,422039,268019
1580.4,0.196201,414375,263750
1583.43,0.194197,406354,259841
1586.46,0.192789,398475,255630
1590.49,0.190664,388982,250764
1593.51,0.188108,380708,246879
1596.53,0.186047,372727,242853
1599.54,0.184512,365060,238700
1602.55,0.181450,357543,235439
1605.55,0.179857,349495,230985
1608.55,0.176930,341154,226997
1612.54,0.175009,330877,221135
1615.53,0.173273,322904,216671
1618.51,0.172588,315116,211779
1621.49,0.171202,307217,207130
1624.47,0.169184,299481,202855
1627.44,0.168424,292112,198210
1630.41,0.168543,284245,192819
1634.36,0.166413,274079,186837
1637.32,0.164879,266916,182598
1640.27,0.163983,259612,177968
1643.22,0.163032,251804,172994
1646.16,0.162837,244348,167947
1649.1,0.161734,236703,163106
1652.04,0.159793,228171,157931
1655.95,0.157672,215408,149827
1658.88,0.154218,204937,143682
1661.8,0.149652,193395,137023
1664.72,0.146112,179728,128382
1667.63,0.134826,163642,119969
1670.54,0.121015,146312,110730
1673.44,0.110204,128451,99663
1677.31,0.094715,105080,84490
1680.21,0.085900,88906,72951
1683.1,0.087190,75033,61385
1685.99,0.087425,63520,51938
1688.87,0.092688,53714,43391
1691.75,0.096487,45653,36558
1694.62,0.101562,39137,30976
1697.49,0.112451,33776,26071
1701.31,0.119613,28175,21392