Folder: textile_sorting_NIRSCAN_/samples/wool/wool-000811 (part 89)

File: Column 1_050579_20150331_121326.csv
Method:,Column 1,,
Host Date-Time:,31/3/15 @ 12:13:26,,
Header Version:,1,,
System Temp (C):,33.79,,
Detector Temp (C):,34.64,,
Humidity (%):,2.05,,
Lamp PD:,3819,,
Shift Vector Coefficients:,-10.5391,0.0761263,-0.000134223,,
Pixel to Wavelength Coefficients:,1775.68,-0.916766,-0.000235065,,
Serial Number:,5510004,,
Scan Config Name:,Column 1,,
Scan Config Type:,Slew,,
Section 1,,
Start wavelength (nm):,900,,
End wavelength (nm):,1700,,
Pattern Pixel Width (nm):,   7.03,,,,
Exposure (ms):,  0.635,,,,
Digital Resolution:,228,,
Num Repeats:,6,,
PGA Gain:,64,,
Total Measurement Time in sec:,  2.730,,
Wavelength (nm),Absorbance (AU),Reference Signal (unitless),Sample Signal (unitless)
901.51,0.071657,108485,91984
905.376,0.076356,121306,101748
909.237,0.080171,131909,109674
913.095,0.081910,143299,118668
916.948,0.082013,156982,129968
922.079,0.083584,179937,148435
925.923,0.084053,200504,165223
929.762,0.084937,222660,183107
933.597,0.084742,244426,201097
937.427,0.083807,263972,217646
941.254,0.083711,281845,232434
945.076,0.081535,297271,246387
950.165,0.082297,315605,261124
953.978,0.080256,328029,272682
957.786,0.081663,340470,282108
961.59,0.080878,352317,292453
965.389,0.081528,363056,300916
969.185,0.081348,373162,309421
972.976,0.081845,382632,316910
976.763,0.082025,391202,323874
981.806,0.082697,400190,330803
985.583,0.083652,406088,334941
989.355,0.083712,410162,338254
993.124,0.083931,412868,340314
996.888,0.084593,414263,340944
1000.65,0.085316,415476,341374
1004.4,0.085662,415479,341104
1009.41,0.087785,414358,338525
1013.15,0.087971,412923,337208
1016.89,0.088769,411526,335450
1020.63,0.088249,409066,333845
1024.36,0.088779,406777,331572
1028.09,0.087813,404427,330390
1031.82,0.088336,401911,327940
1036.78,0.087979,398410,325350
1040.49,0.087371,396204,324002
1044.2,0.088363,394236,321657
1047.91,0.086813,392042,321011
1051.61,0.087081,389823,318997
1055.31,0.086875,388234,317847
1059,0.086042,387599,317937
1063.92,0.085643,386688,317481
1067.61,0.084532,386598,318220
1071.29,0.084300,387377,319032
1074.96,0.083602,388536,320501
1078.63,0.082965,389855,322061
1082.3,0.082427,391215,323585
1085.96,0.082126,393215,325465
1090.84,0.081007,396270,328840
1094.49,0.080253,398760,331481
1098.14,0.080261,400987,333326
1101.79,0.079098,403477,336295
1105.43,0.078907,406116,338644
1109.06,0.078155,407701,340555
1112.7,0.078420,409859,342148
1117.53,0.077813,412494,344830
1121.15,0.078406,414909,346375
1124.77,0.078196,416559,347921
1128.38,0.079724,418532,348341
1131.99,0.080563,419956,348852
1135.6,0.081940,421946,349395
1139.2,0.083346,423881,349863
1143.99,0.085670,426786,350381
1147.58,0.086276,428617,351393
1151.17,0.086981,431169,352912
1154.75,0.088622,433579,353546
1158.33,0.089872,436264,354713
1161.91,0.092037,439132,355270
1165.48,0.093736,442389,356507
1169.04,0.095810,446101,357786
1173.79,0.099791,451929,359153
1177.34,0.101494,456026,360990
1180.9,0.103005,461306,363902
1184.44,0.104990,467657,367229
1187.99,0.106251,473969,371107
1191.52,0.105645,479856,376241
1195.06,0.106192,487372,381653
1199.76,0.105582,497347,390012
1203.29,0.104665,504311,396309
1206.81,0.104107,511507,402480
1210.33,0.103347,519078,409153
1213.84,0.103200,527163,415666
1217.35,0.102380,534208,422017
1220.85,0.102164,540472,427178
1225.51,0.101112,549929,435707
1229.01,0.100295,556888,442051
1232.5,0.099444,562180,447128
1235.98,0.099467,567975,451713
1239.46,0.098024,574815,458674
1242.94,0.097742,582782,465333
1246.41,0.097129,591476,472942
1251.03,0.096693,604016,483454
1254.5,0.096578,612289,490206
1257.96,0.097340,619125,494810
1261.41,0.097544,624551,498912
1264.86,0.098115,629900,502524
1268.31,0.098508,634345,505612
1271.75,0.099397,638574,507942
1276.33,0.099492,642499,510953
1279.76,0.099632,645905,513496
1283.19,0.098882,648307,516296
1286.61,0.099203,650446,517617
1290.03,0.098093,652132,520286
1293.44,0.097930,653907,521899
1296.85,0.097638,655963,523891
1301.39,0.097467,657349,525205
1304.8,0.097838,657558,524923
1308.19,0.097786,658515,525750
1311.58,0.098179,658804,525505
1314.97,0.098508,659011,525272
1318.36,0.099160,658272,523896
1321.73,0.099136,658022,523726
1326.23,0.100783,657870,521624
1329.6,0.101240,656482,519975
1332.97,0.102603,654926,517117
1336.33,0.103557,653727,515038
1339.69,0.105249,652497,512070
1343.04,0.107186,649913,507773
1346.39,0.109282,647671,503585
1349.73,0.110769,645338,500056
1354.18,0.114284,641175,492825
1357.52,0.115983,638376,488758
1360.85,0.118036,635805,484493
1364.17,0.120145,633413,480332
1367.49,0.122400,631026,476044
1370.81,0.124490,628050,471524
1374.12,0.126938,625034,466622
1378.54,0.129811,620272,460014
1381.84,0.133282,616892,453865
1385.14,0.136979,613613,447626
1388.43,0.141597,611526,441385
1391.72,0.146800,610663,435513
1395.01,0.151962,610634,430347
1398.29,0.156642,611700,426478
1402.66,0.164941,614051,420014
1405.93,0.170493,616268,416176
1409.2,0.176040,617795,411912
1412.46,0.181456,618872,407516
1415.72,0.186393,619795,403511
1418.98,0.190871,620495,399823
1422.23,0.195100,621087,396326
1426.56,0.198338,621375,393564
1429.8,0.201415,621616,390937
1433.04,0.204210,622129,388750
1436.27,0.206376,621526,386441
1439.5,0.208756,621113,384074
1442.72,0.211527,620921,381513
1445.94,0.213209,620270,379640
1450.23,0.216149,618860,376221
1453.44,0.218688,617697,373325
1456.64,0.221919,616264,369699
1459.85,0.224513,614413,366393
1463.04,0.227006,612307,363047
1466.24,0.229987,610032,359224
1469.43,0.232519,607345,355563
1473.67,0.237843,603789,349174
1476.85,0.242653,601175,343833
1480.02,0.247462,597737,338102
1483.19,0.252636,594479,332277
1486.36,0.257259,591232,326963
1489.52,0.261314,587853,322073
1492.68,0.263666,583875,318166
1496.89,0.266229,578062,313145
1500.03,0.266370,574159,310930
1503.18,0.266460,570285,308768
1506.32,0.265275,565444,306983
1509.45,0.263604,560571,305511
1512.58,0.262945,555821,303382
1515.71,0.260446,550344,302126
1519.87,0.257573,543983,300616
1522.99,0.255158,538764,299392
1526.1,0.252693,533692,298262
1529.21,0.250233,527902,296702
1532.32,0.247136,521886,295420
1535.42,0.245292,515888,293267
1538.51,0.242141,509987,292024
1541.6,0.239178,503936,290534
1545.72,0.234896,494694,288032
1548.8,0.232673,488378,285814
1551.88,0.229317,481832,284170
1554.95,0.227130,474989,281549
1558.02,0.226307,467818,277824
1561.08,0.225294,460730,274254
1564.15,0.223898,454170,271219
1568.22,0.222879,444181,265877
1571.27,0.222554,436947,261743
1574.32,0.221190,429598,258150
1577.36,0.220574,422039,253968
1580.4,0.218797,414375,250378
1583.43,0.217437,406354,246302
1586.46,0.215473,398475,242621
1590.49,0.213261,388982,238050
1593.51,0.211616,380708,233871
1596.53,0.209308,372727,230188
1599.54,0.207826,365060,226224
1602.55,0.205581,357543,222714
1605.55,0.204145,349495,218422
1608.55,0.202338,341154,214098
1612.54,0.199624,330877,208950
1615.53,0.198083,322904,204640
1618.51,0.196640,315116,200369
1621.49,0.195424,307217,195894
1624.47,0.194198,299481,191501
1627.44,0.193021,292112,187296
1630.41,0.192768,284245,182358
1634.36,0.191166,274079,176486
1637.32,0.191127,266916,171889
1640.27,0.190696,259612,167351
1643.22,0.188614,251804,163098
1646.16,0.188473,244348,158320
1649.1,0.188373,236703,153402
1652.04,0.185480,228171,148861
1655.95,0.181543,215408,141814
1658.88,0.178679,204937,135813
1661.8,0.173147,193395,129807
1664.72,0.166618,179728,122461
1667.63,0.152627,163642,115151
1670.54,0.140835,146312,105790
1673.44,0.125793,128451,96149
1677.31,0.105224,105080,82470
1680.21,0.093872,88906,71624
1683.1,0.090942,75033,60857
1685.99,0.093819,63520,51179
1688.87,0.093630,53714,43297
1691.75,0.098619,45653,36379
1694.62,0.102981,39137,30875
1697.49,0.105428,33776,26496
1701.31,0.125499,28175,21104

File: Column 1_050579_20150331_121328.csv
Method:,Column 1,,
Host Date-Time:,31/3/15 @ 12:13:28,,
Header Version:,1,,
System Temp (C):,33.79,,
Detector Temp (C):,34.59,,
Humidity (%):,2.05,,
Lamp PD:,3819,,
Shift Vector Coefficients:,-10.5391,0.0761263,-0.000134223,,
Pixel to Wavelength Coefficients:,1775.68,-0.916766,-0.000235065,,
Serial Number:,5510004,,
Scan Config Name:,Column 1,,
Scan Config Type:,Slew,,
Section 1,,
Start wavelength (nm):,900,,
End wavelength (nm):,1700,,
Pattern Pixel Width (nm):,   7.03,,,,
Exposure (ms):,  0.635,,,,
Digital Resolution:,228,,
Num Repeats:,6,,
PGA Gain:,64,,
Total Measurement Time in sec:,  2.677,,
Wavelength (nm),Absorbance (AU),Reference Signal (unitless),Sample Signal (unitless)
901.51,0.071761,108485,91962
905.376,0.078316,121306,101290
909.237,0.079542,131909,109833
913.095,0.079548,143299,119315
916.948,0.082334,156982,129872
922.079,0.082754,179937,148719
925.923,0.084852,200504,164919
929.762,0.084075,222660,183471
933.597,0.084360,244426,201274
937.427,0.084276,263972,217411
941.254,0.082673,281845,232990
945.076,0.081902,297271,246179
950.165,0.081581,315605,261555
953.978,0.080597,328029,272468
957.786,0.081300,340470,282344
961.59,0.080898,352317,292439
965.389,0.080712,363056,301482
969.185,0.081349,373162,309420
972.976,0.081525,382632,317144
976.763,0.081689,391202,324125
981.806,0.082366,400190,331055
985.583,0.082572,406088,335775
989.355,0.083517,410162,338406
993.124,0.083916,412868,340326
996.888,0.084501,414263,341016
1000.65,0.085167,415476,341491
1004.4,0.086160,415479,340713
1009.41,0.087355,414358,338860
1013.15,0.087716,412923,337406
1016.89,0.087980,411526,336060
1020.63,0.089058,409066,333223
1024.36,0.088299,406777,331938
1028.09,0.088271,404427,330042
1031.82,0.088683,401911,327678
1036.78,0.087974,398410,325354
1040.49,0.087588,396204,323840
1044.2,0.087662,394236,322177
1047.91,0.087246,392042,320691
1051.61,0.086617,389823,319338
1055.31,0.086926,388234,317810
1059,0.086454,387599,317635
1063.92,0.085190,386688,317812
1067.61,0.084604,386598,318167
1071.29,0.083753,387377,319434
1074.96,0.083893,388536,320286
1078.63,0.083097,389855,321963
1082.3,0.082690,391215,323389
1085.96,0.082205,393215,325406
1090.84,0.080917,396270,328908
1094.49,0.079973,398760,331695
1098.14,0.079988,400987,333536
1101.79,0.079439,403477,336031
1105.43,0.079226,406116,338395
1109.06,0.078018,407701,340662
1112.7,0.078124,409859,342382
1117.53,0.077741,412494,344887
1121.15,0.078592,414909,346227
1124.77,0.078950,416559,347317
1128.38,0.079244,418532,348726
1131.99,0.080161,419956,349175
1135.6,0.081910,421946,349419
1139.2,0.083115,423881,350049
1143.99,0.085401,426786,350598
1147.58,0.086158,428617,351489
1151.17,0.087323,431169,352634
1154.75,0.088820,433579,353385
1158.33,0.089877,436264,354709
1161.91,0.091698,439132,355547
1165.48,0.094165,442389,356155
1169.04,0.096287,446101,357393
1173.79,0.099602,451929,359309
1177.34,0.101493,456026,360991
1180.9,0.103712,461306,363310
1184.44,0.105209,467657,367044
1187.99,0.106150,473969,371193
1191.52,0.106147,479856,375806
1195.06,0.106083,487372,381749
1199.76,0.105060,497347,390481
1203.29,0.104406,504311,396545
1206.81,0.103786,511507,402778
1210.33,0.103456,519078,409050
1213.84,0.103188,527163,415678
1217.35,0.102514,534208,421887
1220.85,0.101770,540472,427566
1225.51,0.100784,549929,436036
1229.01,0.100608,556888,441733
1232.5,0.099823,562180,446737
1235.98,0.098954,567975,452246
1239.46,0.098337,574815,458343
1242.94,0.097292,582782,465816
1246.41,0.096938,591476,473150
1251.03,0.096641,604016,483512
1254.5,0.096827,612289,489925
1257.96,0.097140,619125,495038
1261.41,0.097790,624551,498630
1264.86,0.097913,629900,502758
1268.31,0.098641,634345,505457
1271.75,0.099512,638574,507808
1276.33,0.099316,642499,511159
1279.76,0.099724,645905,513387
1283.19,0.099001,648307,516154
1286.61,0.098762,650446,518143
1290.03,0.098270,652132,520075
1293.44,0.097508,653907,522406
1296.85,0.097755,655963,523750
1301.39,0.097677,657349,524951
1304.8,0.097459,657558,525382
1308.19,0.097772,658515,525767
1311.58,0.097764,658804,526008
1314.97,0.098562,659011,525207
1318.36,0.098719,658272,524429
1321.73,0.098872,658022,524045
1326.23,0.100284,657870,522223
1329.6,0.101243,656482,519972
1332.97,0.102242,654926,517547
1336.33,0.103692,653727,514878
1339.69,0.105325,652497,511981
1343.04,0.107182,649913,507777
1346.39,0.108625,647671,504347
1349.73,0.110991,645338,499800
1354.18,0.113890,641175,493272
1357.52,0.116326,638376,488372
1360.85,0.117913,635805,484631
1364.17,0.120103,633413,480379
1367.49,0.122414,631026,476029
1370.81,0.124436,628050,471583
1374.12,0.126745,625034,466830
1378.54,0.130070,620272,459740
1381.84,0.133098,616892,454058
1385.14,0.137375,613613,447218
1388.43,0.141507,611526,441477
1391.72,0.146689,610663,435625
1395.01,0.151280,610634,431024
1398.29,0.157300,611700,425832
1402.66,0.165001,614051,419956
1405.93,0.170882,616268,415803
1409.2,0.176213,617795,411748
1412.46,0.181243,618872,407716
1415.72,0.186677,619795,403247
1418.98,0.190607,620495,400066
1422.23,0.194031,621087,397303
1426.56,0.198747,621375,393194
1429.8,0.201692,621616,390688
1433.04,0.204065,622129,388880
1436.27,0.206338,621526,386475
1439.5,0.208213,621113,384554
1442.72,0.210679,620921,382259
1445.94,0.212828,620270,379973
1450.23,0.216534,618860,375888
1453.44,0.218534,617697,373458
1456.64,0.221525,616264,370034
1459.85,0.223734,614413,367051
1463.04,0.226803,612307,363217
1466.24,0.229595,610032,359549
1469.43,0.232689,607345,355424
1473.67,0.237616,603789,349357
1476.85,0.241852,601175,344468
1480.02,0.246683,597737,338709
1483.19,0.252682,594479,332242
1486.36,0.256686,591232,327395
1489.52,0.261170,587853,322180
1492.68,0.264196,583875,317778
1496.89,0.266358,578062,313052
1500.03,0.267144,574159,310376
1503.18,0.266914,570285,308445
1506.32,0.266102,565444,306399
1509.45,0.264294,560571,305026
1512.58,0.262839,555821,303456
1515.71,0.260583,550344,302031
1519.87,0.258017,543983,300309
1522.99,0.254938,538764,299544
1526.1,0.253013,533692,298042
1529.21,0.250810,527902,296308
1532.32,0.247721,521886,295022
1535.42,0.245328,515888,293243
1538.51,0.241635,509987,292364
1541.6,0.238966,503936,290676
1545.72,0.235093,494694,287901
1548.8,0.232360,488378,286020
1551.88,0.229632,481832,283964
1554.95,0.227824,474989,281099
1558.02,0.226576,467818,277652
1561.08,0.225300,460730,274250
1564.15,0.223765,454170,271302
1568.22,0.222778,444181,265939
1571.27,0.222652,436947,261684
1574.32,0.221358,429598,258050
1577.36,0.219504,422039,254594
1580.4,0.218842,414375,250352
1583.43,0.216748,406354,246693
1586.46,0.214850,398475,242969
1590.49,0.214151,388982,237563
1593.51,0.211697,380708,233827
1596.53,0.209016,372727,230343
1599.54,0.207605,365060,226339
1602.55,0.205571,357543,222719
1605.55,0.203584,349495,218704
1608.55,0.201511,341154,214506
1612.54,0.199622,330877,208951
1615.53,0.197182,322904,205065
1618.51,0.195787,315116,200763
1621.49,0.195923,307217,195669
1624.47,0.193781,299481,191685
1627.44,0.193023,292112,187295
1630.41,0.192575,284245,182439
1634.36,0.190293,274079,176841
1637.32,0.190788,266916,172023
1640.27,0.189843,259612,167680
1643.22,0.189120,251804,162908
1646.16,0.187582,244348,158645
1649.1,0.187617,236703,153669
1652.04,0.185421,228171,148881
1655.95,0.181895,215408,141699
1658.88,0.178433,204937,135890
1661.8,0.172649,193395,129956
1664.72,0.166618,179728,122461
1667.63,0.153367,163642,114955
1670.54,0.140482,146312,105876
1673.44,0.126539,128451,95984
1677.31,0.104351,105080,82636
1680.21,0.095318,88906,71386
1683.1,0.089389,75033,61075
1685.99,0.090050,63520,51625
1688.87,0.098745,53714,42790
1691.75,0.092914,45653,36860
1694.62,0.106270,39137,30642
1697.49,0.102895,33776,26651
1701.31,0.116296,28175,21556

File: Column 1_050579_20150331_121331.csv
Method:,Column 1,,
Host Date-Time:,31/3/15 @ 12:13:31,,
Header Version:,1,,
System Temp (C):,33.81,,
Detector Temp (C):,34.59,,
Humidity (%):,2.05,,
Lamp PD:,3819,,
Shift Vector Coefficients:,-10.5391,0.0761263,-0.000134223,,
Pixel to Wavelength Coefficients:,1775.68,-0.916766,-0.000235065,,
Serial Number:,5510004,,
Scan Config Name:,Column 1,,
Scan Config Type:,Slew,,
Section 1,,
Start wavelength (nm):,900,,
End wavelength (nm):,1700,,
Pattern Pixel Width (nm):,   7.03,,,,
Exposure (ms):,  0.635,,,,
Digital Resolution:,228,,
Num Repeats:,6,,
PGA Gain:,64,,
Total Measurement Time in sec:,  2.663,,
Wavelength (nm),Absorbance (AU),Reference Signal (unitless),Sample Signal (unitless)
901.51,0.071827,108485,91948
905.376,0.078059,121306,101350
909.237,0.079842,131909,109757
913.095,0.081054,143299,118902
916.948,0.081853,156982,130016
922.079,0.083344,179937,148517
925.923,0.084723,200504,164968
929.762,0.085616,222660,182821
933.597,0.084975,244426,200989
937.427,0.083384,263972,217858
941.254,0.082874,281845,232882
945.076,0.082470,297271,245857
950.165,0.080765,315605,262047
953.978,0.080630,328029,272447
957.786,0.080767,340470,282691
961.59,0.081136,352317,292279
965.389,0.080699,363056,301491
969.185,0.081642,373162,309211
972.976,0.081755,382632,316976
976.763,0.082461,391202,323549
981.806,0.082535,400190,330926
985.583,0.083561,406088,335011
989.355,0.083407,410162,338492
993.124,0.083739,412868,340465
996.888,0.084557,414263,340972
1000.65,0.085160,415476,341496
1004.4,0.086329,415479,340581
1009.41,0.087445,414358,338790
1013.15,0.087878,412923,337280
1016.89,0.088949,411526,335311
1020.63,0.088194,409066,333887
1024.36,0.087949,406777,332206
1028.09,0.087607,404427,330547
1031.82,0.088933,401911,327489
1036.78,0.087738,398410,325531
1040.49,0.087772,396204,323703
1044.2,0.088029,394236,321905
1047.91,0.087328,392042,320630
1051.61,0.086643,389823,319319
1055.31,0.086944,388234,317797
1059,0.086266,387599,317773
1063.92,0.085190,386688,317812
1067.61,0.084878,386598,317967
1071.29,0.084330,387377,319010
1074.96,0.084401,388536,319912
1078.63,0.083104,389855,321958
1082.3,0.082567,391215,323481
1085.96,0.081616,393215,325847
1090.84,0.081165,396270,328720
1094.49,0.079903,398760,331748
1098.14,0.079441,400987,333956
1101.79,0.079551,403477,335945
1105.43,0.079108,406116,338487
1109.06,0.078140,407701,340566
1112.7,0.078299,409859,342244
1117.53,0.077680,412494,344935
1121.15,0.078744,414909,346106
1124.77,0.078749,416559,347478
1128.38,0.079364,418532,348630
1131.99,0.080482,419956,348917
1135.6,0.082053,421946,349304
1139.2,0.083337,423881,349870
1143.99,0.085822,426786,350258
1147.58,0.086716,428617,351037
1151.17,0.087316,431169,352640
1154.75,0.088531,433579,353620
1158.33,0.089553,436264,354974
1161.91,0.091927,439132,355360
1165.48,0.093941,442389,356339
1169.04,0.096179,446101,357482
1173.79,0.099195,451929,359646
1177.34,0.101123,456026,361299
1180.9,0.103143,461306,363786
1184.44,0.105215,467657,367039
1187.99,0.106506,473969,370889
1191.52,0.105771,479856,376132
1195.06,0.106004,487372,381818
1199.76,0.105526,497347,390062
1203.29,0.104380,504311,396569
1206.81,0.104347,511507,402258
1210.33,0.103587,519078,408927
1213.84,0.102975,527163,415882
1217.35,0.102115,534208,422275
1220.85,0.101570,540472,427763
1225.51,0.100840,549929,435980
1229.01,0.100353,556888,441992
1232.5,0.099534,562180,447035
1235.98,0.099423,567975,451758
1239.46,0.098229,574815,458458
1242.94,0.097170,582782,465947
1246.41,0.096744,591476,473362
1251.03,0.096820,604016,483313
1254.5,0.096844,612289,489906
1257.96,0.096873,619125,495342
1261.41,0.097927,624551,498472
1264.86,0.098130,629900,502506
1268.31,0.098756,634345,505324
1271.75,0.099272,638574,508088
1276.33,0.099844,642499,510539
1279.76,0.099465,645905,513693
1283.19,0.099151,648307,515976
1286.61,0.098571,650446,518370
1290.03,0.098474,652132,519830
1293.44,0.097846,653907,521999
1296.85,0.097604,655963,523932
1301.39,0.097461,657349,525213
1304.8,0.097714,657558,525073
1308.19,0.098030,658515,525455
1311.58,0.097929,658804,525808
1314.97,0.098769,659011,524957
1318.36,0.099082,658272,523990
1321.73,0.099413,658022,523393
1326.23,0.100673,657870,521755
1329.6,0.101421,656482,519759
1332.97,0.102229,654926,517563
1336.33,0.103387,653727,515240
1339.69,0.105023,652497,512337
1343.04,0.106852,649913,508163
1346.39,0.109064,647671,503837
1349.73,0.111078,645338,499700
1354.18,0.113783,641175,493394
1357.52,0.115904,638376,488846
1360.85,0.117820,635805,484735
1364.17,0.119900,633413,480603
1367.49,0.122263,631026,476194
1370.81,0.124857,628050,471126
1374.12,0.127121,625034,466426
1378.54,0.129749,620272,460080
1381.84,0.133351,616892,453793
1385.14,0.136713,613613,447901
1388.43,0.141597,611526,441385
1391.72,0.146480,610663,435835
1395.01,0.151208,610634,431095
1398.29,0.156759,611700,426363
1402.66,0.164577,614051,420366
1405.93,0.170812,616268,415870
1409.2,0.176331,617795,411636
1412.46,0.181934,618872,407068
1415.72,0.185970,619795,403904
1418.98,0.190111,620495,400523
1422.23,0.194019,621087,397314
1426.56,0.198456,621375,393457
1429.8,0.201383,621616,390966
1433.04,0.204194,622129,388764
1436.27,0.206218,621526,386582
1439.5,0.208519,621113,384283
1442.72,0.210725,620921,382218
1445.94,0.213016,620270,379809
1450.23,0.216064,618860,376295
1453.44,0.219021,617697,373039
1456.64,0.221309,616264,370218
1459.85,0.223633,614413,367136
1463.04,0.226446,612307,363516
1466.24,0.229537,610032,359597
1469.43,0.232598,607345,355498
1473.67,0.237091,603789,349779
1476.85,0.241819,601175,344494
1480.02,0.246630,597737,338751
1483.19,0.252519,594479,332367
1486.36,0.257218,591232,326994
1489.52,0.260779,587853,322470
1492.68,0.264185,583875,317786
1496.89,0.266361,578062,313050
1500.03,0.266506,574159,310832
1503.18,0.266479,570285,308754
1506.32,0.265366,565444,306919
1509.45,0.263974,560571,305251
1512.58,0.262655,555821,303585
1515.71,0.260629,550344,301999
1519.87,0.257593,543983,300602
1522.99,0.254951,538764,299535
1526.1,0.253216,533692,297903
1529.21,0.249956,527902,296891
1532.32,0.246748,521886,295684
1535.42,0.243941,515888,294181
1538.51,0.241450,509987,292489
1541.6,0.239010,503936,290647
1545.72,0.234135,494694,288537
1548.8,0.231291,488378,286725
1551.88,0.230219,481832,283581
1554.95,0.227350,474989,281406
1558.02,0.225884,467818,278095
1561.08,0.224673,460730,274646
1564.15,0.224058,454170,271119
1568.22,0.222690,444181,265993
1571.27,0.221586,436947,262327
1574.32,0.220797,429598,258384
1577.36,0.219569,422039,254556
1580.4,0.219174,414375,250161
1583.43,0.217188,406354,246443
1586.46,0.215673,398475,242509
1590.49,0.213524,388982,237906
1593.51,0.211800,380708,233772
1596.53,0.209533,372727,230069
1599.54,0.207839,365060,226217
1602.55,0.205575,357543,222717
1605.55,0.203882,349495,218554
1608.55,0.201940,341154,214294
1612.54,0.199624,330877,208950
1615.53,0.197661,322904,204839
1618.51,0.197286,315116,200071
1621.49,0.195415,307217,195898
1624.47,0.193758,299481,191695
1627.44,0.192539,292112,187504
1630.41,0.192313,284245,182549
1634.36,0.191705,274079,176267
1637.32,0.191053,266916,171918
1640.27,0.189546,259612,167795
1643.22,0.188747,251804,163048
1646.16,0.187541,244348,158660
1649.1,0.187428,236703,153736
1652.04,0.186154,228171,148630
1655.95,0.182119,215408,141626
1658.88,0.178094,204937,135996
1661.8,0.172656,193395,129954
1664.72,0.166242,179728,122567
1667.63,0.153390,163642,114949
1670.54,0.139258,146312,106175
1673.44,0.124143,128451,96515
1677.31,0.105198,105080,82475
1680.21,0.094570,88906,71509
1683.1,0.090072,75033,60979
1685.99,0.089403,63520,51702
1688.87,0.091808,53714,43479
1691.75,0.102407,45653,36063
1694.62,0.106923,39137,30596
1697.49,0.110871,33776,26166
1701.31,0.124512,28175,21152