Folder: textile_sorting_NIRSCAN_/samples/wool/wool-000811 (part 52)

File: Column 1_050559_20150331_120410.csv
Method:,Column 1,,
Host Date-Time:,31/3/15 @ 12:4:10,,
Header Version:,1,,
System Temp (C):,33.63,,
Detector Temp (C):,33.04,,
Humidity (%):,2.15,,
Lamp PD:,3819,,
Shift Vector Coefficients:,-10.5391,0.0761263,-0.000134223,,
Pixel to Wavelength Coefficients:,1775.68,-0.916766,-0.000235065,,
Serial Number:,5510004,,
Scan Config Name:,Column 1,,
Scan Config Type:,Slew,,
Section 1,,
Start wavelength (nm):,900,,
End wavelength (nm):,1700,,
Pattern Pixel Width (nm):,   7.03,,,,
Exposure (ms):,  0.635,,,,
Digital Resolution:,228,,
Num Repeats:,6,,
PGA Gain:,64,,
Total Measurement Time in sec:,  2.674,,
Wavelength (nm),Absorbance (AU),Reference Signal (unitless),Sample Signal (unitless)
901.51,0.032707,108485,100615
905.376,0.039919,121306,110653
909.237,0.039630,131909,120405
913.095,0.043019,143299,129785
916.948,0.043718,156982,141949
922.079,0.045201,179937,162151
925.923,0.044989,200504,180773
929.762,0.047771,222660,199467
933.597,0.047301,244426,219203
937.427,0.046613,263972,237107
941.254,0.047211,281845,252813
945.076,0.045769,297271,267537
950.165,0.046239,315605,283730
953.978,0.044921,328029,295795
957.786,0.046085,340470,306192
961.59,0.045641,352317,317170
965.389,0.046152,363056,326454
969.185,0.046021,373162,335642
972.976,0.046982,382632,343399
976.763,0.048280,391202,350043
981.806,0.048158,400190,358186
985.583,0.048667,406088,363039
989.355,0.049739,410162,365777
993.124,0.049735,412868,368194
996.888,0.050722,414263,368599
1000.65,0.051390,415476,369110
1004.4,0.052568,415479,368113
1009.41,0.053542,414358,366297
1013.15,0.054195,412923,364480
1016.89,0.055063,411526,362522
1020.63,0.053727,409066,361465
1024.36,0.054429,406777,358862
1028.09,0.054410,404427,356804
1031.82,0.054493,401911,354517
1036.78,0.053323,398410,352377
1040.49,0.052852,396204,350806
1044.2,0.053505,394236,348539
1047.91,0.053135,392042,346895
1051.61,0.052638,389823,345326
1055.31,0.051990,388234,344432
1059,0.051101,387599,344573
1063.92,0.050039,386688,344605
1067.61,0.049464,386598,344981
1071.29,0.048709,387377,346278
1074.96,0.048530,388536,347457
1078.63,0.047347,389855,349588
1082.3,0.047116,391215,350994
1085.96,0.046432,393215,353344
1090.84,0.046089,396270,356371
1094.49,0.045073,398760,359450
1098.14,0.045268,400987,361295
1101.79,0.043908,403477,364679
1105.43,0.044673,406116,366418
1109.06,0.044223,407701,368230
1112.7,0.043610,409859,370702
1117.53,0.043694,412494,373013
1121.15,0.044565,414909,374445
1124.77,0.045615,416559,375026
1128.38,0.046822,418532,375757
1131.99,0.048151,419956,375883
1135.6,0.050111,421946,375964
1139.2,0.051968,423881,376076
1143.99,0.054378,426786,376558
1147.58,0.054957,428617,377670
1151.17,0.056254,431169,378786
1154.75,0.057792,433579,379556
1158.33,0.060038,436264,379937
1161.91,0.061930,439132,380772
1165.48,0.064195,442389,381601
1169.04,0.066938,446101,382380
1173.79,0.070777,451929,383966
1177.34,0.072330,456026,386064
1180.9,0.074946,461306,388189
1184.44,0.076512,467657,392117
1187.99,0.077975,473969,396073
1191.52,0.077846,479856,401111
1195.06,0.077253,487372,407951
1199.76,0.076083,497347,417423
1203.29,0.075456,504311,423880
1206.81,0.074879,511507,430499
1210.33,0.074096,519078,437660
1213.84,0.073051,527163,445547
1217.35,0.072318,534208,452264
1220.85,0.071122,540472,458829
1225.51,0.070418,549929,467615
1229.01,0.070094,556888,473886
1232.5,0.069388,562180,479168
1235.98,0.069150,567975,484372
1239.46,0.067790,574815,491743
1242.94,0.066970,582782,499501
1246.41,0.065826,591476,508289
1251.03,0.065919,604016,518955
1254.5,0.066063,612289,525888
1257.96,0.066278,619125,531497
1261.41,0.066880,624551,535412
1264.86,0.067561,629900,539151
1268.31,0.068525,634345,541752
1271.75,0.068956,638574,544823
1276.33,0.069160,642499,547914
1279.76,0.069347,645905,550581
1283.19,0.068811,648307,553312
1286.61,0.068308,650446,555780
1290.03,0.067723,652132,557972
1293.44,0.067790,653907,559404
1296.85,0.067516,655963,561518
1301.39,0.067197,657349,563117
1304.8,0.067073,657558,563457
1308.19,0.067715,658515,563444
1311.58,0.067462,658804,564019
1314.97,0.068259,659011,563163
1318.36,0.068741,658272,561907
1321.73,0.069047,658022,561298
1326.23,0.069985,657870,559957
1329.6,0.070912,656482,557585
1332.97,0.072250,654926,554552
1336.33,0.073521,653727,551919
1339.69,0.075281,652497,548653
1343.04,0.076965,649913,544365
1346.39,0.079021,647671,539925
1349.73,0.080830,645338,535744
1354.18,0.084648,641175,527629
1357.52,0.086991,638376,522499
1360.85,0.088965,635805,518035
1364.17,0.091265,633413,513360
1367.49,0.093605,631026,508677
1370.81,0.096216,628050,503244
1374.12,0.098531,625034,498164
1378.54,0.101958,620272,490483
1381.84,0.105594,616892,483744
1385.14,0.109597,613613,476757
1388.43,0.114475,611526,469829
1391.72,0.119477,610663,463793
1395.01,0.124444,610634,458497
1398.29,0.129536,611700,453944
1402.66,0.137655,614051,447249
1405.93,0.143426,616268,442939
1409.2,0.149273,617795,438098
1412.46,0.154401,618872,433710
1415.72,0.159770,619795,429021
1418.98,0.163902,620495,425438
1422.23,0.167112,621087,422708
1426.56,0.171620,621375,418537
1429.8,0.174445,621616,415985
1433.04,0.177204,622129,413691
1436.27,0.179485,621526,411125
1439.5,0.181852,621113,408619
1442.72,0.184391,620921,406112
1445.94,0.187414,620270,402872
1450.23,0.190798,618860,398836
1453.44,0.193469,617697,395646
1456.64,0.196605,616264,391888
1459.85,0.199331,614413,388266
1463.04,0.201891,612307,384661
1466.24,0.204929,610032,380560
1469.43,0.209035,607345,375319
1473.67,0.214925,603789,368095
1476.85,0.219717,601175,362480
1480.02,0.226208,597737,355060
1483.19,0.232481,594479,348061
1486.36,0.238363,591232,341503
1489.52,0.242723,587853,336160
1492.68,0.246535,583875,330967
1496.89,0.249023,578062,325800
1500.03,0.249311,574159,323386
1503.18,0.250211,570285,320539
1506.32,0.248863,565444,318806
1509.45,0.247380,560571,317140
1512.58,0.245352,555821,315924
1515.71,0.243486,550344,314158
1519.87,0.240065,543983,312983
1522.99,0.237390,538764,311895
1526.1,0.235001,533692,310663
1529.21,0.232117,527902,309340
1532.32,0.229105,521886,307943
1535.42,0.225907,515888,306654
1538.51,0.222872,509987,305272
1541.6,0.219459,503936,304030
1545.72,0.214413,494694,301942
1548.8,0.211726,488378,299937
1551.88,0.209358,481832,297535
1554.95,0.206635,474989,295154
1558.02,0.205376,467818,291542
1561.08,0.204386,460730,287780
1564.15,0.203568,454170,284217
1568.22,0.202143,444181,278880
1571.27,0.201286,436947,274880
1574.32,0.200119,429598,270984
1577.36,0.199110,422039,266835
1580.4,0.197687,414375,262849
1583.43,0.195494,406354,259066
1586.46,0.193798,398475,255037
1590.49,0.191304,388982,250395
1593.51,0.189124,380708,246302
1596.53,0.187502,372727,242041
1599.54,0.185204,365060,238320
1602.55,0.183010,357543,234595
1605.55,0.180220,349495,230792
1608.55,0.178859,341154,225991
1612.54,0.176311,330877,220473
1615.53,0.173383,322904,216616
1618.51,0.171850,315116,212139
1621.49,0.171697,307217,206894
1624.47,0.170401,299481,202287
1627.44,0.168713,292112,198078
1630.41,0.168662,284245,192766
1634.36,0.165925,274079,187047
1637.32,0.165988,266916,182132
1640.27,0.165761,259612,177241
1643.22,0.164095,251804,172571
1646.16,0.162188,244348,168198
1649.1,0.162915,236703,162663
1652.04,0.159543,228171,158022
1655.95,0.158839,215408,149425
1658.88,0.156758,204937,142844
1661.8,0.152255,193395,136204
1664.72,0.145419,179728,128587
1667.63,0.136683,163642,119457
1670.54,0.125588,146312,109570
1673.44,0.113906,128451,98817
1677.31,0.103133,105080,82868
1680.21,0.093757,88906,71643
1683.1,0.091427,75033,60789
1685.99,0.094209,63520,51133
1688.87,0.101923,53714,42478
1691.75,0.105732,45653,35788
1694.62,0.111145,39137,30300
1697.49,0.113034,33776,26036
1701.31,0.118700,28175,21437

File: Column 1_050559_20150331_120416.csv
Method:,Column 1,,
Host Date-Time:,31/3/15 @ 12:4:16,,
Header Version:,1,,
System Temp (C):,33.62,,
Detector Temp (C):,33.11,,
Humidity (%):,2.15,,
Lamp PD:,3819,,
Shift Vector Coefficients:,-10.5391,0.0761263,-0.000134223,,
Pixel to Wavelength Coefficients:,1775.68,-0.916766,-0.000235065,,
Serial Number:,5510004,,
Scan Config Name:,Column 1,,
Scan Config Type:,Slew,,
Section 1,,
Start wavelength (nm):,900,,
End wavelength (nm):,1700,,
Pattern Pixel Width (nm):,   7.03,,,,
Exposure (ms):,  0.635,,,,
Digital Resolution:,228,,
Num Repeats:,6,,
PGA Gain:,64,,
Total Measurement Time in sec:,  2.729,,
Wavelength (nm),Absorbance (AU),Reference Signal (unitless),Sample Signal (unitless)
901.51,0.033364,108485,100463
905.376,0.039982,121306,110637
909.237,0.042518,131909,119607
913.095,0.043457,143299,129654
916.948,0.043837,156982,141910
922.079,0.045858,179937,161906
925.923,0.046670,200504,180075
929.762,0.047460,222660,199610
933.597,0.047882,244426,218910
937.427,0.047117,263972,236832
941.254,0.046747,281845,253083
945.076,0.046334,297271,267189
950.165,0.046409,315605,283619
953.978,0.045834,328029,295174
957.786,0.046400,340470,305970
961.59,0.046126,352317,316816
965.389,0.046503,363056,326190
969.185,0.046693,373162,335123
972.976,0.046980,382632,343401
976.763,0.047761,391202,350461
981.806,0.048067,400190,358261
985.583,0.049997,406088,361929
989.355,0.049521,410162,365961
993.124,0.049910,412868,368045
996.888,0.050800,414263,368533
1000.65,0.050767,415476,369640
1004.4,0.052423,415479,368236
1009.41,0.053608,414358,366242
1013.15,0.054633,412923,364113
1016.89,0.055096,411526,362494
1020.63,0.054485,409066,360835
1024.36,0.054368,406777,358912
1028.09,0.054867,404427,356429
1031.82,0.054216,401911,354743
1036.78,0.053767,398410,352017
1040.49,0.053124,396204,350586
1044.2,0.053745,394236,348346
1047.91,0.053091,392042,346930
1051.61,0.052051,389823,345793
1055.31,0.051831,388234,344558
1059,0.051173,387599,344516
1063.92,0.050364,386688,344347
1067.61,0.049898,386598,344637
1071.29,0.049031,387377,346021
1074.96,0.048514,388536,347470
1078.63,0.047739,389855,349272
1082.3,0.047417,391215,350751
1085.96,0.046172,393215,353556
1090.84,0.045460,396270,356887
1094.49,0.045134,398760,359400
1098.14,0.045175,400987,361373
1101.79,0.044941,403477,363813
1105.43,0.044872,406116,366250
1109.06,0.044216,407701,368236
1112.7,0.044172,409859,370222
1117.53,0.044213,412494,372567
1121.15,0.045023,414909,374050
1124.77,0.045428,416559,375188
1128.38,0.046651,418532,375905
1131.99,0.048086,419956,375939
1135.6,0.050398,421946,375715
1139.2,0.051700,423881,376308
1143.99,0.054218,426786,376697
1147.58,0.055159,428617,377494
1151.17,0.056382,431169,378674
1154.75,0.057845,433579,379510
1158.33,0.059419,436264,380479
1161.91,0.062269,439132,380475
1165.48,0.064325,442389,381487
1169.04,0.066780,446101,382519
1173.79,0.070784,451929,383960
1177.34,0.073002,456026,385467
1180.9,0.075240,461306,387926
1184.44,0.077557,467657,391174
1187.99,0.077741,473969,396286
1191.52,0.077428,479856,401498
1195.06,0.077763,487372,407472
1199.76,0.076454,497347,417067
1203.29,0.075260,504311,424071
1206.81,0.074854,511507,430524
1210.33,0.073921,519078,437836
1213.84,0.073270,527163,445323
1217.35,0.072400,534208,452179
1220.85,0.071432,540472,458502
1225.51,0.070366,549929,467671
1229.01,0.070295,556888,473667
1232.5,0.069889,562180,478615
1235.98,0.068601,567975,484985
1239.46,0.067687,574815,491859
1242.94,0.066742,582782,499763
1246.41,0.065961,591476,508132
1251.03,0.065831,604016,519060
1254.5,0.066016,612289,525945
1257.96,0.067120,619125,530467
1261.41,0.066877,624551,535416
1264.86,0.067927,629900,538697
1268.31,0.068495,634345,541789
1271.75,0.068933,638574,544852
1276.33,0.069220,642499,547838
1279.76,0.069491,645905,550399
1283.19,0.068830,648307,553287
1286.61,0.068588,650446,555422
1290.03,0.068120,652132,557462
1293.44,0.067478,653907,559806
1296.85,0.067574,655963,561442
1301.39,0.067146,657349,563184
1304.8,0.067369,657558,563073
1308.19,0.067488,658515,563739
1311.58,0.067521,658804,563943
1314.97,0.068467,659011,562893
1318.36,0.069264,658272,561231
1321.73,0.069043,658022,561303
1326.23,0.070130,657870,559770
1329.6,0.070904,656482,557595
1332.97,0.072207,654926,554607
1336.33,0.073329,653727,552163
1339.69,0.075443,652497,548448
1343.04,0.077165,649913,544115
1346.39,0.079052,647671,539887
1349.73,0.081219,645338,535264
1354.18,0.084415,641175,527912
1357.52,0.086930,638376,522572
1360.85,0.088910,635805,518100
1364.17,0.091136,633413,513513
1367.49,0.093480,631026,508824
1370.81,0.096539,628050,502869
1374.12,0.098920,625034,497718
1378.54,0.102253,620272,490150
1381.84,0.105810,616892,483503
1385.14,0.109505,613613,476858
1388.43,0.113963,611526,470383
1391.72,0.119023,610663,464279
1395.01,0.124502,610634,458436
1398.29,0.129686,611700,453787
1402.66,0.137483,614051,447426
1405.93,0.143237,616268,443132
1409.2,0.149174,617795,438198
1412.46,0.155000,618872,433113
1415.72,0.158958,619795,429823
1418.98,0.163717,620495,425619
1422.23,0.167004,621087,422813
1426.56,0.171113,621375,419026
1429.8,0.174928,621616,415522
1433.04,0.177065,622129,413824
1436.27,0.179533,621526,411080
1439.5,0.181865,621113,408607
1442.72,0.184735,620921,405790
1445.94,0.187042,620270,403217
1450.23,0.190883,618860,398758
1453.44,0.193439,617697,395673
1456.64,0.196326,616264,392140
1459.85,0.199070,614413,388499
1463.04,0.202346,612307,384258
1466.24,0.205618,610032,379957
1469.43,0.208957,607345,375386
1473.67,0.214315,603789,368613
1476.85,0.220146,601175,362122
1480.02,0.225842,597737,355360
1483.19,0.232041,594479,348414
1486.36,0.238368,591232,341499
1489.52,0.243149,587853,335830
1492.68,0.246909,583875,330682
1496.89,0.249313,578062,325583
1500.03,0.249660,574159,323126
1503.18,0.249596,570285,320993
1506.32,0.248972,565444,318726
1509.45,0.247832,560571,316810
1512.58,0.246139,555821,315352
1515.71,0.243171,550344,314386
1519.87,0.240791,543983,312460
1522.99,0.238037,538764,311431
1526.1,0.235232,533692,310498
1529.21,0.232069,527902,309374
1532.32,0.229045,521886,307986
1535.42,0.225167,515888,307177
1538.51,0.223232,509987,305019
1541.6,0.220079,503936,303596
1545.72,0.215839,494694,300952
1548.8,0.211898,488378,299818
1551.88,0.209271,481832,297594
1554.95,0.207193,474989,294775
1558.02,0.205410,467818,291519
1561.08,0.204464,460730,287728
1564.15,0.203681,454170,284143
1568.22,0.202459,444181,278677
1571.27,0.201744,436947,274590
1574.32,0.200399,429598,270809
1577.36,0.199444,422039,266630
1580.4,0.197431,414375,263004
1583.43,0.195940,406354,258800
1586.46,0.194248,398475,254773
1590.49,0.192092,388982,249941
1593.51,0.190464,380708,245543
1596.53,0.187525,372727,242028
1599.54,0.185554,365060,238128
1602.55,0.182506,357543,234867
1605.55,0.180053,349495,230881
1608.55,0.178013,341154,226432
1612.54,0.177455,330877,219893
1615.53,0.175088,322904,215767
1618.51,0.173670,315116,211252
1621.49,0.171632,307217,206925
1624.47,0.170333,299481,202319
1627.44,0.170288,292112,197361
1630.41,0.169427,284245,192427
1634.36,0.166476,274079,186810
1637.32,0.166611,266916,181871
1640.27,0.165440,259612,177372
1643.22,0.163624,251804,172758
1646.16,0.164744,244348,167211
1649.1,0.162712,236703,162739
1652.04,0.162106,228171,157092
1655.95,0.158667,215408,149484
1658.88,0.155768,204937,143170
1661.8,0.152067,193395,136263
1664.72,0.147179,179728,128067
1667.63,0.136531,163642,119499
1670.54,0.127415,146312,109110
1673.44,0.114887,128451,98594
1677.31,0.100500,105080,83372
1680.21,0.096677,88906,71163
1683.1,0.092608,75033,60624
1685.99,0.097971,63520,50692
1688.87,0.103152,53714,42358
1691.75,0.106133,45653,35755
1694.62,0.112020,39137,30239
1697.49,0.120470,33776,25594
1701.31,0.124800,28175,21138

File: Column 1_050559_20150331_120422.csv
Method:,Column 1,,
Host Date-Time:,31/3/15 @ 12:4:22,,
Header Version:,1,,
System Temp (C):,33.67,,
Detector Temp (C):,33.11,,
Humidity (%):,2.15,,
Lamp PD:,3819,,
Shift Vector Coefficients:,-10.5391,0.0761263,-0.000134223,,
Pixel to Wavelength Coefficients:,1775.68,-0.916766,-0.000235065,,
Serial Number:,5510004,,
Scan Config Name:,Column 1,,
Scan Config Type:,Slew,,
Section 1,,
Start wavelength (nm):,900,,
End wavelength (nm):,1700,,
Pattern Pixel Width (nm):,   7.03,,,,
Exposure (ms):,  0.635,,,,
Digital Resolution:,228,,
Num Repeats:,6,,
PGA Gain:,64,,
Total Measurement Time in sec:,  2.662,,
Wavelength (nm),Absorbance (AU),Reference Signal (unitless),Sample Signal (unitless)
901.51,0.034905,108485,100107
905.376,0.039601,121306,110734
909.237,0.041441,131909,119904
913.095,0.043129,143299,129752
916.948,0.044005,156982,141855
922.079,0.045790,179937,161931
925.923,0.046113,200504,180306
929.762,0.046799,222660,199914
933.597,0.048289,244426,218705
937.427,0.047347,263972,236707
941.254,0.046626,281845,253154
945.076,0.045741,297271,267554
950.165,0.046035,315605,283863
953.978,0.045518,328029,295389
957.786,0.046006,340470,306248
961.59,0.046543,352317,316512
965.389,0.046206,363056,326413
969.185,0.046452,373162,335309
972.976,0.047190,382632,343235
976.763,0.047791,391202,350437
981.806,0.047916,400190,358385
985.583,0.049109,406088,362670
989.355,0.049684,410162,365823
993.124,0.050204,412868,367796
996.888,0.050837,414263,368501
1000.65,0.051502,415476,369015
1004.4,0.052699,415479,368002
1009.41,0.054102,414358,365825
1013.15,0.054393,412923,364314
1016.89,0.054898,411526,362660
1020.63,0.054966,409066,360435
1024.36,0.055031,406777,358365
1028.09,0.054623,404427,356629
1031.82,0.054261,401911,354706
1036.78,0.053892,398410,351915
1040.49,0.053511,396204,350274
1044.2,0.053334,394236,348676
1047.91,0.052808,392042,347156
1051.61,0.052230,389823,345651
1055.31,0.051918,388234,344489
1059,0.050861,387599,344764
1063.92,0.050650,386688,344121
1067.61,0.049293,386598,345117
1071.29,0.048905,387377,346122
1074.96,0.048238,388536,347691
1078.63,0.047854,389855,349180
1082.3,0.047264,391215,350874
1085.96,0.046734,393215,353099
1090.84,0.046151,396270,356320
1094.49,0.045283,398760,359276
1098.14,0.044644,400987,361815
1101.79,0.044351,403477,364307
1105.43,0.044872,406116,366250
1109.06,0.044427,407701,368057
1112.7,0.044416,409859,370014
1117.53,0.044126,412494,372642
1121.15,0.045283,414909,373826
1124.77,0.045382,416559,375227
1128.38,0.046572,418532,375973
1131.99,0.048118,419956,375912
1135.6,0.049725,421946,376298
1139.2,0.051779,423881,376240
1143.99,0.054348,426786,376584
1147.58,0.055224,428617,377438
1151.17,0.056451,431169,378614
1154.75,0.058311,433579,379103
1158.33,0.059527,436264,380384
1161.91,0.061798,439132,380888
1165.48,0.064338,442389,381475
1169.04,0.066609,446101,382670
1173.79,0.070436,451929,384268
1177.34,0.072943,456026,385520
1180.9,0.075032,461306,388112
1184.44,0.076941,467657,391730
1187.99,0.078008,473969,396043
1191.52,0.077600,479856,401339
1195.06,0.077215,487372,407986
1199.76,0.076443,497347,417077
1203.29,0.075637,504311,423703
1206.81,0.075160,511507,430221
1210.33,0.074085,519078,437671
1213.84,0.073374,527163,445216
1217.35,0.072458,534208,452119
1220.85,0.071717,540472,458201
1225.51,0.070111,549929,467946
1229.01,0.069685,556888,474332
1232.5,0.069410,562180,479143
1235.98,0.068534,567975,485060
1239.46,0.067900,574815,491618
1242.94,0.066575,582782,499955
1246.41,0.066107,591476,507961
1251.03,0.065849,604016,519038
1254.5,0.066092,612289,525853
1257.96,0.066718,619125,530958
1261.41,0.066968,624551,535303
1264.86,0.067611,629900,539089
1268.31,0.068257,634345,542087
1271.75,0.068851,638574,544954
1276.33,0.069289,642499,547751
1279.76,0.069538,645905,550340
1283.19,0.068685,648307,553472
1286.61,0.068533,650446,555492
1290.03,0.068022,652132,557588
1293.44,0.067352,653907,559969
1296.85,0.067513,655963,561521
1301.39,0.067298,657349,562986
1304.8,0.067436,657558,562986
1308.19,0.067440,658515,563801
1311.58,0.067772,658804,563617
1314.97,0.068224,659011,563208
1318.36,0.069073,658272,561477
1321.73,0.069281,658022,560995
1326.23,0.070168,657870,559721
1329.6,0.071162,656482,557264
1332.97,0.071801,654926,555125
1336.33,0.073448,653727,552012
1339.69,0.075031,652497,548968
1343.04,0.076856,649913,544502
1346.39,0.079088,647671,539842
1349.73,0.081118,645338,535389
1354.18,0.084594,641175,527695
1357.52,0.086477,638376,523118
1360.85,0.088962,635805,518038
1364.17,0.091171,633413,513471
1367.49,0.094158,631026,508030
1370.81,0.095997,628050,503497
1374.12,0.098676,625034,497998
1378.54,0.102183,620272,490229
1381.84,0.105542,616892,483801
1385.14,0.109499,613613,476865
1388.43,0.114484,611526,469819
1391.72,0.119242,610663,464044
1395.01,0.123766,610634,459214
1398.29,0.129651,611700,453824
1402.66,0.137414,614051,447497
1405.93,0.143509,616268,442854
1409.2,0.148780,617795,438596
1412.46,0.154469,618872,433642
1415.72,0.158752,619795,430027
1418.98,0.163388,620495,425942
1422.23,0.166685,621087,423124
1426.56,0.171986,621375,418184
1429.8,0.174208,621616,416212
1433.04,0.177585,622129,413329
1436.27,0.179666,621526,410954
1439.5,0.181344,621113,409097
1442.72,0.183880,620921,406590
1445.94,0.186679,620270,403554
1450.23,0.190308,618860,399286
1453.44,0.192776,617697,396278
1456.64,0.196660,616264,391838
1459.85,0.199150,614413,388428
1463.04,0.202522,612307,384103
1466.24,0.204680,610032,380779
1469.43,0.208879,607345,375454
1473.67,0.214593,603789,368377
1476.85,0.219853,601175,362366
1480.02,0.225746,597737,355438
1483.19,0.232129,594479,348343
1486.36,0.237971,591232,341812
1489.52,0.243029,587853,335923
1492.68,0.246975,583875,330632
1496.89,0.249099,578062,325743
1500.03,0.249628,574159,323150
1503.18,0.249421,570285,321123
1506.32,0.248821,565444,318837
1509.45,0.247336,560571,317172
1512.58,0.245996,555821,315456
1515.71,0.243454,550344,314181
1519.87,0.240507,543983,312664
1522.99,0.237291,538764,311966
1526.1,0.234525,533692,311004
1529.21,0.231740,527902,309609
1532.32,0.228768,521886,308182
1535.42,0.225693,515888,306805
1538.51,0.222220,509987,305731
1541.6,0.219873,503936,303740
1545.72,0.214653,494694,301775
1548.8,0.212483,488378,299415
1551.88,0.209412,481832,297498
1554.95,0.207169,474989,294791
1558.02,0.205595,467818,291395
1561.08,0.204256,460730,287866
1564.15,0.203463,454170,284286
1568.22,0.202470,444181,278670
1571.27,0.201393,436947,274812
1574.32,0.200877,429598,270511
1577.36,0.199465,422039,266617
1580.4,0.198306,414375,262475
1583.43,0.195824,406354,258869
1586.46,0.194437,398475,254662
1590.49,0.192153,388982,249906
1593.51,0.189339,380708,246180
1596.53,0.187036,372727,242301
1599.54,0.185528,365060,238142
1602.55,0.183868,357543,234132
1605.55,0.181232,349495,230255
1608.55,0.177767,341154,226560
1612.54,0.176624,330877,220314
1615.53,0.174537,322904,216041
1618.51,0.172901,315116,211626
1621.49,0.172269,307217,206622
1624.47,0.170749,299481,202125
1627.44,0.169560,292112,197692
1630.41,0.167522,284245,193273
1634.36,0.166604,274079,186755
1637.32,0.167173,266916,181636
1640.27,0.166074,259612,177113
1643.22,0.163607,251804,172765
1646.16,0.164303,244348,167381
1649.1,0.162910,236703,162665
1652.04,0.160740,228171,157587
1655.95,0.157738,215408,149804
1658.88,0.157169,204937,142709
1661.8,0.151933,193395,136305
1664.72,0.147114,179728,128086
1667.63,0.137458,163642,119244
1670.54,0.126013,146312,109463
1673.44,0.114614,128451,98656
1677.31,0.101496,105080,83181
1680.21,0.092649,88906,71826
1683.1,0.094683,75033,60335
1685.99,0.100747,63520,50369
1688.87,0.102384,53714,42433
1691.75,0.107788,45653,35619
1694.62,0.109485,39137,30416
1697.49,0.119047,33776,25678
1701.31,0.128867,28175,20941