Folder: textile_sorting_NIRSCAN_/samples/wool/wool-000811 (part 140)

File: Column 1_050609_20150331_122755.csv
Method:,Column 1,,
Host Date-Time:,31/3/15 @ 12:27:55,,
Header Version:,1,,
System Temp (C):,34.04,,
Detector Temp (C):,34.84,,
Humidity (%):,1.66,,
Lamp PD:,3818,,
Shift Vector Coefficients:,-10.5391,0.0761263,-0.000134223,,
Pixel to Wavelength Coefficients:,1775.68,-0.916766,-0.000235065,,
Serial Number:,5510004,,
Scan Config Name:,Column 1,,
Scan Config Type:,Slew,,
Section 1,,
Start wavelength (nm):,900,,
End wavelength (nm):,1700,,
Pattern Pixel Width (nm):,   7.03,,,,
Exposure (ms):,  0.635,,,,
Digital Resolution:,228,,
Num Repeats:,6,,
PGA Gain:,64,,
Total Measurement Time in sec:,  2.673,,
Wavelength (nm),Absorbance (AU),Reference Signal (unitless),Sample Signal (unitless)
901.51,0.068604,108485,92633
905.376,0.074746,121306,102126
909.237,0.077132,131909,110444
913.095,0.077891,143299,119771
916.948,0.079411,156982,130749
922.079,0.080883,179937,149361
925.923,0.081087,200504,166355
929.762,0.081580,222660,184528
933.597,0.082437,244426,202167
937.427,0.080347,263972,219387
941.254,0.080105,281845,234372
945.076,0.078577,297271,248071
950.165,0.078045,315605,263693
953.978,0.077261,328029,274569
957.786,0.077115,340470,285078
961.59,0.077525,352317,294719
965.389,0.077394,363056,303794
969.185,0.077544,373162,312143
972.976,0.078056,382632,319687
976.763,0.078264,391202,326691
981.806,0.078703,400190,333859
985.583,0.079454,406088,338194
989.355,0.079815,410162,341303
993.124,0.079896,412868,343491
996.888,0.080585,414263,344105
1000.65,0.081247,415476,344587
1004.4,0.082716,415479,343426
1009.41,0.084239,414358,341300
1013.15,0.083843,412923,340429
1016.89,0.084306,411526,338915
1020.63,0.084149,409066,337011
1024.36,0.084520,406777,334839
1028.09,0.084225,404427,333131
1031.82,0.084444,401911,330892
1036.78,0.083975,398410,328364
1040.49,0.083523,396204,326886
1044.2,0.083458,394236,325311
1047.91,0.083402,392042,323542
1051.61,0.082735,389823,322205
1055.31,0.082468,388234,321089
1059,0.081652,387599,321167
1063.92,0.080580,386688,321204
1067.61,0.080507,386598,321183
1071.29,0.079971,387377,322228
1074.96,0.079395,388536,323621
1078.63,0.079133,389855,324915
1082.3,0.078421,391215,326584
1085.96,0.077197,393215,329180
1090.84,0.076797,396270,332043
1094.49,0.075738,398760,334945
1098.14,0.075302,400987,337154
1101.79,0.075406,403477,339166
1105.43,0.074738,406116,341910
1109.06,0.074294,407701,343596
1112.7,0.073032,409859,346420
1117.53,0.073333,412494,348405
1121.15,0.073961,414909,349939
1124.77,0.074330,416559,351032
1128.38,0.074995,418532,352155
1131.99,0.076000,419956,352536
1135.6,0.077390,421946,353075
1139.2,0.078713,423881,353615
1143.99,0.081105,426786,354083
1147.58,0.081303,428617,355440
1151.17,0.081927,431169,357043
1154.75,0.083569,433579,357684
1158.33,0.084487,436264,359139
1161.91,0.086629,439132,359721
1165.48,0.088638,442389,360717
1169.04,0.090665,446101,362050
1173.79,0.094118,451929,363875
1177.34,0.095973,456026,365609
1180.9,0.098022,461306,368101
1184.44,0.100157,467657,371339
1187.99,0.100737,473969,375849
1191.52,0.101082,479856,380215
1195.06,0.100799,487372,386422
1199.76,0.100464,497347,394635
1203.29,0.099678,504311,400886
1206.81,0.099356,511507,406907
1210.33,0.098163,519078,414066
1213.84,0.098486,527163,420203
1217.35,0.097549,534208,426738
1220.85,0.096464,540472,432822
1225.51,0.095926,549929,440941
1229.01,0.095317,556888,447148
1232.5,0.094845,562180,451888
1235.98,0.094101,567975,457328
1239.46,0.093332,574815,463656
1242.94,0.092107,582782,471410
1246.41,0.091426,591476,479194
1251.03,0.091534,604016,489232
1254.5,0.091429,612289,496052
1257.96,0.092244,619125,500650
1261.41,0.092694,624551,504515
1264.86,0.093371,629900,508043
1268.31,0.093548,634345,511420
1271.75,0.093855,638574,514466
1276.33,0.094202,642499,517214
1279.76,0.094074,645905,520109
1283.19,0.094171,648307,521927
1286.61,0.093244,650446,524768
1290.03,0.093331,652132,526023
1293.44,0.092372,653907,528620
1296.85,0.092223,655963,530464
1301.39,0.091986,657349,531876
1304.8,0.092140,657558,531856
1308.19,0.092239,658515,532509
1311.58,0.092659,658804,532227
1314.97,0.093189,659011,531745
1318.36,0.093477,658272,530797
1321.73,0.093129,658022,531021
1326.23,0.094122,657870,529686
1329.6,0.094869,656482,527659
1332.97,0.095581,654926,525547
1336.33,0.096618,653727,523333
1339.69,0.098498,652497,520093
1343.04,0.099473,649913,516871
1346.39,0.101670,647671,512489
1349.73,0.103589,645338,508392
1354.18,0.106481,641175,501759
1357.52,0.108797,638376,496912
1360.85,0.110703,635805,492743
1364.17,0.112546,633413,488811
1367.49,0.114719,631026,484539
1370.81,0.117014,628050,479712
1374.12,0.119079,625034,475143
1378.54,0.121774,620272,468606
1381.84,0.124528,616892,463107
1385.14,0.127634,613613,457363
1388.43,0.131063,611526,452222
1391.72,0.135780,610663,446706
1395.01,0.139227,610634,443153
1398.29,0.143878,611700,439198
1402.66,0.150174,614051,434541
1405.93,0.155095,616268,431196
1409.2,0.159588,617795,427815
1412.46,0.163970,618872,424259
1415.72,0.167378,619795,421570
1418.98,0.171122,620495,418424
1422.23,0.174490,621087,415587
1426.56,0.178162,621375,412280
1429.8,0.181567,621616,409218
1433.04,0.183849,622129,407410
1436.27,0.185634,621526,405345
1439.5,0.187659,621113,403192
1442.72,0.190447,620921,400488
1445.94,0.192498,620270,398183
1450.23,0.196405,618860,393720
1453.44,0.198504,617697,391085
1456.64,0.201704,616264,387314
1459.85,0.204515,614413,383659
1463.04,0.207859,612307,379411
1466.24,0.210065,610032,376086
1469.43,0.214611,607345,370531
1473.67,0.220701,603789,363232
1476.85,0.226778,601175,356634
1480.02,0.232939,597737,349600
1483.19,0.238937,594479,342925
1486.36,0.244533,591232,336686
1489.52,0.249251,587853,331145
1492.68,0.252612,583875,326368
1496.89,0.255588,578062,320912
1500.03,0.255608,574159,318731
1503.18,0.255227,570285,316858
1506.32,0.254957,565444,314364
1509.45,0.253157,560571,312949
1512.58,0.251466,555821,311508
1515.71,0.249842,550344,309594
1519.87,0.245995,543983,308738
1522.99,0.243613,538764,307458
1526.1,0.241314,533692,306180
1529.21,0.237994,527902,305182
1532.32,0.236024,521886,303076
1535.42,0.233078,515888,301632
1538.51,0.229092,509987,300931
1541.6,0.226720,503936,298989
1545.72,0.223020,494694,296017
1548.8,0.220108,488378,294204
1551.88,0.218154,481832,291569
1554.95,0.215604,474989,289121
1558.02,0.214410,467818,285540
1561.08,0.212743,460730,282295
1564.15,0.212814,454170,278230
1568.22,0.211884,444181,272694
1571.27,0.210831,436947,268904
1574.32,0.210779,429598,264413
1577.36,0.209157,422039,260733
1580.4,0.207739,414375,256835
1583.43,0.206874,406354,252366
1586.46,0.205678,398475,248155
1590.49,0.202314,388982,244127
1593.51,0.201457,380708,239406
1596.53,0.199153,372727,235634
1599.54,0.197240,365060,231806
1602.55,0.194514,357543,228462
1605.55,0.193954,349495,223608
1608.55,0.190672,341154,219927
1612.54,0.189852,330877,213705
1615.53,0.186943,322904,209957
1618.51,0.186984,315116,204874
1621.49,0.185476,307217,200433
1624.47,0.184679,299481,195745
1627.44,0.182794,292112,191759
1630.41,0.182656,284245,186654
1634.36,0.182020,274079,180242
1637.32,0.180800,266916,176025
1640.27,0.179400,259612,171761
1643.22,0.179195,251804,166674
1646.16,0.178076,244348,162156
1649.1,0.178191,236703,157041
1652.04,0.177384,228171,151662
1655.95,0.172706,215408,144729
1658.88,0.169103,204937,138841
1661.8,0.163931,193395,132591
1664.72,0.155512,179728,125633
1667.63,0.144449,163642,117340
1670.54,0.129406,146312,108611
1673.44,0.112195,128451,99207
1677.31,0.090775,105080,85260
1680.21,0.080898,88906,73796
1683.1,0.074948,75033,63140
1685.99,0.076028,63520,53319
1688.87,0.079042,53714,44776
1691.75,0.082322,45653,37770
1694.62,0.088402,39137,31929
1697.49,0.101025,33776,26766
1701.31,0.099383,28175,22412

File: Column 1_050609_20150331_122757.csv
Method:,Column 1,,
Host Date-Time:,31/3/15 @ 12:27:57,,
Header Version:,1,,
System Temp (C):,34.05,,
Detector Temp (C):,34.85,,
Humidity (%):,1.66,,
Lamp PD:,3818,,
Shift Vector Coefficients:,-10.5391,0.0761263,-0.000134223,,
Pixel to Wavelength Coefficients:,1775.68,-0.916766,-0.000235065,,
Serial Number:,5510004,,
Scan Config Name:,Column 1,,
Scan Config Type:,Slew,,
Section 1,,
Start wavelength (nm):,900,,
End wavelength (nm):,1700,,
Pattern Pixel Width (nm):,   7.03,,,,
Exposure (ms):,  0.635,,,,
Digital Resolution:,228,,
Num Repeats:,6,,
PGA Gain:,64,,
Total Measurement Time in sec:,  2.673,,
Wavelength (nm),Absorbance (AU),Reference Signal (unitless),Sample Signal (unitless)
901.51,0.067387,108485,92893
905.376,0.072473,121306,102662
909.237,0.076382,131909,110635
913.095,0.076006,143299,120292
916.948,0.077751,156982,131250
922.079,0.079867,179937,149711
925.923,0.080672,200504,166514
929.762,0.081884,222660,184399
933.597,0.081851,244426,202440
937.427,0.080616,263972,219251
941.254,0.079521,281845,234687
945.076,0.077978,297271,248413
950.165,0.078635,315605,263335
953.978,0.077270,328029,274563
957.786,0.076584,340470,285427
961.59,0.077633,352317,294646
965.389,0.077097,363056,304002
969.185,0.076618,373162,312809
972.976,0.077747,382632,319915
976.763,0.078082,391202,326828
981.806,0.078288,400190,334178
985.583,0.079104,406088,338467
989.355,0.079574,410162,341493
993.124,0.079867,412868,343514
996.888,0.080163,414263,344440
1000.65,0.081129,415476,344681
1004.4,0.082567,415479,343544
1009.41,0.083820,414358,341630
1013.15,0.083587,412923,340629
1016.89,0.084296,411526,338923
1020.63,0.083717,409066,337347
1024.36,0.084563,406777,334806
1028.09,0.083934,404427,333354
1031.82,0.084061,401911,331184
1036.78,0.083431,398410,328775
1040.49,0.083697,396204,326755
1044.2,0.083149,394236,325542
1047.91,0.082875,392042,323935
1051.61,0.082979,389823,322024
1055.31,0.082537,388234,321038
1059,0.081902,387599,320982
1063.92,0.081369,386688,320621
1067.61,0.080141,386598,321454
1071.29,0.079670,387377,322451
1074.96,0.079773,388536,323339
1078.63,0.078924,389855,325072
1082.3,0.078018,391215,326887
1085.96,0.076649,393215,329595
1090.84,0.076236,396270,332472
1094.49,0.075185,398760,335372
1098.14,0.075749,400987,336807
1101.79,0.074723,403477,339700
1105.43,0.074343,406116,342221
1109.06,0.074626,407701,343333
1112.7,0.073695,409859,345891
1117.53,0.072922,412494,348735
1121.15,0.073748,414909,350110
1124.77,0.073473,416559,351725
1128.38,0.074387,418532,352648
1131.99,0.075190,419956,353194
1135.6,0.076842,421946,353521
1139.2,0.078568,423881,353733
1143.99,0.080430,426786,354634
1147.58,0.081376,428617,355380
1151.17,0.082359,431169,356688
1154.75,0.083166,433579,358016
1158.33,0.084206,436264,359371
1161.91,0.086068,439132,360186
1165.48,0.088529,442389,360807
1169.04,0.090176,446101,362458
1173.79,0.093300,451929,364561
1177.34,0.095829,456026,365730
1180.9,0.098292,461306,367872
1184.44,0.099996,467657,371477
1187.99,0.100909,473969,375700
1191.52,0.100643,479856,380599
1195.06,0.101089,487372,386164
1199.76,0.100379,497347,394712
1203.29,0.099290,504311,401244
1206.81,0.098746,511507,407479
1210.33,0.098621,519078,413630
1213.84,0.097899,527163,420771
1217.35,0.097490,534208,426796
1220.85,0.096724,540472,432563
1225.51,0.095715,549929,441155
1229.01,0.095316,556888,447149
1232.5,0.094895,562180,451836
1235.98,0.094212,567975,457212
1239.46,0.093238,574815,463757
1242.94,0.092087,582782,471432
1246.41,0.091646,591476,478951
1251.03,0.091543,604016,489221
1254.5,0.091522,612289,495946
1257.96,0.092047,619125,500877
1261.41,0.092681,624551,504530
1264.86,0.092885,629900,508612
1268.31,0.093421,634345,511569
1271.75,0.094395,638574,513826
1276.33,0.094517,642499,516839
1279.76,0.093942,645905,520267
1283.19,0.093716,648307,522474
1286.61,0.093160,650446,524869
1290.03,0.093048,652132,526366
1293.44,0.092489,653907,528478
1296.85,0.092464,655963,530170
1301.39,0.091880,657349,532005
1304.8,0.092244,657558,531729
1308.19,0.092463,658515,532234
1311.58,0.092167,658804,532831
1314.97,0.092423,659011,532684
1318.36,0.092925,658272,531472
1321.73,0.093346,658022,530756
1326.23,0.094033,657870,529794
1329.6,0.094552,656482,528045
1332.97,0.095952,654926,525098
1336.33,0.096685,653727,523253
1339.69,0.098589,652497,519984
1343.04,0.099717,649913,516581
1346.39,0.101605,647671,512566
1349.73,0.103464,645338,508538
1354.18,0.106302,641175,501966
1357.52,0.108284,638376,497499
1360.85,0.110408,635805,493078
1364.17,0.112471,633413,488895
1367.49,0.114675,631026,484587
1370.81,0.116817,628050,479929
1374.12,0.119243,625034,474964
1378.54,0.121853,620272,468521
1381.84,0.124368,616892,463277
1385.14,0.128011,613613,456966
1388.43,0.131243,611526,452035
1391.72,0.135108,610663,447398
1395.01,0.139455,610634,442921
1398.29,0.143445,611700,439636
1402.66,0.149421,614051,435295
1405.93,0.155003,616268,431287
1409.2,0.159219,617795,428179
1412.46,0.164023,618872,424207
1415.72,0.167738,619795,421221
1418.98,0.171084,620495,418460
1422.23,0.174686,621087,415400
1426.56,0.178216,621375,412228
1429.8,0.180821,621616,409922
1433.04,0.183456,622129,407779
1436.27,0.185580,621526,405396
1439.5,0.187473,621113,403364
1442.72,0.190156,620921,400756
1445.94,0.192529,620270,398155
1450.23,0.195856,618860,394218
1453.44,0.198090,617697,391458
1456.64,0.200840,616264,388085
1459.85,0.204120,614413,384008
1463.04,0.206983,612307,380177
1466.24,0.210427,610032,375773
1469.43,0.214450,607345,370668
1473.67,0.221041,603789,362948
1476.85,0.226408,601175,356938
1480.02,0.232174,597737,350216
1483.19,0.238582,594479,343206
1486.36,0.244533,591232,336686
1489.52,0.249012,587853,331327
1492.68,0.253033,583875,326052
1496.89,0.254819,578062,321481
1500.03,0.255386,574159,318894
1503.18,0.255300,570285,316805
1506.32,0.254203,565444,314910
1509.45,0.253550,560571,312666
1512.58,0.251105,555821,311767
1515.71,0.249090,550344,310130
1519.87,0.246885,543983,308106
1522.99,0.244052,538764,307147
1526.1,0.241368,533692,306142
1529.21,0.238332,527902,304945
1532.32,0.235779,521886,303247
1535.42,0.232583,515888,301976
1538.51,0.229442,509987,300689
1541.6,0.226967,503936,298819
1545.72,0.223181,494694,295907
1548.8,0.219910,488378,294338
1551.88,0.216972,481832,292364
1554.95,0.215379,474989,289271
1558.02,0.213677,467818,286022
1561.08,0.212908,460730,282188
1564.15,0.212643,454170,278340
1568.22,0.211620,444181,272860
1571.27,0.211284,436947,268624
1574.32,0.209898,429598,264950
1577.36,0.208875,422039,260902
1580.4,0.207714,414375,256850
1583.43,0.206717,406354,252457
1586.46,0.204860,398475,248623
1590.49,0.202625,388982,243952
1593.51,0.200919,380708,239703
1596.53,0.198759,372727,235848
1599.54,0.196590,365060,232153
1602.55,0.194472,357543,228484
1605.55,0.192647,349495,224282
1608.55,0.190559,341154,219984
1612.54,0.188399,330877,214421
1615.53,0.187289,322904,209790
1618.51,0.187066,315116,204835
1621.49,0.186198,307217,200100
1624.47,0.184825,299481,195679
1627.44,0.183401,292112,191491
1630.41,0.182453,284245,186741
1634.36,0.182027,274079,180239
1637.32,0.180862,266916,176000
1640.27,0.180268,259612,171418
1643.22,0.178966,251804,166762
1646.16,0.178998,244348,161812
1649.1,0.177196,236703,157401
1652.04,0.175102,228171,152461
1655.95,0.172092,215408,144934
1658.88,0.169078,204937,138849
1661.8,0.163790,193395,132634
1664.72,0.155229,179728,125715
1667.63,0.143288,163642,117654
1670.54,0.126707,146312,109288
1673.44,0.113282,128451,98959
1677.31,0.092265,105080,84968
1680.21,0.081888,88906,73628
1683.1,0.076077,75033,62976
1685.99,0.072039,63520,53811
1688.87,0.076104,53714,45080
1691.75,0.080784,45653,37904
1694.62,0.086015,39137,32105
1697.49,0.087778,33776,27595
1701.31,0.100859,28175,22336

File: Column 1_050609_20150331_122806.csv
Method:,Column 1,,
Host Date-Time:,31/3/15 @ 12:28:6,,
Header Version:,1,,
System Temp (C):,34.04,,
Detector Temp (C):,34.87,,
Humidity (%):,1.66,,
Lamp PD:,3818,,
Shift Vector Coefficients:,-10.5391,0.0761263,-0.000134223,,
Pixel to Wavelength Coefficients:,1775.68,-0.916766,-0.000235065,,
Serial Number:,5510004,,
Scan Config Name:,Column 1,,
Scan Config Type:,Slew,,
Section 1,,
Start wavelength (nm):,900,,
End wavelength (nm):,1700,,
Pattern Pixel Width (nm):,   7.03,,,,
Exposure (ms):,  0.635,,,,
Digital Resolution:,228,,
Num Repeats:,6,,
PGA Gain:,64,,
Total Measurement Time in sec:,  2.670,,
Wavelength (nm),Absorbance (AU),Reference Signal (unitless),Sample Signal (unitless)
901.51,0.070615,108485,92205
905.376,0.075772,121306,101885
909.237,0.075429,131909,110878
913.095,0.077761,143299,119807
916.948,0.079395,156982,130754
922.079,0.080712,179937,149420
925.923,0.082245,200504,165912
929.762,0.083382,222660,183764
933.597,0.082484,244426,202145
937.427,0.079953,263972,219586
941.254,0.080362,281845,234233
945.076,0.079134,297271,247753
950.165,0.077923,315605,263767
953.978,0.077560,328029,274380
957.786,0.077301,340470,284956
961.59,0.077095,352317,295011
965.389,0.077031,363056,304048
969.185,0.077497,373162,312177
972.976,0.077965,382632,319754
976.763,0.078459,391202,326544
981.806,0.078417,400190,334079
985.583,0.079511,406088,338150
989.355,0.079962,410162,341188
993.124,0.080612,412868,342925
996.888,0.080931,414263,343831
1000.65,0.081779,415476,344165
1004.4,0.082439,415479,343645
1009.41,0.084228,414358,341309
1013.15,0.084473,412923,339935
1016.89,0.085204,411526,338215
1020.63,0.084728,409066,336562
1024.36,0.084618,406777,334764
1028.09,0.084110,404427,333219
1031.82,0.084265,401911,331028
1036.78,0.084622,398410,327875
1040.49,0.083418,396204,326965
1044.2,0.083570,394236,325227
1047.91,0.083002,392042,323840
1051.61,0.082889,389823,322091
1055.31,0.082204,388234,321284
1059,0.082116,387599,320824
1063.92,0.081290,386688,320679
1067.61,0.080595,386598,321118
1071.29,0.080649,387377,321725
1074.96,0.079486,388536,323553
1078.63,0.079449,389855,324679
1082.3,0.079011,391215,326140
1085.96,0.077393,393215,329031
1090.84,0.076654,396270,332152
1094.49,0.076567,398760,334306
1098.14,0.075948,400987,336653
1101.79,0.074910,403477,339554
1105.43,0.075154,406116,341583
1109.06,0.073603,407701,344143
1112.7,0.073759,409859,345840
1117.53,0.072875,412494,348773
1121.15,0.073890,414909,349996
1124.77,0.073982,416559,351313
1128.38,0.074826,418532,352292
1131.99,0.075371,419956,353047
1135.6,0.077781,421946,352757
1139.2,0.078665,423881,353654
1143.99,0.080986,426786,354180
1147.58,0.081700,428617,355115
1151.17,0.082343,431169,356701
1154.75,0.083302,433579,357904
1158.33,0.085300,436264,358467
1161.91,0.087103,439132,359329
1165.48,0.088850,442389,360541
1169.04,0.090110,446101,362513
1173.79,0.094345,451929,363685
1177.34,0.096353,456026,365289
1180.9,0.098521,461306,367678
1184.44,0.100472,467657,371070
1187.99,0.101156,473969,375486
1191.52,0.101099,479856,380200
1195.06,0.101165,487372,386096
1199.76,0.100627,497347,394487
1203.29,0.099757,504311,400813
1206.81,0.099108,511507,407140
1210.33,0.098449,519078,413793
1213.84,0.097965,527163,420707
1217.35,0.097461,534208,426825
1220.85,0.096861,540472,432426
1225.51,0.096032,549929,440834
1229.01,0.095417,556888,447045
1232.5,0.095008,562180,451718
1235.98,0.094572,567975,456833
1239.46,0.092900,574815,464118
1242.94,0.092382,582782,471112
1246.41,0.091833,591476,478745
1251.03,0.091567,604016,489194
1254.5,0.091732,612289,495706
1257.96,0.092173,619125,500732
1261.41,0.092683,624551,504528
1264.86,0.093017,629900,508458
1268.31,0.093730,634345,511206
1271.75,0.094373,638574,513852
1276.33,0.094539,642499,516813
1279.76,0.094587,645905,519495
1283.19,0.093873,648307,522285
1286.61,0.093619,650446,524315
1290.03,0.093025,652132,526394
1293.44,0.092515,653907,528447
1296.85,0.092780,655963,529785
1301.39,0.092454,657349,531303
1304.8,0.091895,657558,532156
1308.19,0.092432,658515,532272
1311.58,0.092508,658804,532412
1314.97,0.092980,659011,532001
1318.36,0.093223,658272,531108
1321.73,0.093260,658022,530860
1326.23,0.094116,657870,529693
1329.6,0.095111,656482,527366
1332.97,0.096072,654926,524953
1336.33,0.097013,653727,522858
1339.69,0.098537,652497,520046
1343.04,0.099808,649913,516472
1346.39,0.102166,647671,511904
1349.73,0.104084,645338,507812
1354.18,0.106620,641175,501599
1357.52,0.108410,638376,497355
1360.85,0.110303,635805,493198
1364.17,0.112597,633413,488754
1367.49,0.114902,631026,484334
1370.81,0.116984,628050,479745
1374.12,0.119003,625034,475226
1378.54,0.122325,620272,468012
1381.84,0.124579,616892,463052
1385.14,0.127899,613613,457084
1388.43,0.131904,611526,451347
1391.72,0.135494,610663,447000
1395.01,0.139528,610634,442846
1398.29,0.143924,611700,439152
1402.66,0.149794,614051,434921
1405.93,0.155050,616268,431241
1409.2,0.159534,617795,427869
1412.46,0.164090,618872,424142
1415.72,0.167517,619795,421435
1418.98,0.171086,620495,418458
1422.23,0.174837,621087,415256
1426.56,0.178644,621375,411822
1429.8,0.181063,621616,409694
1433.04,0.183404,622129,407827
1436.27,0.186054,621526,404954
1439.5,0.187872,621113,402994
1442.72,0.190175,620921,400739
1445.94,0.192465,620270,398213
1450.23,0.196158,618860,393944
1453.44,0.199252,617697,390412
1456.64,0.201677,616264,387338
1459.85,0.204386,614413,383773
1463.04,0.207250,612307,379944
1466.24,0.210907,610032,375358
1469.43,0.214617,607345,370526
1473.67,0.220829,603789,363125
1476.85,0.226317,601175,357013
1480.02,0.232749,597737,349753
1483.19,0.239188,594479,342727
1486.36,0.244806,591232,336474
1489.52,0.250053,587853,330534
1492.68,0.253077,583875,326019
1496.89,0.254983,578062,321360
1500.03,0.255487,574159,318820
1503.18,0.256055,570285,316255
1506.32,0.254745,565444,314517
1509.45,0.253857,560571,312445
1512.58,0.251573,555821,311431
1515.71,0.249755,550344,309656
1519.87,0.246719,543983,308224
1522.99,0.243818,538764,307313
1526.1,0.241436,533692,306094
1529.21,0.238791,527902,304623
1532.32,0.236120,521886,303009
1535.42,0.233071,515888,301637
1538.51,0.229655,509987,300541
1541.6,0.226395,503936,299213
1545.72,0.223262,494694,295852
1548.8,0.220001,488378,294276
1551.88,0.218077,481832,291621
1554.95,0.215784,474989,289001
1558.02,0.214314,467818,285603
1561.08,0.213621,460730,281725
1564.15,0.212596,454170,278370
1568.22,0.211437,444181,272975
1571.27,0.211849,436947,268275
1574.32,0.210893,429598,264344
1577.36,0.209200,422039,260707
1580.4,0.208225,414375,256548
1583.43,0.206912,406354,252344
1586.46,0.204573,398475,248787
1590.49,0.202639,388982,243944
1593.51,0.200987,380708,239665
1596.53,0.198801,372727,235825
1599.54,0.197751,365060,231533
1602.55,0.195150,357543,228128
1605.55,0.193255,349495,223968
1608.55,0.191651,341154,219432
1612.54,0.188993,330877,214128
1615.53,0.187552,322904,209663
1618.51,0.187206,315116,204769
1621.49,0.186194,307217,200102
1624.47,0.184257,299481,195935
1627.44,0.184121,292112,191174
1630.41,0.182274,284245,186818
1634.36,0.181952,274079,180270
1637.32,0.180610,266916,176102
1640.27,0.180697,259612,171249
1643.22,0.179351,251804,166614
1646.16,0.177918,244348,162215
1649.1,0.179506,236703,156566
1652.04,0.176806,228171,151864
1655.95,0.173487,215408,144469
1658.88,0.169031,204937,138864
1661.8,0.164997,193395,132266
1664.72,0.157404,179728,125087
1667.63,0.144971,163642,117199
1670.54,0.129338,146312,108628
1673.44,0.113273,128451,98961
1677.31,0.092295,105080,84962
1680.21,0.081493,88906,73695
1683.1,0.074103,75033,63263
1685.99,0.079833,63520,52854
1688.87,0.079926,53714,44685
1691.75,0.085751,45653,37473
1694.62,0.090283,39137,31791
1697.49,0.099308,33776,26872
1701.31,0.097894,28175,22489