Folder: textile_sorting_NIRSCAN_/samples/wool/wool-000811

Note: README.md
# Textile Sorting with NIRSCAN

This project focuses on sorting textiles using Near-Infrared (NIR) scanning technology.

## Table of Contents
- [Introduction](#introduction)
- [Features](#features)
- [Installation](#installation)
- [Usage](#usage)
- [Contributing](#contributing)
- [License](#license)

## Introduction
Textile sorting is a crucial step in recycling and waste management. This project utilizes NIR scanning to identify and sort different types of textiles efficiently.

![NIRSCAN](./images/nirscan_example.jpg)

## Features
- Accurate textile identification
- Efficient sorting mechanism
- Easy integration with existing systems

## Installation
To install the necessary dependencies, run:
```bash
pip install -r requirements.txt
```

## Usage
To start the textile sorting process, use the following command:
```bash
python sort_textiles.py
```

## Contributing
We welcome contributions! Please read our [contributing guidelines](CONTRIBUTING.md) for more details.

## License
This project is licensed under the MIT License. See the [LICENSE](LICENSE) file for details.

![Sorting Process](./images/sorting_process.jpg)

File: Column 1_050531_20150331_115039.csv
Method:,Column 1,,
Host Date-Time:,31/3/15 @ 11:50:39,,
Header Version:,1,,
System Temp (C):,29.95,,
Detector Temp (C):,31.76,,
Humidity (%):,5.06,,
Lamp PD:,3834,,
Shift Vector Coefficients:,-10.5391,0.0761263,-0.000134223,,
Pixel to Wavelength Coefficients:,1775.68,-0.916766,-0.000235065,,
Serial Number:,5510004,,
Scan Config Name:,Column 1,,
Scan Config Type:,Slew,,
Section 1,,
Start wavelength (nm):,900,,
End wavelength (nm):,1700,,
Pattern Pixel Width (nm):,   7.03,,,,
Exposure (ms):,  0.635,,,,
Digital Resolution:,228,,
Num Repeats:,6,,
PGA Gain:,64,,
Total Measurement Time in sec:,  2.680,,
Wavelength (nm),Absorbance (AU),Reference Signal (unitless),Sample Signal (unitless)
901.51,0.045769,108485,97634
905.376,0.050994,121306,107867
909.237,0.052917,131909,116777
913.095,0.053473,143299,126698
916.948,0.054297,156982,138533
922.079,0.052744,179937,159359
925.923,0.054400,200504,176898
929.762,0.054585,222660,196362
933.597,0.054898,244426,215402
937.427,0.054342,263972,232925
941.254,0.055186,281845,248213
945.076,0.054898,297271,261972
950.165,0.055074,315605,278016
953.978,0.055082,328029,288955
957.786,0.055328,340470,299744
961.59,0.056077,352317,309640
965.389,0.055911,363056,319200
969.185,0.056894,373162,327343
972.976,0.056867,382632,335671
976.763,0.058087,391202,342227
981.806,0.058725,400190,349576
985.583,0.059426,406088,354156
989.355,0.059540,410162,357615
993.124,0.060186,412868,359439
996.888,0.061272,414263,359753
1000.65,0.061531,415476,360591
1004.4,0.062492,415479,359797
1009.41,0.063976,414358,357602
1013.15,0.064215,412923,356167
1016.89,0.064949,411526,354363
1020.63,0.064692,409066,352453
1024.36,0.064712,406777,350465
1028.09,0.064622,404427,348512
1031.82,0.063981,401911,346856
1036.78,0.063282,398410,344388
1040.49,0.063053,396204,342662
1044.2,0.062686,394236,341248
1047.91,0.062134,392042,339781
1051.61,0.061246,389823,338549
1055.31,0.060469,388234,337773
1059,0.059469,387599,337998
1063.92,0.058792,386688,337729
1067.61,0.057891,386598,338352
1071.29,0.057291,387377,339502
1074.96,0.056070,388536,341477
1078.63,0.056144,389855,342578
1082.3,0.054489,391215,345085
1085.96,0.054152,393215,347119
1090.84,0.053241,396270,350550
1094.49,0.053160,398760,352819
1098.14,0.053027,400987,354898
1101.79,0.051869,403477,358055
1105.43,0.051892,406116,360378
1109.06,0.051788,407701,361871
1112.7,0.051398,409859,364113
1117.53,0.051703,412494,366197
1121.15,0.052623,414909,367561
1124.77,0.052959,416559,368738
1128.38,0.054734,418532,368973
1131.99,0.056259,419956,368931
1135.6,0.058387,421946,368867
1139.2,0.060617,423881,368661
1143.99,0.063776,426786,368497
1147.58,0.064798,428617,369208
1151.17,0.065818,431169,370535
1154.75,0.067710,433579,370987
1158.33,0.069630,436264,371637
1161.91,0.072212,439132,371863
1165.48,0.075063,442389,372170
1169.04,0.078275,446101,372527
1173.79,0.082638,451929,373622
1177.34,0.085197,456026,374794
1180.9,0.087470,461306,377154
1184.44,0.089286,467657,380751
1187.99,0.089758,473969,385471
1191.52,0.089712,479856,390300
1195.06,0.089268,487372,396819
1199.76,0.087845,497347,406270
1203.29,0.086532,504311,413206
1206.81,0.085389,511507,420206
1210.33,0.084361,519078,427437
1213.84,0.082926,527163,435531
1217.35,0.082132,534208,442159
1220.85,0.080739,540472,448781
1225.51,0.079869,549929,457549
1229.01,0.078724,556888,464562
1232.5,0.077664,562180,470123
1235.98,0.077309,567975,475357
1239.46,0.076334,574815,482163
1242.94,0.074925,582782,490435
1246.41,0.074390,591476,498364
1251.03,0.073658,604016,509789
1254.5,0.073828,612289,516569
1257.96,0.074106,619125,522002
1261.41,0.074763,624551,525781
1264.86,0.075484,629900,529405
1268.31,0.075647,634345,532940
1271.75,0.076715,638574,535176
1276.33,0.076963,642499,538158
1279.76,0.076879,645905,541115
1283.19,0.076064,648307,544148
1286.61,0.075748,650446,546340
1290.03,0.075606,652132,547935
1293.44,0.074974,653907,550227
1296.85,0.074862,655963,552100
1301.39,0.074776,657349,553375
1304.8,0.074525,657558,553872
1308.19,0.074909,658515,554188
1311.58,0.075279,658804,553958
1314.97,0.076074,659011,553119
1318.36,0.076658,658272,551756
1321.73,0.076867,658022,551282
1326.23,0.078101,657870,549590
1329.6,0.079345,656482,546862
1332.97,0.080938,654926,543569
1336.33,0.082160,653727,541049
1339.69,0.084021,652497,537722
1343.04,0.086025,649913,533127
1346.39,0.088345,647671,528457
1349.73,0.090881,645338,523488
1354.18,0.094232,641175,516113
1357.52,0.096809,638376,510820
1360.85,0.099474,635805,505650
1364.17,0.101457,633413,501453
1367.49,0.104714,631026,495831
1370.81,0.107026,628050,490872
1374.12,0.109571,625034,485660
1378.54,0.114124,620272,476934
1381.84,0.117790,616892,470348
1385.14,0.122902,613613,462373
1388.43,0.128504,611526,454895
1391.72,0.134699,610663,447819
1395.01,0.140243,610634,442118
1398.29,0.147353,611700,435698
1402.66,0.156615,614051,428144
1405.93,0.164340,616268,422114
1409.2,0.171302,617795,416430
1412.46,0.177615,618872,411136
1415.72,0.183789,619795,405937
1418.98,0.188987,620495,401561
1422.23,0.193490,621087,397798
1426.56,0.198739,621375,393201
1429.8,0.202524,621616,389940
1433.04,0.205462,622129,387631
1436.27,0.208608,621526,384460
1439.5,0.211249,621113,381875
1442.72,0.213428,620921,379847
1445.94,0.216674,620270,376623
1450.23,0.219906,618860,372981
1453.44,0.222601,617697,369977
1456.64,0.226075,616264,366178
1459.85,0.228639,614413,362929
1463.04,0.231193,612307,359564
1466.24,0.233269,610032,356520
1469.43,0.236767,607345,352102
1473.67,0.241103,603789,346563
1476.85,0.246269,601175,340982
1480.02,0.250450,597737,335784
1483.19,0.255727,594479,329921
1486.36,0.260994,591232,324163
1489.52,0.265915,587853,318679
1492.68,0.269407,583875,313988
1496.89,0.272140,578062,308912
1500.03,0.272929,574159,306269
1503.18,0.273203,570285,304011
1506.32,0.272683,565444,301791
1509.45,0.271867,560571,299753
1512.58,0.269752,555821,298664
1515.71,0.268368,550344,296665
1519.87,0.265710,543983,295036
1522.99,0.262570,538764,294326
1526.1,0.259714,533692,293479
1529.21,0.256466,527902,292474
1532.32,0.254032,521886,290766
1535.42,0.250883,515888,289516
1538.51,0.247000,509987,288775
1541.6,0.243911,503936,287385
1545.72,0.239071,494694,285276
1548.8,0.235738,488378,283804
1551.88,0.232368,481832,282181
1554.95,0.229982,474989,279706
1558.02,0.228641,467818,276335
1561.08,0.227340,460730,272965
1564.15,0.226020,454170,269897
1568.22,0.224281,444181,265020
1571.27,0.223807,436947,260989
1574.32,0.222526,429598,257357
1577.36,0.220899,422039,253778
1580.4,0.219972,414375,249702
1583.43,0.216917,406354,246597
1586.46,0.215870,398475,242399
1590.49,0.213057,388982,238162
1593.51,0.210508,380708,234468
1596.53,0.207580,372727,231106
1599.54,0.205765,365060,227300
1602.55,0.202832,357543,224128
1605.55,0.200584,349495,220220
1608.55,0.198913,341154,215793
1612.54,0.195759,330877,210818
1615.53,0.193221,322904,206944
1618.51,0.191368,315116,202816
1621.49,0.189381,307217,198639
1624.47,0.187651,299481,194410
1627.44,0.187082,292112,189875
1630.41,0.185358,284245,185496
1634.36,0.183773,274079,179516
1637.32,0.182296,266916,175420
1640.27,0.181131,259612,171078
1643.22,0.180575,251804,166145
1646.16,0.179441,244348,161647
1649.1,0.179149,236703,156695
1652.04,0.178126,228171,151403
1655.95,0.175687,215408,143739
1658.88,0.174048,204937,137269
1661.8,0.171648,193395,130256
1664.72,0.170454,179728,121384
1667.63,0.165232,163642,111857
1670.54,0.160348,146312,101142
1673.44,0.154505,128451,89998
1677.31,0.147932,105080,74746
1680.21,0.148159,88906,63208
1683.1,0.149520,75033,53178
1685.99,0.156399,63520,44311
1688.87,0.165717,53714,36675
1691.75,0.161241,45653,31494
1694.62,0.173309,39137,26259
1697.49,0.173138,33776,22671
1701.31,0.173333,28175,18903

File: Column 1_050531_20150331_115050.csv
Method:,Column 1,,
Host Date-Time:,31/3/15 @ 11:50:50,,
Header Version:,1,,
System Temp (C):,30.1,,
Detector Temp (C):,31.96,,
Humidity (%):,4.96,,
Lamp PD:,3832,,
Shift Vector Coefficients:,-10.5391,0.0761263,-0.000134223,,
Pixel to Wavelength Coefficients:,1775.68,-0.916766,-0.000235065,,
Serial Number:,5510004,,
Scan Config Name:,Column 1,,
Scan Config Type:,Slew,,
Section 1,,
Start wavelength (nm):,900,,
End wavelength (nm):,1700,,
Pattern Pixel Width (nm):,   7.03,,,,
Exposure (ms):,  0.635,,,,
Digital Resolution:,228,,
Num Repeats:,6,,
PGA Gain:,64,,
Total Measurement Time in sec:,  2.682,,
Wavelength (nm),Absorbance (AU),Reference Signal (unitless),Sample Signal (unitless)
901.51,0.045982,108485,97586
905.376,0.050455,121306,108001
909.237,0.052701,131909,116835
913.095,0.052292,143299,127043
916.948,0.052467,156982,139118
922.079,0.052567,179937,159424
925.923,0.052734,200504,177578
929.762,0.053540,222660,196835
933.597,0.053613,244426,216040
937.427,0.053394,263972,233434
941.254,0.054399,281845,248663
945.076,0.054522,297271,262199
950.165,0.054317,315605,278501
953.978,0.054204,328029,289540
957.786,0.054646,340470,300215
961.59,0.055568,352317,310003
965.389,0.055787,363056,319291
969.185,0.056024,373162,328000
972.976,0.056712,382632,335791
976.763,0.057566,391202,342638
981.806,0.058338,400190,349887
985.583,0.059182,406088,354355
989.355,0.059797,410162,357403
993.124,0.059470,412868,360032
996.888,0.060566,414263,360338
1000.65,0.061141,415476,360915
1004.4,0.062612,415479,359697
1009.41,0.063979,414358,357599
1013.15,0.064229,412923,356156
1016.89,0.063967,411526,355165
1020.63,0.064681,409066,352462
1024.36,0.064327,406777,350776
1028.09,0.064214,404427,348840
1031.82,0.063709,401911,347073
1036.78,0.062544,398410,344974
1040.49,0.062540,396204,343067
1044.2,0.061956,394236,341822
1047.91,0.061224,392042,340493
1051.61,0.060244,389823,339331
1055.31,0.060131,388234,338036
1059,0.059609,387599,337889
1063.92,0.057548,386688,338698
1067.61,0.056778,386598,339220
1071.29,0.056490,387377,340129
1074.96,0.055630,388536,341823
1078.63,0.055224,389855,343304
1082.3,0.054270,391215,345259
1085.96,0.053294,393215,347805
1090.84,0.053115,396270,350652
1094.49,0.052681,398760,353208
1098.14,0.051912,400987,355810
1101.79,0.051636,403477,358247
1105.43,0.052005,406116,360284
1109.06,0.051556,407701,362064
1112.7,0.051644,409859,363907
1117.53,0.051385,412494,366465
1121.15,0.052730,414909,367471
1124.77,0.052512,416559,369117
1128.38,0.054167,418532,369455
1131.99,0.056146,419956,369027
1135.6,0.058272,421946,368965
1139.2,0.059903,423881,369267
1143.99,0.063290,426786,368910
1147.58,0.063786,428617,370070
1151.17,0.065703,431169,370633
1154.75,0.066620,433579,371919
1158.33,0.069267,436264,371948
1161.91,0.072271,439132,371813
1165.48,0.074698,442389,372483
1169.04,0.077579,446101,373125
1173.79,0.082154,451929,374038
1177.34,0.084410,456026,375474
1180.9,0.087323,461306,377282
1184.44,0.089282,467657,380755
1187.99,0.090073,473969,385192
1191.52,0.089396,479856,390584
1195.06,0.089483,487372,396623
1199.76,0.087319,497347,406762
1203.29,0.085827,504311,413877
1206.81,0.084886,511507,420693
1210.33,0.083611,519078,428175
1213.84,0.082514,527163,435944
1217.35,0.081596,534208,442705
1220.85,0.080617,540472,448907
1225.51,0.079222,549929,458231
1229.01,0.078323,556888,464991
1232.5,0.077515,562180,470284
1235.98,0.076509,567975,476234
1239.46,0.075839,574815,482713
1242.94,0.074603,582782,490798
1246.41,0.073523,591476,499361
1251.03,0.073119,604016,510422
1254.5,0.073359,612289,517127
1257.96,0.073796,619125,522375
1261.41,0.074088,624551,526599
1264.86,0.074925,629900,530086
1268.31,0.075360,634345,533293
1271.75,0.076177,638574,535839
1276.33,0.076624,642499,538578
1279.76,0.076202,645905,541959
1283.19,0.075830,648307,544441
1286.61,0.075648,650446,546466
1290.03,0.075336,652132,548276
1293.44,0.074954,653907,550253
1296.85,0.074405,655963,552681
1301.39,0.074014,657349,554347
1304.8,0.074707,657558,553639
1308.19,0.074731,658515,554414
1311.58,0.074881,658804,554466
1314.97,0.075218,659011,554211
1318.36,0.076031,658272,552553
1321.73,0.076542,658022,551694
1326.23,0.077616,657870,550204
1329.6,0.078887,656482,547439
1332.97,0.079843,654926,544941
1336.33,0.081321,653727,542095
1339.69,0.083370,652497,538528
1343.04,0.085461,649913,533819
1346.39,0.087999,647671,528878
1349.73,0.090691,645338,523716
1354.18,0.093802,641175,516624
1357.52,0.096267,638376,511457
1360.85,0.098730,635805,506517
1364.17,0.101057,633413,501915
1367.49,0.103730,631026,496955
1370.81,0.106531,628050,491432
1374.12,0.109566,625034,485666
1378.54,0.113598,620272,477512
1381.84,0.117450,616892,470716
1385.14,0.122316,613613,462997
1388.43,0.127680,611526,455759
1391.72,0.133958,610663,448584
1395.01,0.140466,610634,441891
1398.29,0.146982,611700,436070
1402.66,0.156367,614051,428388
1405.93,0.163786,616268,422653
1409.2,0.170784,617795,416927
1412.46,0.176962,618872,411755
1415.72,0.182744,619795,406915
1418.98,0.187795,620495,402664
1422.23,0.192711,621087,398512
1426.56,0.197308,621375,394499
1429.8,0.201535,621616,390829
1433.04,0.204801,622129,388221
1436.27,0.207144,621526,385758
1439.5,0.209641,621113,383292
1442.72,0.213056,620921,380172
1445.94,0.215457,620270,377680
1450.23,0.219600,618860,373244
1453.44,0.222143,617697,370367
1456.64,0.225056,616264,367038
1459.85,0.227549,614413,363841
1463.04,0.230224,612307,360367
1466.24,0.232867,610032,356850
1469.43,0.235801,607345,352886
1473.67,0.239837,603789,347575
1476.85,0.244593,601175,342301
1480.02,0.248992,597737,336913
1483.19,0.254870,594479,330572
1486.36,0.260416,591232,324595
1489.52,0.264699,587853,319573
1492.68,0.268338,583875,314762
1496.89,0.271211,578062,309573
1500.03,0.272266,574159,306737
1503.18,0.272402,570285,304572
1506.32,0.271926,565444,302318
1509.45,0.271142,560571,300254
1512.58,0.269671,555821,298720
1515.71,0.267647,550344,297158
1519.87,0.264213,543983,296055
1522.99,0.261678,538764,294931
1526.1,0.259149,533692,293861
1529.21,0.255834,527902,292900
1532.32,0.252593,521886,291731
1535.42,0.249674,515888,290323
1538.51,0.245750,509987,289607
1541.6,0.243090,503936,287929
1545.72,0.237880,494694,286060
1548.8,0.235493,488378,283964
1551.88,0.231235,481832,282918
1554.95,0.228881,474989,280416
1558.02,0.226881,467818,277457
1561.08,0.226478,460730,273507
1564.15,0.224945,454170,270566
1568.22,0.224563,444181,264848
1571.27,0.223477,436947,261187
1574.32,0.222005,429598,257666
1577.36,0.221085,422039,253669
1580.4,0.218803,414375,250375
1583.43,0.216749,406354,246692
1586.46,0.214143,398475,243365
1590.49,0.211799,388982,238853
1593.51,0.210283,380708,234590
1596.53,0.206609,372727,231623
1599.54,0.204881,365060,227763
1602.55,0.203131,357543,223974
1605.55,0.200359,349495,220334
1608.55,0.196947,341154,216772
1612.54,0.196070,330877,210667
1615.53,0.192472,322904,207301
1618.51,0.191066,315116,202957
1621.49,0.188917,307217,198851
1624.47,0.187240,299481,194594
1627.44,0.187114,292112,189861
1630.41,0.184418,284245,185898
1634.36,0.183091,274079,179798
1637.32,0.182461,266916,175353
1640.27,0.180968,259612,171142
1643.22,0.179416,251804,166589
1646.16,0.178939,244348,161834
1649.1,0.178033,236703,157098
1652.04,0.176528,228171,151961
1655.95,0.175086,215408,143938
1658.88,0.174396,204937,137159
1661.8,0.173161,193395,129803
1664.72,0.169464,179728,121661
1667.63,0.165725,163642,111730
1670.54,0.161264,146312,100929
1673.44,0.154056,128451,90091
1677.31,0.150765,105080,74260
1680.21,0.150557,88906,62860
1683.1,0.152775,75033,52781
1685.99,0.158866,63520,44060
1688.87,0.167866,53714,36494
1691.75,0.166835,45653,31091
1694.62,0.168343,39137,26561
1697.49,0.175038,33776,22572
1701.31,0.185353,28175,18387

File: Column 1_050531_20150331_115053.csv
Method:,Column 1,,
Host Date-Time:,31/3/15 @ 11:50:53,,
Header Version:,1,,
System Temp (C):,30.14,,
Detector Temp (C):,31.9,,
Humidity (%):,4.96,,
Lamp PD:,3832,,
Shift Vector Coefficients:,-10.5391,0.0761263,-0.000134223,,
Pixel to Wavelength Coefficients:,1775.68,-0.916766,-0.000235065,,
Serial Number:,5510004,,
Scan Config Name:,Column 1,,
Scan Config Type:,Slew,,
Section 1,,
Start wavelength (nm):,900,,
End wavelength (nm):,1700,,
Pattern Pixel Width (nm):,   7.03,,,,
Exposure (ms):,  0.635,,,,
Digital Resolution:,228,,
Num Repeats:,6,,
PGA Gain:,64,,
Total Measurement Time in sec:,  2.685,,
Wavelength (nm),Absorbance (AU),Reference Signal (unitless),Sample Signal (unitless)
901.51,0.045778,108485,97632
905.376,0.050567,121306,107973
909.237,0.052765,131909,116818
913.095,0.052429,143299,127003
916.948,0.052404,156982,139138
922.079,0.052681,179937,159382
925.923,0.053179,200504,177396
929.762,0.053699,222660,196763
933.597,0.054205,244426,215746
937.427,0.054252,263972,232973
941.254,0.054803,281845,248432
945.076,0.054778,297271,262044
950.165,0.053941,315605,278742
953.978,0.054247,328029,289511
957.786,0.054704,340470,300175
961.59,0.055915,352317,309755
965.389,0.056175,363056,319006
969.185,0.056312,373162,327782
972.976,0.056954,382632,335604
976.763,0.057034,391202,343058
981.806,0.057834,400190,350294
985.583,0.058884,406088,354598
989.355,0.059952,410162,357276
993.124,0.060045,412868,359556
996.888,0.060141,414263,360691
1000.65,0.061786,415476,360379
1004.4,0.062134,415479,360093
1009.41,0.064044,414358,357546
1013.15,0.064446,412923,355978
1016.89,0.064651,411526,354606
1020.63,0.064608,409066,352521
1024.36,0.064480,406777,350652
1028.09,0.063878,404427,349110
1031.82,0.063366,401911,347347
1036.78,0.063229,398410,344430
1040.49,0.062517,396204,343085
1044.2,0.062236,394236,341602
1047.91,0.060995,392042,340673
1051.61,0.060663,389823,339004
1055.31,0.060463,388234,337777
1059,0.059160,387599,338238
1063.92,0.057975,386688,338365
1067.61,0.057105,386598,338965
1071.29,0.057261,387377,339526
1074.96,0.056438,388536,341188
1078.63,0.055491,389855,343093
1082.3,0.054160,391215,345347
1085.96,0.053873,393215,347342
1090.84,0.052663,396270,351017
1094.49,0.052116,398760,353668
1098.14,0.052155,400987,355611
1101.79,0.052181,403477,357798
1105.43,0.051639,406116,360588
1109.06,0.051103,407701,362442
1112.7,0.051376,409859,364132
1117.53,0.051130,412494,366680
1121.15,0.052503,414909,367663
1124.77,0.052504,416559,369124
1128.38,0.053716,418532,369839
1131.99,0.055596,419956,369494
1135.6,0.058246,421946,368987
1139.2,0.060040,423881,369151
1143.99,0.063392,426786,368823
1147.58,0.064426,428617,369525
1151.17,0.065206,431169,371058
1154.75,0.066765,433579,371795
1158.33,0.069310,436264,371911
1161.91,0.072054,439132,371998
1165.48,0.074524,442389,372632
1169.04,0.077417,446101,373264
1173.79,0.082171,451929,374024
1177.34,0.084372,456026,375507
1180.9,0.087214,461306,377377
1184.44,0.088914,467657,381078
1187.99,0.089874,473969,385368
1191.52,0.089439,479856,390546
1195.06,0.088938,487372,397121
1199.76,0.087480,497347,406611
1203.29,0.085996,504311,413716
1206.81,0.085210,511507,420380
1210.33,0.084092,519078,427701
1213.84,0.082558,527163,435900
1217.35,0.081619,534208,442682
1220.85,0.080571,540472,448954
1225.51,0.079414,549929,458029
1229.01,0.078456,556888,464849
1232.5,0.077512,562180,470287
1235.98,0.076653,567975,476076
1239.46,0.075541,574815,483045
1242.94,0.074276,582782,491168
1246.41,0.073733,591476,499119
1251.03,0.073118,604016,510423
1254.5,0.073180,612289,517340
1257.96,0.073461,619125,522778
1261.41,0.074080,624551,526609
1264.86,0.074695,629900,530367
1268.31,0.075367,634345,533284
1271.75,0.076165,638574,535854
1276.33,0.076534,642499,538689
1279.76,0.076277,645905,541866
1283.19,0.075931,648307,544314
1286.61,0.075871,650446,546185
1290.03,0.075097,652132,548578
1293.44,0.074439,653907,550905
1296.85,0.074458,655963,552613
1301.39,0.074184,657349,554130
1304.8,0.074353,657558,554091
1308.19,0.074269,658515,555005
1311.58,0.074565,658804,554870
1314.97,0.075271,659011,554143
1318.36,0.075767,658272,552890
1321.73,0.076561,658022,551670
1326.23,0.077846,657870,549913
1329.6,0.078693,656482,547684
1332.97,0.079794,654926,545002
1336.33,0.081335,653727,542077
1339.69,0.083550,652497,538305
1343.04,0.085594,649913,533656
1346.39,0.087749,647671,529182
1349.73,0.090308,645338,524179
1354.18,0.093809,641175,516616
1357.52,0.096334,638376,511379
1360.85,0.098698,635805,506554
1364.17,0.101089,633413,501878
1367.49,0.103920,631026,496738
1370.81,0.106791,628050,491138
1374.12,0.109486,625034,485755
1378.54,0.112804,620272,478386
1381.84,0.117529,616892,470631
1385.14,0.122493,613613,462809
1388.43,0.127878,611526,455551
1391.72,0.134231,610663,448302
1395.01,0.139873,610634,442495
1398.29,0.146844,611700,436209
1402.66,0.156306,614051,428448
1405.93,0.163549,616268,422883
1409.2,0.170790,617795,416922
1412.46,0.177003,618872,411716
1415.72,0.183021,619795,406656
1418.98,0.187906,620495,402562
1422.23,0.192684,621087,398537
1426.56,0.197545,621375,394284
1429.8,0.201443,621616,390912
1433.04,0.204369,622129,388608
1436.27,0.207405,621526,385527
1439.5,0.209602,621113,383326
1442.72,0.212460,620921,380694
1445.94,0.214761,620270,378286
1450.23,0.218863,618860,373878
1453.44,0.221969,617697,370516
1456.64,0.224561,616264,367456
1459.85,0.227318,614413,364034
1463.04,0.229335,612307,361106
1466.24,0.232163,610032,357429
1469.43,0.235125,607345,353436
1473.67,0.240247,603789,347247
1476.85,0.243744,601175,342971
1480.02,0.249538,597737,336490
1483.19,0.254645,594479,330744
1486.36,0.260611,591232,324449
1489.52,0.265067,587853,319302
1492.68,0.268187,583875,314871
1496.89,0.271701,578062,309224
1500.03,0.272157,574159,306814
1503.18,0.272185,570285,304724
1506.32,0.271887,565444,302345
1509.45,0.270770,560571,300511
1512.58,0.269339,555821,298948
1515.71,0.267188,550344,297472
1519.87,0.264088,543983,296140
1522.99,0.261310,538764,295181
1526.1,0.258751,533692,294130
1529.21,0.255792,527902,292928
1532.32,0.253511,521886,291115
1535.42,0.248828,515888,290889
1538.51,0.245435,509987,289817
1541.6,0.243356,503936,287753
1545.72,0.237706,494694,286174
1548.8,0.235132,488378,284200
1551.88,0.232214,481832,282281
1554.95,0.229764,474989,279846
1558.02,0.228228,467818,276598
1561.08,0.225661,460730,274022
1564.15,0.225059,454170,270495
1568.22,0.224580,444181,264838
1571.27,0.223273,436947,261310
1574.32,0.221771,429598,257805
1577.36,0.220625,422039,253938
1580.4,0.218348,414375,250637
1583.43,0.216771,406354,246680
1586.46,0.214945,398475,242916
1590.49,0.212099,388982,238688
1593.51,0.209624,380708,234946
1596.53,0.205978,372727,231960
1599.54,0.205095,365060,227651
1602.55,0.202573,357543,224262
1605.55,0.200622,349495,220201
1608.55,0.197960,341154,216267
1612.54,0.195078,330877,211149
1615.53,0.193019,322904,207040
1618.51,0.191263,315116,202865
1621.49,0.190241,307217,198246
1624.47,0.187590,299481,194437
1627.44,0.185714,292112,190474
1630.41,0.184413,284245,185900
1634.36,0.182374,274079,180095
1637.32,0.182006,266916,175537
1640.27,0.180773,259612,171219
1643.22,0.180612,251804,166131
1646.16,0.177516,244348,162365
1649.1,0.178033,236703,157098
1652.04,0.176937,228171,151818
1655.95,0.175829,215408,143692
1658.88,0.174811,204937,137028
1661.8,0.172545,193395,129987
1664.72,0.171343,179728,121136
1667.63,0.165997,163642,111660
1670.54,0.159349,146312,101375
1673.44,0.156037,128451,89681
1677.31,0.153081,105080,73865
1680.21,0.152745,88906,62544
1683.1,0.156759,75033,52299
1685.99,0.160446,63520,43900
1688.87,0.165481,53714,36695
1691.75,0.166737,45653,31098
1694.62,0.168818,39137,26532
1697.49,0.176348,33776,22504
1701.31,0.182434,28175,18511