Folder: textile_sorting_NIRSCAN_/samples/wool/wool-000811 (part 102)

File: Column 1_050587_20150331_121733.csv
Method:,Column 1,,
Host Date-Time:,31/3/15 @ 12:17:33,,
Header Version:,1,,
System Temp (C):,33.79,,
Detector Temp (C):,34.54,,
Humidity (%):,1.86,,
Lamp PD:,3819,,
Shift Vector Coefficients:,-10.5391,0.0761263,-0.000134223,,
Pixel to Wavelength Coefficients:,1775.68,-0.916766,-0.000235065,,
Serial Number:,5510004,,
Scan Config Name:,Column 1,,
Scan Config Type:,Slew,,
Section 1,,
Start wavelength (nm):,900,,
End wavelength (nm):,1700,,
Pattern Pixel Width (nm):,   7.03,,,,
Exposure (ms):,  0.635,,,,
Digital Resolution:,228,,
Num Repeats:,6,,
PGA Gain:,64,,
Total Measurement Time in sec:,  2.674,,
Wavelength (nm),Absorbance (AU),Reference Signal (unitless),Sample Signal (unitless)
901.51,0.071030,108485,92117
905.376,0.078063,121306,101349
909.237,0.076865,131909,110512
913.095,0.080065,143299,119173
916.948,0.081696,156982,130063
922.079,0.081835,179937,149034
925.923,0.083063,200504,165600
929.762,0.082938,222660,183952
933.597,0.083504,244426,201671
937.427,0.082508,263972,218298
941.254,0.082446,281845,233112
945.076,0.081124,297271,246620
950.165,0.079257,315605,262958
953.978,0.079424,328029,273205
957.786,0.079546,340470,283487
961.59,0.079215,352317,293575
965.389,0.079741,363056,302157
969.185,0.079737,373162,310571
972.976,0.080569,382632,317843
976.763,0.081042,391202,324608
981.806,0.081269,400190,331892
985.583,0.081711,406088,336441
989.355,0.082397,410162,339280
993.124,0.083053,412868,341003
996.888,0.082850,414263,342315
1000.65,0.083680,415476,342662
1004.4,0.084651,415479,341899
1009.41,0.086706,414358,339367
1013.15,0.086835,412923,338091
1016.89,0.087121,411526,336726
1020.63,0.087110,409066,334721
1024.36,0.086851,406777,333047
1028.09,0.086788,404427,331171
1031.82,0.086831,401911,329078
1036.78,0.086218,398410,326672
1040.49,0.086359,396204,324758
1044.2,0.086014,394236,323402
1047.91,0.085405,392042,322053
1051.61,0.085300,389823,320308
1055.31,0.084752,388234,319405
1059,0.084494,387599,319072
1063.92,0.084190,386688,318545
1067.61,0.082666,386598,319590
1071.29,0.082607,387377,320278
1074.96,0.081995,388536,321689
1078.63,0.081469,389855,323172
1082.3,0.080798,391215,324801
1085.96,0.079973,393215,327082
1090.84,0.079297,396270,330137
1094.49,0.079260,398760,332240
1098.14,0.078012,400987,335057
1101.79,0.077378,403477,337630
1105.43,0.077381,406116,339836
1109.06,0.076636,407701,341748
1112.7,0.076728,409859,343484
1117.53,0.075984,412494,346285
1121.15,0.076778,414909,347676
1124.77,0.076576,416559,349221
1128.38,0.077829,418532,349864
1131.99,0.078650,419956,350392
1135.6,0.080147,421946,350841
1139.2,0.081325,423881,351495
1143.99,0.083714,426786,351962
1147.58,0.084079,428617,353175
1151.17,0.085390,431169,354207
1154.75,0.086763,433579,355063
1158.33,0.088318,436264,355985
1161.91,0.089719,439132,357171
1165.48,0.092061,442389,357885
1169.04,0.093669,446101,359554
1173.79,0.097686,451929,360898
1177.34,0.099561,456026,362601
1180.9,0.101548,461306,365125
1184.44,0.103241,467657,368711
1187.99,0.103890,473969,373130
1191.52,0.104039,479856,377635
1195.06,0.103771,487372,383786
1199.76,0.103655,497347,391746
1203.29,0.103171,504311,397674
1206.81,0.102296,511507,404162
1210.33,0.101143,519078,411235
1213.84,0.101282,527163,417506
1217.35,0.100258,534208,424084
1220.85,0.099469,540472,429837
1225.51,0.098920,549929,437912
1229.01,0.098067,556888,444325
1232.5,0.097680,562180,448947
1235.98,0.097093,567975,454189
1239.46,0.096061,574815,460752
1242.94,0.095278,582782,467981
1246.41,0.094883,591476,475394
1251.03,0.094709,604016,485668
1254.5,0.094261,612289,492828
1257.96,0.095425,619125,496997
1261.41,0.095897,624551,500808
1264.86,0.096552,629900,504335
1268.31,0.096607,634345,507830
1271.75,0.097194,638574,510525
1276.33,0.097232,642499,513618
1279.76,0.097317,645905,516240
1283.19,0.097228,648307,518266
1286.61,0.097124,650446,520101
1290.03,0.096051,652132,522739
1293.44,0.095822,653907,524438
1296.85,0.096037,655963,525826
1301.39,0.095795,657349,527231
1304.8,0.095540,657558,527709
1308.19,0.095856,658515,528092
1311.58,0.095836,658804,528348
1314.97,0.096506,659011,527699
1318.36,0.096968,658272,526547
1321.73,0.096968,658022,526347
1326.23,0.098363,657870,524538
1329.6,0.099122,656482,522518
1332.97,0.099705,654926,520580
1336.33,0.101143,653727,517909
1339.69,0.102430,652497,515405
1343.04,0.104186,649913,511292
1346.39,0.106397,647671,506941
1349.73,0.108155,645338,503075
1354.18,0.110945,641175,496628
1357.52,0.113288,638376,491800
1360.85,0.114955,635805,487943
1364.17,0.117138,633413,483670
1367.49,0.119703,631026,479010
1370.81,0.121148,628050,475167
1374.12,0.123846,625034,469957
1378.54,0.126973,620272,463030
1381.84,0.129985,616892,457324
1385.14,0.133419,613613,451311
1388.43,0.137280,611526,445795
1391.72,0.142086,610663,440266
1395.01,0.145989,610634,436307
1398.29,0.151449,611700,431608
1402.66,0.159191,614051,425612
1405.93,0.164010,616268,422435
1409.2,0.169386,617795,418272
1412.46,0.174006,618872,414567
1415.72,0.178807,619795,410621
1418.98,0.181955,620495,408116
1422.23,0.185917,621087,404795
1426.56,0.190065,621375,401133
1429.8,0.192912,621616,398667
1433.04,0.195510,622129,396616
1436.27,0.197273,621526,394627
1439.5,0.199464,621113,392380
1442.72,0.202268,620921,389734
1445.94,0.204795,620270,387067
1450.23,0.208060,618860,383294
1453.44,0.210209,617697,380686
1456.64,0.212784,616264,377557
1459.85,0.216149,614413,373518
1463.04,0.218224,612307,370463
1466.24,0.221238,610032,366534
1469.43,0.224746,607345,361984
1473.67,0.230039,603789,355505
1476.85,0.234915,601175,350014
1480.02,0.241053,597737,343129
1483.19,0.246480,594479,337021
1486.36,0.252123,591232,330853
1489.52,0.256038,587853,326010
1492.68,0.259416,583875,321295
1496.89,0.260960,578062,316967
1500.03,0.261872,574159,314167
1503.18,0.261861,570285,312055
1506.32,0.261162,565444,309904
1509.45,0.259966,560571,308081
1512.58,0.257668,555821,307091
1515.71,0.255678,550344,305461
1519.87,0.252418,543983,304206
1522.99,0.250700,538764,302481
1526.1,0.247867,533692,301595
1529.21,0.245545,527902,299922
1532.32,0.242067,521886,298888
1535.42,0.239912,515888,296923
1538.51,0.237113,509987,295424
1541.6,0.233743,503936,294193
1545.72,0.230351,494694,291062
1548.8,0.226836,488378,289681
1551.88,0.224270,481832,287492
1554.95,0.222380,474989,284645
1558.02,0.221247,467818,281080
1561.08,0.219489,460730,277944
1564.15,0.219216,454170,274159
1568.22,0.219137,444181,268178
1571.27,0.218115,436947,264432
1574.32,0.216320,429598,261061
1577.36,0.215717,422039,256824
1580.4,0.213937,414375,253196
1583.43,0.212972,406354,248847
1586.46,0.211709,398475,244733
1590.49,0.208488,388982,240681
1593.51,0.207145,380708,236291
1596.53,0.204524,372727,232738
1599.54,0.203463,365060,228508
1602.55,0.200829,357543,225164
1605.55,0.199475,349495,220783
1608.55,0.197850,341154,216322
1612.54,0.195732,330877,210831
1615.53,0.193695,322904,206718
1618.51,0.193188,315116,201968
1621.49,0.191432,307217,197703
1624.47,0.190030,299481,193348
1627.44,0.189391,292112,188868
1630.41,0.188231,284245,184273
1634.36,0.187495,274079,177984
1637.32,0.187543,266916,173313
1640.27,0.185365,259612,169418
1643.22,0.184277,251804,164735
1646.16,0.183962,244348,159973
1649.1,0.183027,236703,155302
1652.04,0.182328,228171,149945
1655.95,0.178780,215408,142719
1658.88,0.174510,204937,137123
1661.8,0.169466,193395,130912
1664.72,0.162868,179728,123523
1667.63,0.150715,163642,115659
1670.54,0.135227,146312,107165
1673.44,0.121894,128451,97016
1677.31,0.100370,105080,83397
1680.21,0.092722,88906,71814
1683.1,0.085947,75033,61561
1685.99,0.088723,63520,51783
1688.87,0.095419,53714,43119
1691.75,0.094366,45653,36737
1694.62,0.103825,39137,30815
1697.49,0.104151,33776,26574
1701.31,0.123057,28175,21223

File: Column 1_050587_20150331_121739.csv
Method:,Column 1,,
Host Date-Time:,31/3/15 @ 12:17:39,,
Header Version:,1,,
System Temp (C):,33.82,,
Detector Temp (C):,34.57,,
Humidity (%):,1.86,,
Lamp PD:,3819,,
Shift Vector Coefficients:,-10.5391,0.0761263,-0.000134223,,
Pixel to Wavelength Coefficients:,1775.68,-0.916766,-0.000235065,,
Serial Number:,5510004,,
Scan Config Name:,Column 1,,
Scan Config Type:,Slew,,
Section 1,,
Start wavelength (nm):,900,,
End wavelength (nm):,1700,,
Pattern Pixel Width (nm):,   7.03,,,,
Exposure (ms):,  0.635,,,,
Digital Resolution:,228,,
Num Repeats:,6,,
PGA Gain:,64,,
Total Measurement Time in sec:,  2.737,,
Wavelength (nm),Absorbance (AU),Reference Signal (unitless),Sample Signal (unitless)
901.51,0.070987,108485,92126
905.376,0.075725,121306,101896
909.237,0.078546,131909,110085
913.095,0.078759,143299,119532
916.948,0.080556,156982,130405
922.079,0.082022,179937,148970
925.923,0.082966,200504,165637
929.762,0.083186,222660,183847
933.597,0.084746,244426,201095
937.427,0.081894,263972,218607
941.254,0.081837,281845,233439
945.076,0.080908,297271,246743
950.165,0.080566,315605,262167
953.978,0.079400,328029,273220
957.786,0.079861,340470,283281
961.59,0.080110,352317,292970
965.389,0.079301,363056,302463
969.185,0.079518,373162,310727
972.976,0.079797,382632,318408
976.763,0.080781,391202,324803
981.806,0.081273,400190,331889
985.583,0.081110,406088,336907
989.355,0.081848,410162,339709
993.124,0.082862,412868,341153
996.888,0.082882,414263,342290
1000.65,0.083420,415476,342867
1004.4,0.085336,415479,341360
1009.41,0.086014,414358,339908
1013.15,0.086457,412923,338386
1016.89,0.087128,411526,336720
1020.63,0.086567,409066,335140
1024.36,0.086907,406777,333004
1028.09,0.086872,404427,331107
1031.82,0.086896,401911,329029
1036.78,0.086065,398410,326787
1040.49,0.085966,396204,325052
1044.2,0.085744,394236,323603
1047.91,0.085872,392042,321707
1051.61,0.085320,389823,320293
1055.31,0.085145,388234,319116
1059,0.084687,387599,318930
1063.92,0.083868,386688,318781
1067.61,0.083717,386598,318818
1071.29,0.082738,387377,320181
1074.96,0.081972,388536,321706
1078.63,0.081459,389855,323180
1082.3,0.081241,391215,324470
1085.96,0.079506,393215,327434
1090.84,0.079280,396270,330150
1094.49,0.078785,398760,332603
1098.14,0.078139,400987,334959
1101.79,0.077719,403477,337365
1105.43,0.077408,406116,339815
1109.06,0.076209,407701,342084
1112.7,0.076545,409859,343629
1117.53,0.075582,412494,346606
1121.15,0.076448,414909,347940
1124.77,0.076636,416559,349173
1128.38,0.077431,418532,350185
1131.99,0.078412,419956,350584
1135.6,0.080310,421946,350709
1139.2,0.081447,423881,351396
1143.99,0.083203,426786,352377
1147.58,0.083925,428617,353301
1151.17,0.085463,431169,354148
1154.75,0.086394,433579,355365
1158.33,0.087724,436264,356472
1161.91,0.089297,439132,357518
1165.48,0.091839,442389,358068
1169.04,0.093975,446101,359301
1173.79,0.097278,451929,361237
1177.34,0.098835,456026,363207
1180.9,0.101356,461306,365286
1184.44,0.103016,467657,368902
1187.99,0.103529,473969,373440
1191.52,0.103558,479856,378053
1195.06,0.103897,487372,383675
1199.76,0.103007,497347,392331
1203.29,0.102029,504311,398721
1206.81,0.102137,511507,404310
1210.33,0.101585,519078,410816
1213.84,0.100327,527163,418425
1217.35,0.100378,534208,423967
1220.85,0.099353,540472,429952
1225.51,0.099020,549929,437811
1229.01,0.098489,556888,443894
1232.5,0.097925,562180,448694
1235.98,0.097101,567975,454180
1239.46,0.096080,574815,460732
1242.94,0.095181,582782,468085
1246.41,0.094857,591476,475423
1251.03,0.094775,604016,485594
1254.5,0.094750,612289,492274
1257.96,0.095259,619125,497186
1261.41,0.095395,624551,501387
1264.86,0.095762,629900,505254
1268.31,0.096711,634345,507709
1271.75,0.097283,638574,510421
1276.33,0.097198,642499,513659
1279.76,0.097171,645905,516413
1283.19,0.097020,648307,518514
1286.61,0.096250,650446,521148
1290.03,0.096120,652132,522656
1293.44,0.095692,653907,524595
1296.85,0.095389,655963,526612
1301.39,0.095306,657349,527825
1304.8,0.094789,657558,528622
1308.19,0.095754,658515,528216
1311.58,0.095559,658804,528685
1314.97,0.096114,659011,528176
1318.36,0.096601,658272,526993
1321.73,0.097312,658022,525930
1326.23,0.098068,657870,524895
1329.6,0.098706,656482,523018
1332.97,0.100046,654926,520171
1336.33,0.100350,653727,518856
1339.69,0.102552,652497,515260
1343.04,0.104268,649913,511196
1346.39,0.106526,647671,506791
1349.73,0.108043,645338,503204
1354.18,0.111182,641175,496357
1357.52,0.113134,638376,491974
1360.85,0.114984,635805,487910
1364.17,0.117096,633413,483717
1367.49,0.119086,631026,479691
1370.81,0.121845,628050,474405
1374.12,0.123462,625034,470372
1378.54,0.126611,620272,463416
1381.84,0.130173,616892,457126
1385.14,0.133589,613613,451134
1388.43,0.137008,611526,446074
1391.72,0.141686,610663,440672
1395.01,0.146248,610634,436047
1398.29,0.151425,611700,431632
1402.66,0.158798,614051,425997
1405.93,0.164491,616268,421967
1409.2,0.169364,617795,418293
1412.46,0.173866,618872,414701
1415.72,0.178360,619795,411044
1418.98,0.182185,620495,407900
1422.23,0.186164,621087,404565
1426.56,0.189881,621375,401303
1429.8,0.192603,621616,398951
1433.04,0.194695,622129,397361
1436.27,0.197289,621526,394612
1439.5,0.199636,621113,392224
1442.72,0.201335,620921,390572
1445.94,0.204005,620270,387771
1450.23,0.207354,618860,383918
1453.44,0.210453,617697,380472
1456.64,0.212687,616264,377642
1459.85,0.215456,614413,374114
1463.04,0.217238,612307,371305
1466.24,0.220690,610032,366997
1469.43,0.224643,607345,362070
1473.67,0.230196,603789,355377
1476.85,0.234935,601175,349998
1480.02,0.240624,597737,343468
1483.19,0.246191,594479,337245
1486.36,0.251288,591232,331490
1489.52,0.255927,587853,326093
1492.68,0.259116,583875,321517
1496.89,0.260801,578062,317083
1500.03,0.261534,574159,314411
1503.18,0.261329,570285,312437
1506.32,0.261022,565444,310004
1509.45,0.259537,560571,308385
1512.58,0.258240,555821,306687
1515.71,0.255407,550344,305652
1519.87,0.253276,543983,303605
1522.99,0.249757,538764,303139
1526.1,0.248358,533692,301254
1529.21,0.244998,527902,300300
1532.32,0.241947,521886,298971
1535.42,0.238823,515888,297668
1538.51,0.236137,509987,296089
1541.6,0.233635,503936,294266
1545.72,0.229960,494694,291324
1548.8,0.226379,488378,289986
1551.88,0.224708,481832,287202
1554.95,0.222067,474989,284850
1558.02,0.221460,467818,280942
1561.08,0.220079,460730,277567
1564.15,0.219267,454170,274127
1568.22,0.217177,444181,269391
1571.27,0.217529,436947,264789
1574.32,0.215999,429598,261254
1577.36,0.215382,422039,257022
1580.4,0.213918,414375,253207
1583.43,0.211843,406354,249495
1586.46,0.210569,398475,245376
1590.49,0.208232,388982,240823
1593.51,0.206772,380708,236494
1596.53,0.204199,372727,232912
1599.54,0.202982,365060,228761
1602.55,0.201466,357543,224834
1605.55,0.199552,349495,220744
1608.55,0.197563,341154,216465
1612.54,0.195386,330877,210999
1615.53,0.193332,322904,206891
1618.51,0.192429,315116,202321
1621.49,0.191153,307217,197830
1624.47,0.190841,299481,192987
1627.44,0.189230,292112,188938
1630.41,0.188799,284245,184032
1634.36,0.187105,274079,178144
1637.32,0.187406,266916,173368
1640.27,0.184346,259612,169816
1643.22,0.185433,251804,164297
1646.16,0.183669,244348,160081
1649.1,0.183416,236703,155163
1652.04,0.181591,228171,150200
1655.95,0.178960,215408,142660
1658.88,0.174105,204937,137251
1661.8,0.171501,193395,130300
1664.72,0.161509,179728,123910
1667.63,0.151226,163642,115523
1670.54,0.135876,146312,107005
1673.44,0.119831,128451,97478
1677.31,0.101794,105080,83124
1680.21,0.093297,88906,71719
1683.1,0.086292,75033,61512
1685.99,0.088614,63520,51796
1688.87,0.089616,53714,43699
1691.75,0.094247,45653,36747
1694.62,0.097251,39137,31285
1697.49,0.109661,33776,26239
1701.31,0.110870,28175,21827

File: Column 1_050588_20150331_121742.csv
Method:,Column 1,,
Host Date-Time:,31/3/15 @ 12:17:42,,
Header Version:,1,,
System Temp (C):,33.84,,
Detector Temp (C):,34.61,,
Humidity (%):,1.86,,
Lamp PD:,3819,,
Shift Vector Coefficients:,-10.5391,0.0761263,-0.000134223,,
Pixel to Wavelength Coefficients:,1775.68,-0.916766,-0.000235065,,
Serial Number:,5510004,,
Scan Config Name:,Column 1,,
Scan Config Type:,Slew,,
Section 1,,
Start wavelength (nm):,900,,
End wavelength (nm):,1700,,
Pattern Pixel Width (nm):,   7.03,,,,
Exposure (ms):,  0.635,,,,
Digital Resolution:,228,,
Num Repeats:,6,,
PGA Gain:,64,,
Total Measurement Time in sec:,  2.721,,
Wavelength (nm),Absorbance (AU),Reference Signal (unitless),Sample Signal (unitless)
901.51,0.068909,108485,92568
905.376,0.075044,121306,102056
909.237,0.076782,131909,110533
913.095,0.078570,143299,119584
916.948,0.079887,156982,130606
922.079,0.080561,179937,149472
925.923,0.081455,200504,166214
929.762,0.082916,222660,183961
933.597,0.082553,244426,202113
937.427,0.081554,263972,218778
941.254,0.080980,281845,233900
945.076,0.080642,297271,246894
950.165,0.078879,315605,263187
953.978,0.078720,328029,273648
957.786,0.078351,340470,284268
961.59,0.078738,352317,293897
965.389,0.079000,363056,302673
969.185,0.079205,373162,310951
972.976,0.079115,382632,318909
976.763,0.079735,391202,325586
981.806,0.080652,400190,332364
985.583,0.081206,406088,336833
989.355,0.082002,410162,339589
993.124,0.082394,412868,341521
996.888,0.082340,414263,342717
1000.65,0.083556,415476,342760
1004.4,0.083916,415479,342478
1009.41,0.085662,414358,340184
1013.15,0.085748,412923,338939
1016.89,0.086418,411526,337271
1020.63,0.086440,409066,335238
1024.36,0.086446,406777,333358
1028.09,0.085325,404427,332288
1031.82,0.085837,401911,329832
1036.78,0.085713,398410,327052
1040.49,0.085428,396204,325455
1044.2,0.085761,394236,323590
1047.91,0.084847,392042,322467
1051.61,0.085076,389823,320473
1055.31,0.084451,388234,319626
1059,0.083848,387599,319547
1063.92,0.083759,386688,318861
1067.61,0.082616,386598,319627
1071.29,0.082643,387377,320251
1074.96,0.082133,388536,321587
1078.63,0.080911,389855,323588
1082.3,0.080448,391215,325063
1085.96,0.079196,393215,327668
1090.84,0.078613,396270,330657
1094.49,0.077627,398760,333491
1098.14,0.077386,400987,335540
1101.79,0.077247,403477,337732
1105.43,0.076932,406116,340187
1109.06,0.076157,407701,342125
1112.7,0.075468,409859,344482
1117.53,0.075919,412494,346337
1121.15,0.075745,414909,348504
1124.77,0.076207,416559,349518
1128.38,0.076911,418532,350605
1131.99,0.078164,419956,350784
1135.6,0.080170,421946,350822
1139.2,0.081131,423881,351652
1143.99,0.082900,426786,352623
1147.58,0.084451,428617,352873
1151.17,0.084360,431169,355048
1154.75,0.086321,433579,355424
1158.33,0.087581,436264,356589
1161.91,0.088428,439132,358234
1165.48,0.090939,442389,358811
1169.04,0.092979,446101,360126
1173.79,0.096795,451929,361639
1177.34,0.098703,456026,363318
1180.9,0.100792,461306,365761
1184.44,0.103107,467657,368825
1187.99,0.103443,473969,373514
1191.52,0.103393,479856,378197
1195.06,0.103609,487372,383930
1199.76,0.103073,497347,392271
1203.29,0.101943,504311,398800
1206.81,0.102223,511507,404230
1210.33,0.100485,519078,411858
1213.84,0.100060,527163,418683
1217.35,0.099826,534208,424507
1220.85,0.098938,540472,430363
1225.51,0.098670,549929,438164
1229.01,0.097330,556888,445080
1232.5,0.097345,562180,449294
1235.98,0.096812,567975,454483
1239.46,0.098095,574815,458599
1242.94,0.094858,582782,468434
1246.41,0.094140,591476,476209
1251.03,0.094328,604016,486094
1254.5,0.094350,612289,492727
1257.96,0.094604,619125,497937
1261.41,0.095254,624551,501550
1264.86,0.095673,629900,505357
1268.31,0.096301,634345,508188
1271.75,0.097042,638574,510704
1276.33,0.097487,642499,513317
1279.76,0.096948,645905,516679
1283.19,0.096474,648307,519166
1286.61,0.095838,650446,521643
1290.03,0.095640,652132,523233
1293.44,0.095111,653907,525297
1296.85,0.095383,655963,526619
1301.39,0.094941,657349,528269
1304.8,0.094864,657558,528530
1308.19,0.095214,658515,528873
1311.58,0.095015,658804,529348
1314.97,0.095879,659011,528462
1318.36,0.096200,658272,527479
1321.73,0.096615,658022,526775
1326.23,0.097586,657870,525478
1329.6,0.098835,656482,522863
1332.97,0.099617,654926,520685
1336.33,0.100845,653727,518265
1339.69,0.102151,652497,515736
1343.04,0.103794,649913,511754
1346.39,0.105736,647671,507713
1349.73,0.107708,645338,503592
1354.18,0.110758,641175,496842
1357.52,0.112408,638376,492798
1360.85,0.114646,635805,488290
1364.17,0.116688,633413,484171
1367.49,0.118425,631026,480421
1370.81,0.121171,628050,475142
1374.12,0.123838,625034,469965
1378.54,0.126133,620272,463927
1381.84,0.129538,616892,457795
1385.14,0.132725,613613,452032
1388.43,0.136643,611526,446449
1391.72,0.141397,610663,440966
1395.01,0.146042,610634,436254
1398.29,0.151221,611700,431835
1402.66,0.158046,614051,426735
1405.93,0.163357,616268,423070
1409.2,0.168143,617795,419470
1412.46,0.173833,618872,414732
1415.72,0.177715,619795,411655
1418.98,0.181542,620495,408504
1422.23,0.185097,621087,405560
1426.56,0.189642,621375,401524
1429.8,0.192161,621616,399357
1433.04,0.194866,622129,397205
1436.27,0.196855,621526,395007
1439.5,0.198735,621113,393039
1442.72,0.201488,620921,390435
1445.94,0.203921,620270,387846
1450.23,0.206862,618860,384353
1453.44,0.209552,617697,381262
1456.64,0.212304,616264,377975
1459.85,0.215085,614413,374434
1463.04,0.217472,612307,371105
1466.24,0.220978,610032,366754
1469.43,0.224473,607345,362212
1473.67,0.229006,603789,356352
1476.85,0.234751,601175,350147
1480.02,0.240069,597737,343907
1483.19,0.245995,594479,337397
1486.36,0.251012,591232,331700
1489.52,0.255041,587853,326759
1492.68,0.258587,583875,321909
1496.89,0.260573,578062,317250
1500.03,0.261090,574159,314733
1503.18,0.261100,570285,312602
1506.32,0.260808,565444,310157
1509.45,0.258015,560571,309468
1512.58,0.257471,555821,307230
1515.71,0.255760,550344,305404
1519.87,0.252078,543983,304444
1522.99,0.249950,538764,303004
1526.1,0.247084,533692,302139
1529.21,0.244460,527902,300672
1532.32,0.241108,521886,299549
1535.42,0.238622,515888,297806
1538.51,0.235592,509987,296461
1541.6,0.233042,503936,294668
1545.72,0.228496,494694,292308
1548.8,0.225860,488378,290333
1551.88,0.223354,481832,288099
1554.95,0.221959,474989,284921
1558.02,0.219886,467818,281962
1561.08,0.218910,460730,278315
1564.15,0.217818,454170,275043
1568.22,0.217359,444181,269278
1571.27,0.216616,436947,265346
1574.32,0.215322,429598,261662
1577.36,0.215078,422039,257202
1580.4,0.213279,414375,253580
1583.43,0.211597,406354,249636
1586.46,0.209671,398475,245884
1590.49,0.207478,388982,241241
1593.51,0.206146,380708,236835
1596.53,0.203824,372727,233113
1599.54,0.202330,365060,229105
1602.55,0.200041,357543,225573
1605.55,0.198473,349495,221293
1608.55,0.196393,341154,217049
1612.54,0.194243,330877,211555
1615.53,0.191468,322904,207781
1618.51,0.191589,315116,202713
1621.49,0.190059,307217,198329
1624.47,0.189101,299481,193762
1627.44,0.188789,292112,189130
1630.41,0.187068,284245,184767
1634.36,0.186644,274079,178333
1637.32,0.185718,266916,174043
1640.27,0.184433,259612,169782
1643.22,0.183426,251804,165058
1646.16,0.183154,244348,160271
1649.1,0.182110,236703,155630
1652.04,0.181547,228171,150215
1655.95,0.177307,215408,143204
1658.88,0.174745,204937,137049
1661.8,0.168621,193395,131167
1664.72,0.161611,179728,123881
1667.63,0.148606,163642,116222
1670.54,0.134510,146312,107342
1673.44,0.117782,128451,97939
1677.31,0.099896,105080,83488
1680.21,0.088617,88906,72496
1683.1,0.084559,75033,61758
1685.99,0.086164,63520,52089
1688.87,0.086862,53714,43977
1691.75,0.091961,45653,36941
1694.62,0.094180,39137,31507
1697.49,0.092016,33776,27327
1701.31,0.103374,28175,22207