Folder: textile_sorting_NIRSCAN_/samples/wool/wool-000811 (part 42)

File: Column 1_050554_20150331_120139.csv
Method:,Column 1,,
Host Date-Time:,31/3/15 @ 12:1:39,,
Header Version:,1,,
System Temp (C):,33.43,,
Detector Temp (C):,32.43,,
Humidity (%):,2.44,,
Lamp PD:,3820,,
Shift Vector Coefficients:,-10.5391,0.0761263,-0.000134223,,
Pixel to Wavelength Coefficients:,1775.68,-0.916766,-0.000235065,,
Serial Number:,5510004,,
Scan Config Name:,Column 1,,
Scan Config Type:,Slew,,
Section 1,,
Start wavelength (nm):,900,,
End wavelength (nm):,1700,,
Pattern Pixel Width (nm):,   7.03,,,,
Exposure (ms):,  0.635,,,,
Digital Resolution:,228,,
Num Repeats:,6,,
PGA Gain:,64,,
Total Measurement Time in sec:,  2.720,,
Wavelength (nm),Absorbance (AU),Reference Signal (unitless),Sample Signal (unitless)
901.51,0.031384,108485,100922
905.376,0.037906,121306,111167
909.237,0.041166,131909,119980
913.095,0.040822,143299,130443
916.948,0.043039,156982,142171
922.079,0.043469,179937,162799
925.923,0.043850,200504,181248
929.762,0.045015,222660,200737
933.597,0.046325,244426,219696
937.427,0.046258,263972,237301
941.254,0.045293,281845,253932
945.076,0.045024,297271,267996
950.165,0.045508,315605,284208
953.978,0.044235,328029,296263
957.786,0.045691,340470,306470
961.59,0.045999,352317,316909
965.389,0.046512,363056,326183
969.185,0.046694,373162,335122
972.976,0.046582,382632,343716
976.763,0.047993,391202,350274
981.806,0.048374,400190,358008
985.583,0.049191,406088,362601
989.355,0.049133,410162,366288
993.124,0.049789,412868,368148
996.888,0.050169,414263,369069
1000.65,0.051240,415476,369238
1004.4,0.052497,415479,368173
1009.41,0.053270,414358,366527
1013.15,0.053998,412923,364646
1016.89,0.054895,411526,362662
1020.63,0.054279,409066,361006
1024.36,0.055104,406777,358305
1028.09,0.054212,404427,356967
1031.82,0.054167,401911,354783
1036.78,0.054362,398410,351535
1040.49,0.053205,396204,350521
1044.2,0.052982,394236,348959
1047.91,0.052327,392042,347541
1051.61,0.051922,389823,345896
1055.31,0.051632,388234,344716
1059,0.050856,387599,344768
1063.92,0.050049,386688,344597
1067.61,0.049735,386598,344766
1071.29,0.049058,387377,346000
1074.96,0.048835,388536,347213
1078.63,0.047453,389855,349502
1082.3,0.046619,391215,351396
1085.96,0.046334,393215,353424
1090.84,0.045999,396270,356445
1094.49,0.045129,398760,359404
1098.14,0.045485,400987,361115
1101.79,0.044208,403477,364427
1105.43,0.044196,406116,366821
1109.06,0.044133,407701,368306
1112.7,0.043953,409859,370409
1117.53,0.044262,412494,372525
1121.15,0.045005,414909,374066
1124.77,0.045269,416559,375325
1128.38,0.046913,418532,375678
1131.99,0.048002,419956,376012
1135.6,0.050567,421946,375569
1139.2,0.052083,423881,375977
1143.99,0.054516,426786,376439
1147.58,0.055661,428617,377058
1151.17,0.056778,431169,378329
1154.75,0.058027,433579,379351
1158.33,0.059666,436264,380262
1161.91,0.061826,439132,380863
1165.48,0.064498,442389,381335
1169.04,0.066750,446101,382546
1173.79,0.070981,451929,383786
1177.34,0.072839,456026,385612
1180.9,0.075485,461306,387707
1184.44,0.077168,467657,391525
1187.99,0.077413,473969,396586
1191.52,0.077382,479856,401540
1195.06,0.077581,487372,407643
1199.76,0.076468,497347,417053
1203.29,0.075157,504311,424171
1206.81,0.074837,511507,430541
1210.33,0.074354,519078,437400
1213.84,0.073388,527163,445202
1217.35,0.072171,534208,452418
1220.85,0.071633,540472,458290
1225.51,0.070771,549929,467235
1229.01,0.070235,556888,473732
1232.5,0.069625,562180,478906
1235.98,0.068802,567975,484761
1239.46,0.067748,574815,491791
1242.94,0.066670,582782,499846
1246.41,0.066039,591476,508040
1251.03,0.066430,604016,518344
1254.5,0.066065,612289,525886
1257.96,0.066878,619125,530763
1261.41,0.067229,624551,534982
1264.86,0.067615,629900,539084
1268.31,0.068446,634345,541850
1271.75,0.069210,638574,544504
1276.33,0.069752,642499,547168
1279.76,0.069567,645905,550303
1283.19,0.069067,648307,552985
1286.61,0.068762,650446,555200
1290.03,0.068006,652132,557609
1293.44,0.067799,653907,559393
1296.85,0.067524,655963,561507
1301.39,0.067837,657349,562288
1304.8,0.067805,657558,562508
1308.19,0.067796,658515,563339
1311.58,0.068093,658804,563201
1314.97,0.068888,659011,562348
1318.36,0.069254,658272,561244
1321.73,0.069218,658022,561077
1326.23,0.070678,657870,559065
1329.6,0.071561,656482,556752
1332.97,0.072419,654926,554336
1336.33,0.073845,653727,551508
1339.69,0.076046,652497,547687
1343.04,0.077501,649913,543694
1346.39,0.079811,647671,538944
1349.73,0.081845,645338,534493
1354.18,0.085450,641175,526655
1357.52,0.087592,638376,521777
1360.85,0.089636,635805,517235
1364.17,0.092066,633413,512414
1367.49,0.094473,631026,507662
1370.81,0.097056,628050,502271
1374.12,0.099549,625034,496998
1378.54,0.103240,620272,489038
1381.84,0.106790,616892,482413
1385.14,0.110657,613613,475595
1388.43,0.115904,611526,468286
1391.72,0.121176,610663,461983
1395.01,0.126237,610634,456608
1398.29,0.131862,611700,451519
1402.66,0.140029,614051,444811
1405.93,0.146558,616268,439756
1409.2,0.152157,617795,435199
1412.46,0.158147,618872,429986
1415.72,0.163164,619795,425681
1418.98,0.167213,620495,422207
1422.23,0.170747,621087,419185
1426.56,0.175750,621375,414576
1429.8,0.178607,621616,412017
1433.04,0.181423,622129,409692
1436.27,0.183844,621526,407020
1439.5,0.186425,621113,404339
1442.72,0.189026,620921,401800
1445.94,0.191453,620270,399142
1450.23,0.194428,618860,395516
1453.44,0.198029,617697,391513
1456.64,0.200776,616264,388142
1459.85,0.203611,614413,384458
1463.04,0.206154,612307,380904
1466.24,0.208915,610032,377084
1469.43,0.213022,607345,371889
1473.67,0.217495,603789,365923
1476.85,0.222832,601175,359889
1480.02,0.228400,597737,353273
1483.19,0.234695,594479,346291
1486.36,0.240499,591232,339828
1489.52,0.245568,587853,333965
1492.68,0.248408,583875,329543
1496.89,0.250218,578062,324905
1500.03,0.251163,574159,322010
1503.18,0.251117,570285,319871
1506.32,0.250744,565444,317428
1509.45,0.250145,560571,315127
1512.58,0.247446,555821,314405
1515.71,0.245766,550344,312513
1519.87,0.242765,543983,311043
1522.99,0.239765,538764,310194
1526.1,0.236732,533692,309427
1529.21,0.233984,527902,308013
1532.32,0.231188,521886,306470
1535.42,0.227639,515888,305433
1538.51,0.224697,509987,303992
1541.6,0.222377,503936,301994
1545.72,0.217144,494694,300049
1548.8,0.214852,488378,297786
1551.88,0.211355,481832,296170
1554.95,0.209038,474989,293525
1558.02,0.207701,467818,289985
1561.08,0.205745,460730,286881
1564.15,0.205249,454170,283119
1568.22,0.203790,444181,277824
1571.27,0.203508,436947,273477
1574.32,0.202354,429598,269593
1577.36,0.201406,422039,265428
1580.4,0.199031,414375,262037
1583.43,0.197785,406354,257703
1586.46,0.195408,398475,254093
1590.49,0.193725,388982,249003
1593.51,0.191486,380708,244966
1596.53,0.189268,372727,241059
1599.54,0.186986,365060,237344
1602.55,0.184560,357543,233759
1605.55,0.182660,349495,229499
1608.55,0.179708,341154,225550
1612.54,0.177574,330877,219833
1615.53,0.176197,322904,215217
1618.51,0.174363,315116,210915
1621.49,0.173416,307217,206077
1624.47,0.172530,299481,201298
1627.44,0.170850,292112,197106
1630.41,0.168753,284245,192726
1634.36,0.168734,274079,185841
1637.32,0.168288,266916,181170
1640.27,0.165369,259612,177401
1643.22,0.165373,251804,172064
1646.16,0.164658,244348,167244
1649.1,0.163727,236703,162359
1652.04,0.163214,228171,156692
1655.95,0.161012,215408,148679
1658.88,0.158501,204937,142272
1661.8,0.153466,193395,135825
1664.72,0.149358,179728,127426
1667.63,0.140363,163642,118449
1670.54,0.131382,146312,108118
1673.44,0.120299,128451,97373
1677.31,0.108194,105080,81908
1680.21,0.103982,88906,69976
1683.1,0.104091,75033,59042
1685.99,0.103940,63520,50000
1688.87,0.110358,53714,41661
1691.75,0.119215,45653,34694
1694.62,0.123989,39137,29417
1697.49,0.130113,33776,25032
1701.31,0.134208,28175,20685

File: Column 1_050554_20150331_120151.csv
Method:,Column 1,,
Host Date-Time:,31/3/15 @ 12:1:51,,
Header Version:,1,,
System Temp (C):,33.45,,
Detector Temp (C):,32.45,,
Humidity (%):,2.44,,
Lamp PD:,3820,,
Shift Vector Coefficients:,-10.5391,0.0761263,-0.000134223,,
Pixel to Wavelength Coefficients:,1775.68,-0.916766,-0.000235065,,
Serial Number:,5510004,,
Scan Config Name:,Column 1,,
Scan Config Type:,Slew,,
Section 1,,
Start wavelength (nm):,900,,
End wavelength (nm):,1700,,
Pattern Pixel Width (nm):,   7.03,,,,
Exposure (ms):,  0.635,,,,
Digital Resolution:,228,,
Num Repeats:,6,,
PGA Gain:,64,,
Total Measurement Time in sec:,  2.721,,
Wavelength (nm),Absorbance (AU),Reference Signal (unitless),Sample Signal (unitless)
901.51,0.033753,108485,100373
905.376,0.040127,121306,110600
909.237,0.041901,131909,119777
913.095,0.041969,143299,130099
916.948,0.043644,156982,141973
922.079,0.044465,179937,162426
925.923,0.045795,200504,180438
929.762,0.045840,222660,200356
933.597,0.046246,244426,219736
937.427,0.045300,263972,237825
941.254,0.046313,281845,253336
945.076,0.045572,297271,267658
950.165,0.045680,315605,284095
953.978,0.045389,328029,295477
957.786,0.044741,340470,307141
961.59,0.046336,352317,316663
965.389,0.046395,363056,326271
969.185,0.046461,373162,335302
972.976,0.047137,382632,343277
976.763,0.047677,391202,350529
981.806,0.048426,400190,357965
985.583,0.049336,406088,362480
989.355,0.049451,410162,366020
993.124,0.049535,412868,368363
996.888,0.050519,414263,368771
1000.65,0.051909,415476,368669
1004.4,0.052518,415479,368155
1009.41,0.054335,414358,365629
1013.15,0.054599,412923,364141
1016.89,0.054916,411526,362645
1020.63,0.054840,409066,360540
1024.36,0.054529,406777,358779
1028.09,0.054449,404427,356772
1031.82,0.053851,401911,355041
1036.78,0.053805,398410,351986
1040.49,0.053444,396204,350328
1044.2,0.053098,394236,348866
1047.91,0.052873,392042,347104
1051.61,0.052543,389823,345402
1055.31,0.051625,388234,344722
1059,0.051492,387599,344263
1063.92,0.050634,386688,344133
1067.61,0.049852,386598,344673
1071.29,0.049272,387377,345829
1074.96,0.048575,388536,347421
1078.63,0.048095,389855,348986
1082.3,0.047448,391215,350726
1085.96,0.046926,393215,352943
1090.84,0.045883,396270,356540
1094.49,0.045198,398760,359347
1098.14,0.045030,400987,361493
1101.79,0.045061,403477,363712
1105.43,0.044519,406116,366548
1109.06,0.044658,407701,367861
1112.7,0.043851,409859,370496
1117.53,0.044120,412494,372647
1121.15,0.045067,414909,374012
1124.77,0.045396,416559,375215
1128.38,0.046648,418532,375907
1131.99,0.048098,419956,375929
1135.6,0.050419,421946,375697
1139.2,0.051921,423881,376117
1143.99,0.054639,426786,376332
1147.58,0.055582,428617,377127
1151.17,0.056884,431169,378237
1154.75,0.057670,433579,379663
1158.33,0.059567,436264,380349
1161.91,0.062519,439132,380256
1165.48,0.064362,442389,381454
1169.04,0.067225,446101,382127
1173.79,0.070198,451929,384479
1177.34,0.073445,456026,385074
1180.9,0.075665,461306,387547
1184.44,0.077395,467657,391320
1187.99,0.078195,473969,395872
1191.52,0.077964,479856,401002
1195.06,0.078045,487372,407207
1199.76,0.076669,497347,416860
1203.29,0.075950,504311,423398
1206.81,0.075340,511507,430043
1210.33,0.074342,519078,437412
1213.84,0.073520,527163,445067
1217.35,0.072751,534208,451814
1220.85,0.071768,540472,458147
1225.51,0.070825,549929,467177
1229.01,0.070538,556888,473402
1232.5,0.070405,562180,478047
1235.98,0.069374,567975,484122
1239.46,0.067793,574815,491739
1242.94,0.067103,582782,499348
1246.41,0.066272,591476,507768
1251.03,0.066308,604016,518490
1254.5,0.066309,612289,525591
1257.96,0.066844,619125,530804
1261.41,0.067342,624551,534843
1264.86,0.067999,629900,538608
1268.31,0.068612,634345,541643
1271.75,0.069552,638574,544075
1276.33,0.069596,642499,547364
1279.76,0.069785,645905,550026
1283.19,0.069249,648307,552754
1286.61,0.069116,650446,554748
1290.03,0.068324,652132,557201
1293.44,0.067902,653907,559260
1296.85,0.067714,655963,561262
1301.39,0.067873,657349,562242
1304.8,0.067732,657558,562603
1308.19,0.067914,658515,563186
1311.58,0.067965,658804,563367
1314.97,0.068671,659011,562629
1318.36,0.069384,658272,561076
1321.73,0.069721,658022,560428
1326.23,0.070686,657870,559054
1329.6,0.071587,656482,556719
1332.97,0.072756,654926,553906
1336.33,0.073630,653727,551780
1339.69,0.075586,652497,548267
1343.04,0.077648,649913,543510
1346.39,0.079849,647671,538897
1349.73,0.082102,645338,534177
1354.18,0.085379,641175,526741
1357.52,0.087347,638376,522071
1360.85,0.089817,635805,517019
1364.17,0.091507,633413,513074
1367.49,0.094363,631026,507790
1370.81,0.096896,628050,502456
1374.12,0.099705,625034,496820
1378.54,0.103038,620272,489265
1381.84,0.107140,616892,482024
1385.14,0.110967,613613,475256
1388.43,0.116253,611526,467910
1391.72,0.120959,610663,462214
1395.01,0.126074,610634,456780
1398.29,0.131833,611700,451550
1402.66,0.139708,614051,445140
1405.93,0.145849,616268,440474
1409.2,0.151373,617795,435985
1412.46,0.157621,618872,430507
1415.72,0.162342,619795,426487
1418.98,0.167385,620495,422040
1422.23,0.170870,621087,419066
1426.56,0.174873,621375,415414
1429.8,0.178390,621616,412223
1433.04,0.181380,622129,409733
1436.27,0.183459,621526,407381
1439.5,0.185753,621113,404965
1442.72,0.188633,620921,402164
1445.94,0.190833,620270,399713
1450.23,0.194734,618860,395238
1453.44,0.197374,617697,392104
1456.64,0.200439,616264,388443
1459.85,0.203191,614413,384830
1463.04,0.206021,612307,381020
1466.24,0.208888,610032,377107
1469.43,0.212486,607345,372348
1473.67,0.218031,603789,365472
1476.85,0.223259,601175,359536
1480.02,0.228852,597737,352905
1483.19,0.234724,594479,346268
1486.36,0.239756,591232,340410
1489.52,0.245213,587853,334238
1492.68,0.248262,583875,329654
1496.89,0.250202,578062,324917
1500.03,0.251041,574159,322100
1503.18,0.251685,570285,319453
1506.32,0.250259,565444,317783
1509.45,0.248992,560571,315965
1512.58,0.247436,555821,314412
1515.71,0.245945,550344,312384
1519.87,0.242734,543983,311065
1522.99,0.240152,538764,309918
1526.1,0.237511,533692,308873
1529.21,0.234043,527902,307971
1532.32,0.230664,521886,306840
1535.42,0.227738,515888,305364
1538.51,0.224993,509987,303785
1541.6,0.221086,503936,302893
1545.72,0.216925,494694,300201
1548.8,0.214136,488378,298277
1551.88,0.211277,481832,296223
1554.95,0.209321,474989,293334
1558.02,0.206967,467818,290476
1561.08,0.206426,460730,286431
1564.15,0.205182,454170,283163
1568.22,0.204627,444181,277289
1571.27,0.203845,436947,273265
1574.32,0.202476,429598,269517
1577.36,0.201342,422039,265467
1580.4,0.199391,414375,261820
1583.43,0.197593,406354,257817
1586.46,0.196370,398475,253531
1590.49,0.193503,388982,249130
1593.51,0.191385,380708,245023
1596.53,0.189493,372727,240934
1599.54,0.187856,365060,236869
1602.55,0.184268,357543,233916
1605.55,0.183179,349495,229225
1608.55,0.181172,341154,224791
1612.54,0.178200,330877,219516
1615.53,0.176159,322904,215236
1618.51,0.174773,315116,210716
1621.49,0.172954,307217,206296
1624.47,0.172271,299481,201418
1627.44,0.171152,292112,196969
1630.41,0.170071,284245,192142
1634.36,0.168318,274079,186019
1637.32,0.168156,266916,181225
1640.27,0.167649,259612,176472
1643.22,0.165678,251804,171943
1646.16,0.164183,244348,167427
1649.1,0.164662,236703,162010
1652.04,0.163477,228171,156597
1655.95,0.160195,215408,148959
1658.88,0.159237,204937,142031
1661.8,0.155478,193395,135197
1664.72,0.148095,179728,127797
1667.63,0.141083,163642,118253
1670.54,0.132061,146312,107949
1673.44,0.120790,128451,97263
1677.31,0.109745,105080,81616
1680.21,0.103095,88906,70119
1683.1,0.101619,75033,59379
1685.99,0.106013,63520,49762
1688.87,0.110243,53714,41672
1691.75,0.121990,45653,34473
1694.62,0.120577,39137,29649
1697.49,0.122750,33776,25460
1701.31,0.132595,28175,20762

File: Column 1_050554_20150331_120154.csv
Method:,Column 1,,
Host Date-Time:,31/3/15 @ 12:1:54,,
Header Version:,1,,
System Temp (C):,33.46,,
Detector Temp (C):,32.5,,
Humidity (%):,2.44,,
Lamp PD:,3820,,
Shift Vector Coefficients:,-10.5391,0.0761263,-0.000134223,,
Pixel to Wavelength Coefficients:,1775.68,-0.916766,-0.000235065,,
Serial Number:,5510004,,
Scan Config Name:,Column 1,,
Scan Config Type:,Slew,,
Section 1,,
Start wavelength (nm):,900,,
End wavelength (nm):,1700,,
Pattern Pixel Width (nm):,   7.03,,,,
Exposure (ms):,  0.635,,,,
Digital Resolution:,228,,
Num Repeats:,6,,
PGA Gain:,64,,
Total Measurement Time in sec:,  2.684,,
Wavelength (nm),Absorbance (AU),Reference Signal (unitless),Sample Signal (unitless)
901.51,0.033493,108485,100433
905.376,0.040375,121306,110537
909.237,0.041256,131909,119955
913.095,0.043662,143299,129593
916.948,0.042993,156982,142186
922.079,0.044235,179937,162512
925.923,0.045408,200504,180599
929.762,0.045976,222660,200293
933.597,0.047293,244426,219207
937.427,0.046178,263972,237345
941.254,0.046204,281845,253400
945.076,0.046671,297271,266982
950.165,0.046286,315605,283699
953.978,0.045834,328029,295174
957.786,0.045821,340470,306378
961.59,0.046744,352317,316366
965.389,0.046404,363056,326264
969.185,0.046337,373162,335398
972.976,0.046963,382632,343414
976.763,0.048080,391202,350204
981.806,0.048078,400190,358252
985.583,0.049020,406088,362744
989.355,0.049624,410162,365874
993.124,0.050381,412868,367646
996.888,0.050397,414263,368875
1000.65,0.051658,415476,368882
1004.4,0.052337,415479,368309
1009.41,0.053874,414358,366017
1013.15,0.054640,412923,364107
1016.89,0.055476,411526,362177
1020.63,0.054782,409066,360588
1024.36,0.054918,406777,358458
1028.09,0.054544,404427,356694
1031.82,0.054764,401911,354296
1036.78,0.054228,398410,351643
1040.49,0.053608,396204,350196
1044.2,0.052833,394236,349079
1047.91,0.053553,392042,346561
1051.61,0.051973,389823,345855
1055.31,0.052210,388234,344258
1059,0.051340,387599,344384
1063.92,0.050449,386688,344280
1067.61,0.049468,386598,344978
1071.29,0.049123,387377,345948
1074.96,0.048660,388536,347353
1078.63,0.047946,389855,349106
1082.3,0.047358,391215,350798
1085.96,0.046769,393215,353070
1090.84,0.045891,396270,356533
1094.49,0.045826,398760,358827
1098.14,0.045462,400987,361134
1101.79,0.044960,403477,363797
1105.43,0.044573,406116,366503
1109.06,0.044469,407701,368021
1112.7,0.044457,409859,369979
1117.53,0.044654,412494,372189
1121.15,0.045355,414909,373764
1124.77,0.045995,416559,374698
1128.38,0.046761,418532,375809
1131.99,0.048727,419956,375385
1135.6,0.050462,421946,375660
1139.2,0.052514,423881,375604
1143.99,0.055192,426786,375853
1147.58,0.055347,428617,377331
1151.17,0.056970,431169,378162
1154.75,0.058133,433579,379258
1158.33,0.059970,436264,379996
1161.91,0.061855,439132,380838
1165.48,0.064590,442389,381254
1169.04,0.067165,446101,382180
1173.79,0.071495,451929,383332
1177.34,0.073213,456026,385280
1180.9,0.075990,461306,387257
1184.44,0.077651,467657,391090
1187.99,0.078236,473969,395835
1191.52,0.077825,479856,401131
1195.06,0.077576,487372,407647
1199.76,0.076792,497347,416742
1203.29,0.075789,504311,423555
1206.81,0.075098,511507,430282
1210.33,0.074921,519078,436829
1213.84,0.073975,527163,444600
1217.35,0.072653,534208,451916
1220.85,0.071753,540472,458163
1225.51,0.071235,549929,466736
1229.01,0.070559,556888,473379
1232.5,0.070005,562180,478487
1235.98,0.069149,567975,484373
1239.46,0.067636,574815,491917
1242.94,0.067122,582782,499326
1246.41,0.066505,591476,507495
1251.03,0.066002,604016,518856
1254.5,0.066174,612289,525754
1257.96,0.066841,619125,530808
1261.41,0.067511,624551,534635
1264.86,0.068083,629900,538503
1268.31,0.068356,634345,541963
1271.75,0.069333,638574,544350
1276.33,0.069576,642499,547389
1279.76,0.069401,645905,550513
1283.19,0.069302,648307,552686
1286.61,0.068598,650446,555410
1290.03,0.068318,652132,557208
1293.44,0.068033,653907,559091
1296.85,0.067875,655963,561053
1301.39,0.067560,657349,562647
1304.8,0.067781,657558,562540
1308.19,0.068015,658515,563055
1311.58,0.068156,658804,563119
1314.97,0.068592,659011,562731
1318.36,0.069299,658272,561185
1321.73,0.069828,658022,560290
1326.23,0.070727,657870,559002
1329.6,0.071822,656482,556417
1332.97,0.072982,654926,553618
1336.33,0.074102,653727,551181
1339.69,0.075567,652497,548291
1343.04,0.077470,649913,543732
1346.39,0.079846,647671,538900
1349.73,0.082523,645338,533659
1354.18,0.085740,641175,526304
1357.52,0.087559,638376,521816
1360.85,0.089887,635805,516936
1364.17,0.092097,633413,512377
1367.49,0.094463,631026,507673
1370.81,0.097084,628050,502239
1374.12,0.099823,625034,496684
1378.54,0.103438,620272,488815
1381.84,0.106866,616892,482329
1385.14,0.110936,613613,475290
1388.43,0.115637,611526,468574
1391.72,0.120806,610663,462376
1395.01,0.126401,610634,456436
1398.29,0.132004,611700,451372
1402.66,0.139716,614051,445132
1405.93,0.146191,616268,440128
1409.2,0.151788,617795,435568
1412.46,0.157623,618872,430505
1415.72,0.162672,619795,426163
1418.98,0.166645,620495,422759
1422.23,0.171047,621087,418895
1426.56,0.175587,621375,414731
1429.8,0.178486,621616,412132
1433.04,0.181331,622129,409779
1436.27,0.183876,621526,406990
1439.5,0.186027,621113,404710
1442.72,0.188604,620921,402191
1445.94,0.190905,620270,399646
1450.23,0.194804,618860,395174
1453.44,0.197366,617697,392111
1456.64,0.200565,616264,388331
1459.85,0.203269,614413,384761
1463.04,0.205841,612307,381178
1466.24,0.209176,610032,376857
1469.43,0.212646,607345,372211
1473.67,0.217696,603789,365754
1476.85,0.222469,601175,360190
1480.02,0.229140,597737,352671
1483.19,0.234719,594479,346272
1486.36,0.240477,591232,339845
1489.52,0.244748,587853,334596
1492.68,0.248789,583875,329254
1496.89,0.250698,578062,324546
1500.03,0.251539,574159,321731
1503.18,0.251881,570285,319309
1506.32,0.250748,565444,317425
1509.45,0.249382,560571,315681
1512.58,0.247372,555821,314458
1515.71,0.245441,550344,312747
1519.87,0.242236,543983,311422
1522.99,0.239823,538764,310153
1526.1,0.237331,533692,309001
1529.21,0.234395,527902,307722
1532.32,0.231247,521886,306428
1535.42,0.228106,515888,305105
1538.51,0.225270,509987,303591
1541.6,0.221728,503936,302446
1545.72,0.217462,494694,299830
1548.8,0.214302,488378,298163
1551.88,0.211674,481832,295952
1554.95,0.208734,474989,293731
1558.02,0.207817,467818,289908
1561.08,0.206252,460730,286546
1564.15,0.205647,454170,282860
1568.22,0.204044,444181,277662
1571.27,0.203354,436947,273574
1574.32,0.202368,429598,269584
1577.36,0.201493,422039,265375
1580.4,0.199947,414375,261485
1583.43,0.197807,406354,257690
1586.46,0.195267,398475,254176
1590.49,0.194355,388982,248642
1593.51,0.192052,380708,244647
1596.53,0.189212,372727,241090
1599.54,0.187286,365060,237180
1602.55,0.184554,357543,233762
1605.55,0.183772,349495,228912
1608.55,0.180492,341154,225143
1612.54,0.178715,330877,219256
1615.53,0.175751,322904,215438
1618.51,0.175225,315116,210497
1621.49,0.173844,307217,205874
1624.47,0.172258,299481,201424
1627.44,0.172361,292112,196421
1630.41,0.169770,284245,192275
1634.36,0.169150,274079,185663
1637.32,0.167936,266916,181317
1640.27,0.167061,259612,176711
1643.22,0.165605,251804,171972
1646.16,0.165368,244348,166971
1649.1,0.165005,236703,161882
1652.04,0.161871,228171,157177
1655.95,0.162021,215408,148334
1658.88,0.158980,204937,142115
1661.8,0.154182,193395,135601
1664.72,0.150549,179728,127077
1667.63,0.140870,163642,118311
1670.54,0.132609,146312,107813
1673.44,0.120553,128451,97316
1677.31,0.110203,105080,81530
1680.21,0.102854,88906,70158
1683.1,0.103180,75033,59166
1685.99,0.112626,63520,49010
1688.87,0.115138,53714,41205
1691.75,0.119566,45653,34666
1694.62,0.126209,39137,29267
1697.49,0.129004,33776,25096
1701.31,0.144319,28175,20209