Folder: textile_sorting_NIRSCAN_/samples/wool/wool-000811 (part 173)

File: Column 1_050627_20150331_123620.csv
Method:,Column 1,,
Host Date-Time:,31/3/15 @ 12:36:20,,
Header Version:,1,,
System Temp (C):,34.15,,
Detector Temp (C):,35.06,,
Humidity (%):,1.56,,
Lamp PD:,3817,,
Shift Vector Coefficients:,-10.5391,0.0761263,-0.000134223,,
Pixel to Wavelength Coefficients:,1775.68,-0.916766,-0.000235065,,
Serial Number:,5510004,,
Scan Config Name:,Column 1,,
Scan Config Type:,Slew,,
Section 1,,
Start wavelength (nm):,900,,
End wavelength (nm):,1700,,
Pattern Pixel Width (nm):,   7.03,,,,
Exposure (ms):,  0.635,,,,
Digital Resolution:,228,,
Num Repeats:,6,,
PGA Gain:,64,,
Total Measurement Time in sec:,  2.670,,
Wavelength (nm),Absorbance (AU),Reference Signal (unitless),Sample Signal (unitless)
901.51,0.070366,108485,92258
905.376,0.075930,121306,101848
909.237,0.078542,131909,110086
913.095,0.078004,143299,119740
916.948,0.080489,156982,130425
922.079,0.080837,179937,149377
925.923,0.082452,200504,165833
929.762,0.081806,222660,184432
933.597,0.081900,244426,202417
937.427,0.081023,263972,219046
941.254,0.080362,281845,234233
945.076,0.079381,297271,247612
950.165,0.078769,315605,263254
953.978,0.077245,328029,274579
957.786,0.077499,340470,284826
961.59,0.077875,352317,294482
965.389,0.077307,363056,303855
969.185,0.077306,373162,312314
972.976,0.077976,382632,319746
976.763,0.078438,391202,326560
981.806,0.078901,400190,333707
985.583,0.079905,406088,337843
989.355,0.080085,410162,341091
993.124,0.080722,412868,342838
996.888,0.080852,414263,343894
1000.65,0.082110,415476,343903
1004.4,0.082966,415479,343228
1009.41,0.083863,414358,341596
1013.15,0.084312,412923,340061
1016.89,0.084624,411526,338667
1020.63,0.084779,409066,336523
1024.36,0.084427,406777,334911
1028.09,0.084905,404427,332610
1031.82,0.084054,401911,331189
1036.78,0.083922,398410,328404
1040.49,0.083471,396204,326925
1044.2,0.083570,394236,325227
1047.91,0.083926,392042,323152
1051.61,0.083044,389823,321976
1055.31,0.082766,388234,320869
1059,0.082616,387599,320455
1063.92,0.081557,386688,320482
1067.61,0.080588,386598,321123
1071.29,0.080345,387377,321950
1074.96,0.079779,388536,323335
1078.63,0.079750,389855,324454
1082.3,0.078092,391215,326831
1085.96,0.077659,393215,328830
1090.84,0.076363,396270,332375
1094.49,0.076069,398760,334690
1098.14,0.075695,400987,336849
1101.79,0.074592,403477,339803
1105.43,0.074450,406116,342137
1109.06,0.074064,407701,343778
1112.7,0.073366,409859,346153
1117.53,0.072521,412494,349057
1121.15,0.073943,414909,349953
1124.77,0.073917,416559,351366
1128.38,0.074908,418532,352225
1131.99,0.076078,419956,352473
1135.6,0.077353,421946,353105
1139.2,0.078464,423881,353818
1143.99,0.080569,426786,354520
1147.58,0.081315,428617,355430
1151.17,0.081636,431169,357282
1154.75,0.082711,433579,358391
1158.33,0.083964,436264,359572
1161.91,0.085865,439132,360355
1165.48,0.088249,442389,361040
1169.04,0.089929,446101,362664
1173.79,0.093458,451929,364428
1177.34,0.096646,456026,365043
1180.9,0.097739,461306,368341
1184.44,0.100014,467657,371461
1187.99,0.100547,473969,376013
1191.52,0.100523,479856,380704
1195.06,0.100529,487372,386662
1199.76,0.100072,497347,394991
1203.29,0.099295,504311,401239
1206.81,0.098834,511507,407397
1210.33,0.097866,519078,414349
1213.84,0.097231,527163,421419
1217.35,0.097252,534208,427030
1220.85,0.096583,540472,432703
1225.51,0.095478,549929,441396
1229.01,0.095070,556888,447402
1232.5,0.093978,562180,452791
1235.98,0.093798,567975,457648
1239.46,0.092614,574815,464423
1242.94,0.091954,582782,471577
1246.41,0.091299,591476,479334
1251.03,0.091070,604016,489755
1254.5,0.091266,612289,496239
1257.96,0.091659,619125,501325
1261.41,0.092245,624551,505037
1264.86,0.092927,629900,508563
1268.31,0.093208,634345,511820
1271.75,0.093969,638574,514331
1276.33,0.093912,642499,517560
1279.76,0.094057,645905,520130
1283.19,0.093502,648307,522732
1286.61,0.092743,650446,525374
1290.03,0.093096,652132,526308
1293.44,0.092468,653907,528504
1296.85,0.092093,655963,530623
1301.39,0.091577,657349,532377
1304.8,0.091736,657558,532351
1308.19,0.091225,658515,533754
1311.58,0.091718,658804,533382
1314.97,0.092179,659011,532983
1318.36,0.092845,658272,531570
1321.73,0.092917,658022,531280
1326.23,0.093558,657870,530374
1329.6,0.094129,656482,528559
1332.97,0.095014,654926,526233
1336.33,0.095864,653727,524243
1339.69,0.097380,652497,521433
1343.04,0.099149,649913,517257
1346.39,0.100736,647671,513592
1349.73,0.102647,645338,509495
1354.18,0.105288,641175,503140
1357.52,0.107431,638376,498478
1360.85,0.109455,635805,494162
1364.17,0.111870,633413,489572
1367.49,0.113843,631026,485517
1370.81,0.116079,628050,480745
1374.12,0.118226,625034,476078
1378.54,0.120612,620272,469862
1381.84,0.123469,616892,464237
1385.14,0.126152,613613,458926
1388.43,0.129727,611526,453616
1391.72,0.133344,610663,449218
1395.01,0.137232,610634,445194
1398.29,0.141589,611700,441519
1402.66,0.147518,614051,437206
1405.93,0.152156,616268,434124
1409.2,0.157029,617795,430344
1412.46,0.160831,618872,427336
1415.72,0.163918,619795,424942
1418.98,0.168034,620495,421409
1422.23,0.171141,621087,418805
1426.56,0.174785,621375,415498
1429.8,0.177087,621616,413462
1433.04,0.180101,622129,410941
1436.27,0.182174,621526,408588
1439.5,0.183628,621113,406951
1442.72,0.186683,620921,403974
1445.94,0.189236,620270,401185
1450.23,0.192603,618860,397182
1453.44,0.194916,617697,394330
1456.64,0.198164,616264,390484
1459.85,0.200896,614413,386869
1463.04,0.203873,612307,382910
1466.24,0.207325,610032,378467
1469.43,0.211799,607345,372938
1473.67,0.218757,603789,364862
1476.85,0.223962,601175,358954
1480.02,0.230266,597737,351758
1483.19,0.237077,594479,344397
1486.36,0.243109,591232,337792
1489.52,0.248367,587853,331819
1492.68,0.251345,583875,327322
1496.89,0.253414,578062,322523
1500.03,0.254627,574159,319452
1503.18,0.254525,570285,317371
1506.32,0.253291,565444,315572
1509.45,0.251438,560571,314190
1512.58,0.250260,555821,312374
1515.71,0.248185,550344,310777
1519.87,0.245165,543983,309329
1522.99,0.242125,538764,308513
1526.1,0.239669,533692,307342
1529.21,0.236880,527902,305966
1532.32,0.234004,521886,304489
1535.42,0.230902,515888,303147
1538.51,0.228703,509987,301201
1541.6,0.225384,503936,299910
1545.72,0.221251,494694,297225
1548.8,0.217388,488378,296052
1551.88,0.215998,481832,293020
1554.95,0.214431,474989,289903
1558.02,0.212570,467818,286752
1561.08,0.212185,460730,282658
1564.15,0.211870,454170,278836
1568.22,0.210712,444181,273431
1571.27,0.209847,436947,269514
1574.32,0.208579,429598,265756
1577.36,0.207657,422039,261635
1580.4,0.207003,414375,257271
1583.43,0.204363,406354,253829
1586.46,0.202991,398475,249695
1590.49,0.201931,388982,244342
1593.51,0.200156,380708,240124
1596.53,0.197870,372727,236331
1599.54,0.195981,365060,232479
1602.55,0.194552,357543,228442
1605.55,0.191475,349495,224888
1608.55,0.190137,341154,220198
1612.54,0.188869,330877,214189
1615.53,0.186583,322904,210131
1618.51,0.185940,315116,205367
1621.49,0.184861,307217,200717
1624.47,0.184306,299481,195913
1627.44,0.182732,292112,191786
1630.41,0.180868,284245,187424
1634.36,0.179629,274079,181237
1637.32,0.179318,266916,176627
1640.27,0.179332,259612,171788
1643.22,0.178570,251804,166914
1646.16,0.177680,244348,162304
1649.1,0.177619,236703,157248
1652.04,0.175763,228171,152229
1655.95,0.171675,215408,145073
1658.88,0.168212,204937,139126
1661.8,0.163627,193395,132684
1664.72,0.154218,179728,126008
1667.63,0.142635,163642,117831
1670.54,0.127710,146312,109036
1673.44,0.111570,128451,99350
1677.31,0.092423,105080,84937
1680.21,0.080369,88906,73886
1683.1,0.071761,75033,63605
1685.99,0.071701,63520,53853
1688.87,0.079799,53714,44698
1691.75,0.080819,45653,37901
1694.62,0.091542,39137,31699
1697.49,0.088156,33776,27571
1701.31,0.103413,28175,22205

File: Column 1_050627_20150331_123622.csv
Method:,Column 1,,
Host Date-Time:,31/3/15 @ 12:36:22,,
Header Version:,1,,
System Temp (C):,34.15,,
Detector Temp (C):,35.06,,
Humidity (%):,1.56,,
Lamp PD:,3818,,
Shift Vector Coefficients:,-10.5391,0.0761263,-0.000134223,,
Pixel to Wavelength Coefficients:,1775.68,-0.916766,-0.000235065,,
Serial Number:,5510004,,
Scan Config Name:,Column 1,,
Scan Config Type:,Slew,,
Section 1,,
Start wavelength (nm):,900,,
End wavelength (nm):,1700,,
Pattern Pixel Width (nm):,   7.03,,,,
Exposure (ms):,  0.635,,,,
Digital Resolution:,228,,
Num Repeats:,6,,
PGA Gain:,64,,
Total Measurement Time in sec:,  2.667,,
Wavelength (nm),Absorbance (AU),Reference Signal (unitless),Sample Signal (unitless)
901.51,0.069134,108485,92520
905.376,0.075819,121306,101874
909.237,0.077451,131909,110363
913.095,0.078625,143299,119569
916.948,0.078509,156982,131021
922.079,0.080691,179937,149427
925.923,0.081145,200504,166333
929.762,0.082221,222660,184256
933.597,0.082104,244426,202322
937.427,0.080404,263972,219358
941.254,0.080040,281845,234407
945.076,0.078697,297271,248002
950.165,0.078279,315605,263551
953.978,0.077109,328029,274665
957.786,0.077475,340470,284842
961.59,0.078207,352317,294257
965.389,0.077227,363056,303911
969.185,0.078020,373162,311801
972.976,0.077565,382632,320049
976.763,0.077821,391202,327024
981.806,0.078615,400190,333927
985.583,0.078886,406088,338637
989.355,0.079168,410162,341812
993.124,0.079447,412868,343846
996.888,0.080445,414263,344216
1000.65,0.081030,415476,344759
1004.4,0.082046,415479,343956
1009.41,0.083727,414358,341703
1013.15,0.084202,412923,340147
1016.89,0.084991,411526,338381
1020.63,0.084545,409066,336704
1024.36,0.084400,406777,334932
1028.09,0.084286,404427,333084
1031.82,0.084383,401911,330938
1036.78,0.083832,398410,328472
1040.49,0.082702,396204,327504
1044.2,0.083279,394236,325445
1047.91,0.082743,392042,324033
1051.61,0.082547,389823,322345
1055.31,0.082451,388234,321102
1059,0.082128,387599,320815
1063.92,0.081019,386688,320879
1067.61,0.079871,386598,321654
1071.29,0.080409,387377,321903
1074.96,0.079293,388536,323697
1078.63,0.078889,389855,325098
1082.3,0.078108,391215,326819
1085.96,0.077240,393215,329147
1090.84,0.076718,396270,332103
1094.49,0.076362,398760,334464
1098.14,0.075584,400987,336935
1101.79,0.075672,403477,338959
1105.43,0.074779,406116,341878
1109.06,0.073453,407701,344262
1112.7,0.073341,409859,346173
1117.53,0.073191,412494,348519
1121.15,0.073411,414909,350382
1124.77,0.073719,416559,351526
1128.38,0.074555,418532,352512
1131.99,0.074705,419956,353589
1135.6,0.076790,421946,353563
1139.2,0.078352,423881,353909
1143.99,0.079713,426786,355220
1147.58,0.081460,428617,355312
1151.17,0.081327,431169,357537
1154.75,0.082426,433579,358626
1158.33,0.083855,436264,359662
1161.91,0.085691,439132,360499
1165.48,0.087648,442389,361540
1169.04,0.089914,446101,362676
1173.79,0.093057,451929,364765
1177.34,0.095613,456026,365912
1180.9,0.097697,461306,368377
1184.44,0.099653,467657,371770
1187.99,0.100943,473969,375670
1191.52,0.100558,479856,380674
1195.06,0.100181,487372,386972
1199.76,0.099301,497347,395693
1203.29,0.098529,504311,401948
1206.81,0.098556,511507,407658
1210.33,0.097975,519078,414245
1213.84,0.097198,527163,421451
1217.35,0.096977,534208,427300
1220.85,0.096457,540472,432829
1225.51,0.095436,549929,441439
1229.01,0.094692,556888,447792
1232.5,0.093839,562180,452936
1235.98,0.093560,567975,457899
1239.46,0.092979,574815,464033
1242.94,0.091806,582782,471737
1246.41,0.091308,591476,479324
1251.03,0.090843,604016,490011
1254.5,0.091011,612289,496530
1257.96,0.091303,619125,501736
1261.41,0.091879,624551,505462
1264.86,0.092416,629900,509161
1268.31,0.092848,634345,512245
1271.75,0.093416,638574,514986
1276.33,0.094148,642499,517279
1279.76,0.093533,645905,520758
1283.19,0.093719,648307,522471
1286.61,0.092883,650446,525204
1290.03,0.092790,652132,526678
1293.44,0.092119,653907,528928
1296.85,0.091536,655963,531304
1301.39,0.091203,657349,532835
1304.8,0.091500,657558,532640
1308.19,0.092056,658515,532733
1311.58,0.091702,658804,533401
1314.97,0.092191,659011,532969
1318.36,0.092722,658272,531721
1321.73,0.092811,658022,531410
1326.23,0.093550,657870,530383
1329.6,0.094135,656482,528552
1332.97,0.095006,654926,526243
1336.33,0.095815,653727,524302
1339.69,0.097059,652497,521818
1343.04,0.098998,649913,517437
1346.39,0.100511,647671,513858
1349.73,0.102560,645338,509598
1354.18,0.105487,641175,502909
1357.52,0.107295,638376,498634
1360.85,0.109137,635805,494523
1364.17,0.111570,633413,489911
1367.49,0.113665,631026,485716
1370.81,0.115891,628050,480954
1374.12,0.117944,625034,476387
1378.54,0.120079,620272,470439
1381.84,0.122932,616892,464812
1385.14,0.126335,613613,458733
1388.43,0.129690,611526,453654
1391.72,0.133645,610663,448907
1395.01,0.137222,610634,445204
1398.29,0.141579,611700,441529
1402.66,0.147009,614051,437719
1405.93,0.151853,616268,434427
1409.2,0.156347,617795,431020
1412.46,0.160276,618872,427883
1415.72,0.164184,619795,424682
1418.98,0.168173,620495,421275
1422.23,0.171163,621087,418783
1426.56,0.174065,621375,416187
1429.8,0.176973,621616,413570
1433.04,0.179365,622129,411638
1436.27,0.181613,621526,409116
1439.5,0.183991,621113,406611
1442.72,0.186337,620921,404296
1445.94,0.188343,620270,402011
1450.23,0.192186,618860,397563
1453.44,0.194899,617697,394345
1456.64,0.198031,616264,390603
1459.85,0.200683,614413,387059
1463.04,0.203484,612307,383253
1466.24,0.207853,610032,378007
1469.43,0.211423,607345,373261
1473.67,0.217917,603789,365568
1476.85,0.223815,601175,359076
1480.02,0.230101,597737,351892
1483.19,0.237332,594479,344195
1486.36,0.243159,591232,337753
1489.52,0.247972,587853,332121
1492.68,0.252145,583875,326719
1496.89,0.252647,578062,323093
1500.03,0.253531,574159,320259
1503.18,0.253663,570285,318001
1506.32,0.253218,565444,315625
1509.45,0.251120,560571,314420
1512.58,0.249864,555821,312659
1515.71,0.247648,550344,311162
1519.87,0.244151,543983,310052
1522.99,0.241915,538764,308662
1526.1,0.239262,533692,307630
1529.21,0.236701,527902,306092
1532.32,0.234112,521886,304413
1535.42,0.231088,515888,303017
1538.51,0.227958,509987,301718
1541.6,0.225306,503936,299964
1545.72,0.221811,494694,296842
1548.8,0.218182,488378,295511
1551.88,0.216455,481832,292712
1554.95,0.214536,474989,289833
1558.02,0.212566,467818,286755
1561.08,0.211588,460730,283047
1564.15,0.211065,454170,279353
1568.22,0.210031,444181,273860
1571.27,0.209728,436947,269588
1574.32,0.208927,429598,265543
1577.36,0.208062,422039,261391
1580.4,0.206379,414375,257641
1583.43,0.204615,406354,253682
1586.46,0.203592,398475,249350
1590.49,0.201542,388982,244561
1593.51,0.200672,380708,239839
1596.53,0.197413,372727,236580
1599.54,0.195764,365060,232595
1602.55,0.193863,357543,228805
1605.55,0.191587,349495,224830
1608.55,0.190261,341154,220135
1612.54,0.188207,330877,214516
1615.53,0.186497,322904,210173
1618.51,0.185466,315116,205591
1621.49,0.184437,307217,200913
1624.47,0.182766,299481,196609
1627.44,0.182312,292112,191972
1630.41,0.181406,284245,187192
1634.36,0.180416,274079,180909
1637.32,0.179244,266916,176657
1640.27,0.179145,259612,171862
1643.22,0.176638,251804,167658
1646.16,0.177535,244348,162358
1649.1,0.176089,236703,157803
1652.04,0.175971,228171,152156
1655.95,0.170569,215408,145443
1658.88,0.168062,204937,139174
1661.8,0.162541,193395,133016
1664.72,0.154511,179728,125923
1667.63,0.141553,163642,118125
1670.54,0.128272,146312,108895
1673.44,0.109955,128451,99720
1677.31,0.091381,105080,85141
1680.21,0.078100,88906,74273
1683.1,0.071843,75033,63593
1685.99,0.070790,63520,53966
1688.87,0.073185,53714,45384
1691.75,0.080361,45653,37941
1694.62,0.082566,39137,32361
1697.49,0.090525,33776,27421
1701.31,0.099325,28175,22415

File: Column 1_050627_20150331_123625.csv
Method:,Column 1,,
Host Date-Time:,31/3/15 @ 12:36:25,,
Header Version:,1,,
System Temp (C):,34.14,,
Detector Temp (C):,35.06,,
Humidity (%):,1.56,,
Lamp PD:,3818,,
Shift Vector Coefficients:,-10.5391,0.0761263,-0.000134223,,
Pixel to Wavelength Coefficients:,1775.68,-0.916766,-0.000235065,,
Serial Number:,5510004,,
Scan Config Name:,Column 1,,
Scan Config Type:,Slew,,
Section 1,,
Start wavelength (nm):,900,,
End wavelength (nm):,1700,,
Pattern Pixel Width (nm):,   7.03,,,,
Exposure (ms):,  0.635,,,,
Digital Resolution:,228,,
Num Repeats:,6,,
PGA Gain:,64,,
Total Measurement Time in sec:,  2.720,,
Wavelength (nm),Absorbance (AU),Reference Signal (unitless),Sample Signal (unitless)
901.51,0.068089,108485,92743
905.376,0.074406,121306,102206
909.237,0.077459,131909,110361
913.095,0.078240,143299,119675
916.948,0.079312,156982,130779
922.079,0.081096,179937,149288
925.923,0.081976,200504,166015
929.762,0.083280,222660,183807
933.597,0.082156,244426,202298
937.427,0.081136,263972,218989
941.254,0.079995,281845,234431
945.076,0.079446,297271,247575
950.165,0.078536,315605,263395
953.978,0.076807,328029,274856
957.786,0.077595,340470,284763
961.59,0.077500,352317,294736
965.389,0.077316,363056,303849
969.185,0.077722,373162,312015
972.976,0.077741,382632,319919
976.763,0.077829,391202,327018
981.806,0.078439,400190,334062
985.583,0.078914,406088,338615
989.355,0.079990,410162,341166
993.124,0.080051,412868,343368
996.888,0.080096,414263,344493
1000.65,0.081079,415476,344720
1004.4,0.082118,415479,343899
1009.41,0.083616,414358,341790
1013.15,0.084558,412923,339869
1016.89,0.083883,411526,339246
1020.63,0.084283,409066,336907
1024.36,0.084816,406777,334611
1028.09,0.084186,404427,333161
1031.82,0.084168,401911,331102
1036.78,0.084316,398410,328106
1040.49,0.083191,396204,327136
1044.2,0.083596,394236,325207
1047.91,0.083609,392042,323388
1051.61,0.082248,389823,322567
1055.31,0.082760,388234,320873
1059,0.082139,387599,320807
1063.92,0.081208,386688,320740
1067.61,0.080887,386598,320902
1071.29,0.079998,387377,322208
1074.96,0.079831,388536,323296
1078.63,0.078771,389855,325186
1082.3,0.077704,391215,327123
1085.96,0.077166,393215,329203
1090.84,0.076339,396270,332393
1094.49,0.075957,398760,334776
1098.14,0.075885,400987,336702
1101.79,0.074878,403477,339579
1105.43,0.074973,406116,341725
1109.06,0.073644,407701,344110
1112.7,0.073103,409859,346363
1117.53,0.072917,412494,348739
1121.15,0.073824,414909,350049
1124.77,0.073939,416559,351348
1128.38,0.074402,418532,352636
1131.99,0.075697,419956,352782
1135.6,0.076682,421946,353651
1139.2,0.078220,423881,354017
1143.99,0.080400,426786,354658
1147.58,0.080849,428617,355812
1151.17,0.082228,431169,356796
1154.75,0.083002,433579,358151
1158.33,0.084279,436264,359311
1161.91,0.085886,439132,360337
1165.48,0.088082,442389,361179
1169.04,0.090071,446101,362545
1173.79,0.093214,451929,364633
1177.34,0.095717,456026,365824
1180.9,0.097612,461306,368449
1184.44,0.099519,467657,371885
1187.99,0.100392,473969,376147
1191.52,0.100077,479856,381096
1195.06,0.100868,487372,386360
1199.76,0.099721,497347,395311
1203.29,0.099029,504311,401485
1206.81,0.098873,511507,407360
1210.33,0.098097,519078,414129
1213.84,0.097665,527163,420998
1217.35,0.096762,534208,427512
1220.85,0.095967,540472,433317
1225.51,0.095162,549929,441718
1229.01,0.094835,556888,447644
1232.5,0.094291,562180,452464
1235.98,0.093439,567975,458026
1239.46,0.092423,574815,464628
1242.94,0.091717,582782,471834
1246.41,0.091617,591476,478983
1251.03,0.090652,604016,490226
1254.5,0.091019,612289,496521
1257.96,0.091818,619125,501141
1261.41,0.092289,624551,504986
1264.86,0.092437,629900,509137
1268.31,0.092989,634345,512078
1271.75,0.093477,638574,514913
1276.33,0.094132,642499,517298
1279.76,0.093766,645905,520478
1283.19,0.093261,648307,523022
1286.61,0.093058,650446,524993
1290.03,0.092696,652132,526792
1293.44,0.092033,653907,529033
1296.85,0.092393,655963,530257
1301.39,0.092119,657349,531713
1304.8,0.091288,657558,532900
1308.19,0.091781,658515,533071
1311.58,0.091697,658804,533408
1314.97,0.092072,659011,533115
1318.36,0.092627,658272,531837
1321.73,0.092270,658022,532072
1326.23,0.093421,657870,530541
1329.6,0.094026,656482,528685
1332.97,0.095239,654926,525961
1336.33,0.095608,653727,524552
1339.69,0.097329,652497,521494
1343.04,0.098701,649913,517791
1346.39,0.100636,647671,513711
1349.73,0.102843,645338,509265
1354.18,0.105182,641175,503262
1357.52,0.107512,638376,498385
1360.85,0.109768,635805,493805
1364.17,0.111503,633413,489986
1367.49,0.113823,631026,485539
1370.81,0.115657,628050,481213
1374.12,0.117565,625034,476803
1378.54,0.120438,620272,470050
1381.84,0.123151,616892,464577
1385.14,0.126074,613613,459008
1388.43,0.129708,611526,453635
1391.72,0.133085,610663,449486
1395.01,0.137617,610634,444799
1398.29,0.141690,611700,441416
1402.66,0.147481,614051,437244
1405.93,0.151706,616268,434574
1409.2,0.156392,617795,430975
1412.46,0.160158,618872,427999
1415.72,0.163940,619795,424921
1418.98,0.167664,620495,421769
1422.23,0.170357,621087,419561
1426.56,0.174648,621375,415629
1429.8,0.177105,621616,413444
1433.04,0.179289,622129,411710
1436.27,0.181246,621526,409462
1439.5,0.183964,621113,406637
1442.72,0.186284,620921,404345
1445.94,0.188788,620270,401599
1450.23,0.192053,618860,397685
1453.44,0.195064,617697,394195
1456.64,0.198181,616264,390468
1459.85,0.200719,614413,387027
1463.04,0.203271,612307,383441
1466.24,0.207232,610032,378548
1469.43,0.211711,607345,373013
1473.67,0.217627,603789,365812
1476.85,0.223913,601175,358995
1480.02,0.230162,597737,351842
1483.19,0.237150,594479,344339
1486.36,0.242582,591232,338202
1489.52,0.248118,587853,332010
1492.68,0.251924,583875,326886
1496.89,0.253002,578062,322829
1500.03,0.253535,574159,320256
1503.18,0.253586,570285,318058
1506.32,0.253342,565444,315535
1509.45,0.251979,560571,313799
1512.58,0.250122,555821,312473
1515.71,0.247158,550344,311513
1519.87,0.244711,543983,309652
1522.99,0.241914,538764,308663
1526.1,0.239446,533692,307500
1529.21,0.237161,527902,305768
1532.32,0.233447,521886,304880
1535.42,0.230904,515888,303146
1538.51,0.228814,509987,301124
1541.6,0.225008,503936,300170
1545.72,0.221329,494694,297172
1548.8,0.218163,488378,295524
1551.88,0.215770,481832,293174
1554.95,0.213913,474989,290249
1558.02,0.212006,467818,287125
1561.08,0.211014,460730,283421
1564.15,0.211037,454170,279371
1568.22,0.210226,444181,273737
1571.27,0.209271,436947,269872
1574.32,0.208672,429598,265699
1577.36,0.207287,422039,261858
1580.4,0.206583,414375,257520
1583.43,0.204552,406354,253719
1586.46,0.203412,398475,249453
1590.49,0.200983,388982,244876
1593.51,0.199345,380708,240573
1596.53,0.197178,372727,236708
1599.54,0.195439,365060,232769
1602.55,0.193717,357543,228882
1605.55,0.191533,349495,224858
1608.55,0.189223,341154,220662
1612.54,0.188711,330877,214267
1615.53,0.186106,322904,210362
1618.51,0.185526,315116,205563
1621.49,0.184439,307217,200912
1624.47,0.183551,299481,196254
1627.44,0.182370,292112,191946
1630.41,0.181000,284245,187367
1634.36,0.179629,274079,181237
1637.32,0.179753,266916,176450
1640.27,0.178123,259612,172267
1643.22,0.178354,251804,166997
1646.16,0.177444,244348,162392
1649.1,0.176471,236703,157664
1652.04,0.174433,228171,152696
1655.95,0.171693,215408,145067
1658.88,0.166769,204937,139589
1661.8,0.162300,193395,133090
1664.72,0.154852,179728,125824
1667.63,0.142274,163642,117929
1670.54,0.127061,146312,109199
1673.44,0.108490,128451,100057
1677.31,0.089966,105080,85419
1680.21,0.076443,88906,74557
1683.1,0.072602,75033,63482
1685.99,0.076379,63520,53276
1688.87,0.073759,53714,45324
1691.75,0.079126,45653,38049
1694.62,0.085123,39137,32171
1697.49,0.092414,33776,27302
1701.31,0.090883,28175,22855