Folder: textile_sorting_NIRSCAN_/samples/wool/wool-000811 (part 108)

File: Column 1_050591_20150331_121910.csv
Method:,Column 1,,
Host Date-Time:,31/3/15 @ 12:19:10,,
Header Version:,1,,
System Temp (C):,33.86,,
Detector Temp (C):,34.64,,
Humidity (%):,1.81,,
Lamp PD:,3818,,
Shift Vector Coefficients:,-10.5391,0.0761263,-0.000134223,,
Pixel to Wavelength Coefficients:,1775.68,-0.916766,-0.000235065,,
Serial Number:,5510004,,
Scan Config Name:,Column 1,,
Scan Config Type:,Slew,,
Section 1,,
Start wavelength (nm):,900,,
End wavelength (nm):,1700,,
Pattern Pixel Width (nm):,   7.03,,,,
Exposure (ms):,  0.635,,,,
Digital Resolution:,228,,
Num Repeats:,6,,
PGA Gain:,64,,
Total Measurement Time in sec:,  2.732,,
Wavelength (nm),Absorbance (AU),Reference Signal (unitless),Sample Signal (unitless)
901.51,0.070592,108485,92210
905.376,0.075900,121306,101855
909.237,0.078105,131909,110197
913.095,0.079697,143299,119274
916.948,0.079887,156982,130606
922.079,0.081570,179937,149125
925.923,0.082175,200504,165939
929.762,0.083670,222660,183642
933.597,0.083663,244426,201597
937.427,0.080929,263972,219093
941.254,0.080804,281845,233995
945.076,0.080484,297271,246984
950.165,0.080308,315605,262323
953.978,0.078834,328029,273576
957.786,0.079287,340470,283656
961.59,0.079157,352317,293614
965.389,0.079448,363056,302361
969.185,0.079504,373162,310737
972.976,0.079570,382632,318575
976.763,0.080216,391202,325226
981.806,0.080283,400190,332647
985.583,0.080980,406088,337008
989.355,0.081944,410162,339634
993.124,0.082107,412868,341747
996.888,0.082547,414263,342554
1000.65,0.082634,415476,343488
1004.4,0.084393,415479,342102
1009.41,0.085188,414358,340555
1013.15,0.086459,412923,338384
1016.89,0.086167,411526,337466
1020.63,0.085903,409066,335653
1024.36,0.086517,406777,333303
1028.09,0.086155,404427,331654
1031.82,0.085773,401911,329881
1036.78,0.086080,398410,326776
1040.49,0.084892,396204,325857
1044.2,0.085450,394236,323822
1047.91,0.085363,392042,322084
1051.61,0.085130,389823,320433
1055.31,0.084571,388234,319538
1059,0.084226,387599,319269
1063.92,0.082950,386688,319456
1067.61,0.082482,386598,319726
1071.29,0.082291,387377,320511
1074.96,0.081691,388536,321914
1078.63,0.081952,389855,322813
1082.3,0.080212,391215,325240
1085.96,0.079985,393215,327073
1090.84,0.078384,396270,330832
1094.49,0.078211,398760,333043
1098.14,0.077680,400987,335313
1101.79,0.077010,403477,337916
1105.43,0.076342,406116,340650
1109.06,0.075831,407701,342382
1112.7,0.076143,409859,343947
1117.53,0.075687,412494,346522
1121.15,0.075903,414909,348377
1124.77,0.076330,416559,349419
1128.38,0.077037,418532,350503
1131.99,0.078315,419956,350662
1135.6,0.079589,421946,351292
1139.2,0.080896,423881,351842
1143.99,0.083039,426786,352510
1147.58,0.084424,428617,352895
1151.17,0.084561,431169,354884
1154.75,0.085465,433579,356126
1158.33,0.087034,436264,357039
1161.91,0.088916,439132,357832
1165.48,0.090968,442389,358787
1169.04,0.093432,446101,359750
1173.79,0.096202,451929,362133
1177.34,0.098956,456026,363106
1180.9,0.100629,461306,365898
1184.44,0.102768,467657,369113
1187.99,0.103156,473969,373761
1191.52,0.103652,479856,377971
1195.06,0.103178,487372,384311
1199.76,0.102949,497347,392383
1203.29,0.101801,504311,398931
1206.81,0.101599,511507,404811
1210.33,0.100842,519078,411520
1213.84,0.100149,527163,418597
1217.35,0.099659,534208,424670
1220.85,0.099169,540472,430134
1225.51,0.098245,549929,438593
1229.01,0.097753,556888,444646
1232.5,0.096951,562180,449702
1235.98,0.096743,567975,454555
1239.46,0.095940,574815,460880
1242.94,0.094627,582782,468683
1246.41,0.094353,591476,475975
1251.03,0.093943,604016,486525
1254.5,0.094011,612289,493112
1257.96,0.094689,619125,497840
1261.41,0.094961,624551,501888
1264.86,0.095465,629900,505600
1268.31,0.095982,634345,508561
1271.75,0.096597,638574,511227
1276.33,0.096933,642499,513972
1279.76,0.096526,645905,517181
1283.19,0.096208,648307,519485
1286.61,0.096011,650446,521435
1290.03,0.095864,652132,522964
1293.44,0.095095,653907,525316
1296.85,0.095303,655963,526716
1301.39,0.094818,657349,528419
1304.8,0.094652,657558,528789
1308.19,0.094999,658515,529135
1311.58,0.094730,658804,529695
1314.97,0.095783,659011,528579
1318.36,0.095841,658272,527916
1321.73,0.096251,658022,527217
1326.23,0.097637,657870,525416
1329.6,0.098437,656482,523342
1332.97,0.098950,654926,521486
1336.33,0.100021,653727,519249
1339.69,0.102062,652497,515842
1343.04,0.103071,649913,512607
1346.39,0.105620,647671,507849
1349.73,0.107894,645338,503377
1354.18,0.110054,641175,497648
1357.52,0.112308,638376,492911
1360.85,0.114162,635805,488835
1364.17,0.116338,633413,484562
1367.49,0.118464,631026,480378
1370.81,0.120632,628050,475732
1374.12,0.122877,625034,471006
1378.54,0.125699,620272,464390
1381.84,0.128674,616892,458707
1385.14,0.132015,613613,452772
1388.43,0.136206,611526,446899
1391.72,0.140392,610663,441987
1395.01,0.145174,610634,437126
1398.29,0.149981,611700,433069
1402.66,0.156958,614051,427806
1405.93,0.162132,616268,424265
1409.2,0.167198,617795,420384
1412.46,0.172413,618872,416091
1415.72,0.176508,619795,412800
1418.98,0.179845,620495,410103
1422.23,0.183793,621087,406780
1426.56,0.187889,621375,403148
1429.8,0.190287,621616,401084
1433.04,0.192575,622129,399306
1436.27,0.194808,621526,396873
1439.5,0.197085,621113,394535
1442.72,0.199401,620921,392315
1445.94,0.201505,620270,390010
1450.23,0.205365,618860,385680
1453.44,0.207455,617697,383107
1456.64,0.210320,616264,379705
1459.85,0.213146,614413,376110
1463.04,0.215639,612307,372675
1466.24,0.218672,610032,368706
1469.43,0.222345,607345,363991
1473.67,0.227945,603789,357224
1476.85,0.232856,601175,351678
1480.02,0.238686,597737,345004
1483.19,0.244951,594479,338209
1486.36,0.249962,591232,332503
1489.52,0.254667,587853,327041
1492.68,0.257514,583875,322705
1496.89,0.260005,578062,317665
1500.03,0.260931,574159,314848
1503.18,0.260370,570285,313128
1506.32,0.258470,565444,311831
1509.45,0.258269,560571,309287
1512.58,0.256682,555821,307789
1515.71,0.254694,550344,306154
1519.87,0.251545,543983,304818
1522.99,0.248529,538764,303997
1526.1,0.246854,533692,302299
1529.21,0.244255,527902,300814
1532.32,0.241028,521886,299604
1535.42,0.237501,515888,298576
1538.51,0.235032,509987,296843
1541.6,0.232353,503936,295136
1545.72,0.228989,494694,291976
1548.8,0.225405,488378,290637
1551.88,0.223468,481832,288023
1554.95,0.221644,474989,285128
1558.02,0.219334,467818,282321
1561.08,0.218300,460730,278706
1564.15,0.217621,454170,275168
1568.22,0.217162,444181,269400
1571.27,0.215800,436947,265845
1574.32,0.215129,429598,261778
1577.36,0.213528,422039,258122
1580.4,0.213059,414375,253708
1583.43,0.210911,406354,250031
1586.46,0.209669,398475,245885
1590.49,0.207756,388982,241087
1593.51,0.205990,380708,236920
1596.53,0.203979,372727,233030
1599.54,0.202965,365060,228770
1602.55,0.200076,357543,225555
1605.55,0.198075,349495,221496
1608.55,0.196219,341154,217136
1612.54,0.195047,330877,211164
1615.53,0.191967,322904,207542
1618.51,0.190962,315116,203006
1621.49,0.190072,307217,198323
1624.47,0.189242,299481,193699
1627.44,0.189111,292112,188990
1630.41,0.187325,284245,184658
1634.36,0.185261,274079,178902
1637.32,0.186162,266916,173865
1640.27,0.185396,259612,169406
1643.22,0.183887,251804,164883
1646.16,0.182688,244348,160443
1649.1,0.182074,236703,155643
1652.04,0.180294,228171,150649
1655.95,0.176649,215408,143421
1658.88,0.171744,204937,137999
1661.8,0.168833,193395,131103
1664.72,0.161534,179728,123903
1667.63,0.147994,163642,116386
1670.54,0.135446,146312,107111
1673.44,0.118341,128451,97813
1677.31,0.101444,105080,83191
1680.21,0.089997,88906,72266
1683.1,0.081064,75033,62257
1685.99,0.086515,63520,52047
1688.87,0.090681,53714,43592
1691.75,0.090271,45653,37085
1694.62,0.102587,39137,30903
1697.49,0.104675,33776,26542
1701.31,0.116679,28175,21537

File: Column 1_050591_20150331_121913.csv
Method:,Column 1,,
Host Date-Time:,31/3/15 @ 12:19:13,,
Header Version:,1,,
System Temp (C):,33.87,,
Detector Temp (C):,34.64,,
Humidity (%):,1.81,,
Lamp PD:,3818,,
Shift Vector Coefficients:,-10.5391,0.0761263,-0.000134223,,
Pixel to Wavelength Coefficients:,1775.68,-0.916766,-0.000235065,,
Serial Number:,5510004,,
Scan Config Name:,Column 1,,
Scan Config Type:,Slew,,
Section 1,,
Start wavelength (nm):,900,,
End wavelength (nm):,1700,,
Pattern Pixel Width (nm):,   7.03,,,,
Exposure (ms):,  0.635,,,,
Digital Resolution:,228,,
Num Repeats:,6,,
PGA Gain:,64,,
Total Measurement Time in sec:,  2.735,,
Wavelength (nm),Absorbance (AU),Reference Signal (unitless),Sample Signal (unitless)
901.51,0.069735,108485,92392
905.376,0.075810,121306,101876
909.237,0.077301,131909,110401
913.095,0.078755,143299,119533
916.948,0.080063,156982,130553
922.079,0.081777,179937,149054
925.923,0.082038,200504,165991
929.762,0.082148,222660,184287
933.597,0.082334,244426,202215
937.427,0.081924,263972,218592
941.254,0.081629,281845,233551
945.076,0.079637,297271,247466
950.165,0.079578,315605,262764
953.978,0.079082,328029,273420
957.786,0.078884,340470,283919
961.59,0.078713,352317,293914
965.389,0.079399,363056,302395
969.185,0.078812,373162,311233
972.976,0.079001,382632,318992
976.763,0.079990,391202,325395
981.806,0.080270,400190,332657
985.583,0.081007,406088,336987
989.355,0.081552,410162,339941
993.124,0.081830,412868,341965
996.888,0.082242,414263,342795
1000.65,0.083234,415476,343014
1004.4,0.084722,415479,341843
1009.41,0.085086,414358,340635
1013.15,0.085668,412923,339001
1016.89,0.086761,411526,337005
1020.63,0.086321,409066,335330
1024.36,0.085849,406777,333816
1028.09,0.086270,404427,331566
1031.82,0.086376,401911,329423
1036.78,0.085567,398410,327162
1040.49,0.085245,396204,325592
1044.2,0.085057,394236,324115
1047.91,0.084550,392042,322688
1051.61,0.084467,389823,320923
1055.31,0.084722,388234,319427
1059,0.084123,387599,319345
1063.92,0.083502,386688,319050
1067.61,0.081926,386598,320135
1071.29,0.082207,387377,320573
1074.96,0.081345,388536,322171
1078.63,0.081040,389855,323492
1082.3,0.080179,391215,325264
1085.96,0.079570,393215,327386
1090.84,0.078096,396270,331051
1094.49,0.077874,398760,333302
1098.14,0.077499,400987,335453
1101.79,0.076919,403477,337987
1105.43,0.076885,406116,340224
1109.06,0.075710,407701,342477
1112.7,0.075216,409859,344682
1117.53,0.075377,412494,346769
1121.15,0.076147,414909,348182
1124.77,0.075980,416559,349701
1128.38,0.076912,418532,350604
1131.99,0.077804,419956,351075
1135.6,0.079173,421946,351628
1139.2,0.080648,423881,352043
1143.99,0.083175,426786,352399
1147.58,0.083687,428617,353494
1151.17,0.084770,431169,354713
1154.75,0.085318,433579,356246
1158.33,0.086653,436264,357352
1161.91,0.088918,439132,357830
1165.48,0.090902,442389,358841
1169.04,0.092970,446101,360133
1173.79,0.095893,451929,362391
1177.34,0.098785,456026,363249
1180.9,0.100489,461306,366016
1184.44,0.102489,467657,369350
1187.99,0.103092,473969,373816
1191.52,0.103249,479856,378322
1195.06,0.103233,487372,384262
1199.76,0.102405,497347,392875
1203.29,0.102132,504311,398627
1206.81,0.101937,511507,404496
1210.33,0.100851,519078,411511
1213.84,0.100054,527163,418688
1217.35,0.099596,534208,424731
1220.85,0.098726,540472,430573
1225.51,0.097942,549929,438899
1229.01,0.097869,556888,444528
1232.5,0.096613,562180,450052
1235.98,0.096278,567975,455042
1239.46,0.095313,574815,461546
1242.94,0.094636,582782,468673
1246.41,0.093910,591476,476461
1251.03,0.093705,604016,486792
1254.5,0.093719,612289,493443
1257.96,0.094298,619125,498288
1261.41,0.094549,624551,502365
1264.86,0.095261,629900,505837
1268.31,0.096576,634345,507866
1271.75,0.096741,638574,511058
1276.33,0.097045,642499,513840
1279.76,0.096697,645905,516977
1283.19,0.095985,648307,519751
1286.61,0.095715,650446,521790
1290.03,0.095504,652132,523397
1293.44,0.094914,653907,525535
1296.85,0.094784,655963,527346
1301.39,0.094832,657349,528402
1304.8,0.094462,657558,529020
1308.19,0.094562,658515,529668
1311.58,0.094971,658804,529402
1314.97,0.095348,659011,529109
1318.36,0.095837,658272,527920
1321.73,0.096342,658022,527107
1326.23,0.097188,657870,525959
1329.6,0.098081,656482,523772
1332.97,0.098757,654926,521717
1336.33,0.099827,653727,519481
1339.69,0.101587,652497,516406
1343.04,0.103139,649913,512526
1346.39,0.105123,647671,508430
1349.73,0.106896,645338,504535
1354.18,0.109753,641175,497993
1357.52,0.111723,638376,493575
1360.85,0.114333,635805,488642
1364.17,0.116075,633413,484855
1367.49,0.118093,631026,480789
1370.81,0.120254,628050,476146
1374.12,0.122697,625034,471202
1378.54,0.125817,620272,464264
1381.84,0.128807,616892,458566
1385.14,0.132024,613613,452763
1388.43,0.135796,611526,447321
1391.72,0.140799,610663,441573
1395.01,0.144974,610634,437328
1398.29,0.150013,611700,433037
1402.66,0.156284,614051,428470
1405.93,0.162173,616268,424225
1409.2,0.167122,617795,420458
1412.46,0.172126,618872,416366
1415.72,0.176005,619795,413279
1418.98,0.179745,620495,410198
1422.23,0.183640,621087,406923
1426.56,0.187621,621375,403397
1429.8,0.189779,621616,401553
1433.04,0.192634,622129,399251
1436.27,0.194792,621526,396887
1439.5,0.197116,621113,394507
1442.72,0.199461,620921,392261
1445.94,0.201916,620270,389641
1450.23,0.204867,618860,386123
1453.44,0.207601,617697,382979
1456.64,0.210009,616264,379977
1459.85,0.212777,614413,376429
1463.04,0.215538,612307,372762
1466.24,0.218935,610032,368483
1469.43,0.222800,607345,363610
1473.67,0.227757,603789,357378
1476.85,0.233250,601175,351359
1480.02,0.238665,597737,345021
1483.19,0.244677,594479,338423
1486.36,0.250254,591232,332280
1489.52,0.254672,587853,327037
1492.68,0.257586,583875,322652
1496.89,0.260057,578062,317627
1500.03,0.259989,574159,315532
1503.18,0.260254,570285,313212
1506.32,0.259438,565444,311137
1509.45,0.258683,560571,308992
1512.58,0.255704,555821,308483
1515.71,0.254073,550344,306592
1519.87,0.251210,543983,305053
1522.99,0.249425,538764,303371
1526.1,0.246828,533692,302317
1529.21,0.244231,527902,300831
1532.32,0.240672,521886,299850
1535.42,0.237797,515888,298372
1538.51,0.235173,509987,296747
1541.6,0.232651,503936,294934
1545.72,0.228499,494694,292306
1548.8,0.224817,488378,291031
1551.88,0.222857,481832,288429
1554.95,0.220991,474989,285557
1558.02,0.219178,467818,282422
1561.08,0.218306,460730,278702
1564.15,0.217633,454170,275160
1568.22,0.216502,444181,269810
1571.27,0.215650,436947,265937
1574.32,0.214724,429598,262022
1577.36,0.213585,422039,258088
1580.4,0.212097,414375,254271
1583.43,0.212113,406354,249340
1586.46,0.209895,398475,245757
1590.49,0.206531,388982,241768
1593.51,0.205765,380708,237043
1596.53,0.203754,372727,233151
1599.54,0.202019,365060,229269
1602.55,0.199181,357543,226020
1605.55,0.198054,349495,221507
1608.55,0.195869,341154,217311
1612.54,0.194796,330877,211286
1615.53,0.191823,322904,207611
1618.51,0.191002,315116,202987
1621.49,0.189354,307217,198651
1624.47,0.188171,299481,194177
1627.44,0.188046,292112,189454
1630.41,0.186277,284245,185104
1634.36,0.185134,274079,178954
1637.32,0.183771,266916,174825
1640.27,0.184050,259612,169932
1643.22,0.183095,251804,165184
1646.16,0.182312,244348,160582
1649.1,0.181505,236703,155847
1652.04,0.179309,228171,150991
1655.95,0.175959,215408,143649
1658.88,0.173675,204937,137387
1661.8,0.170173,193395,130699
1664.72,0.160008,179728,124339
1667.63,0.147573,163642,116499
1670.54,0.134611,146312,107317
1673.44,0.120839,128451,97252
1677.31,0.101235,105080,83231
1680.21,0.087737,88906,72643
1683.1,0.082553,75033,62044
1685.99,0.089118,63520,51736
1688.87,0.084646,53714,44202
1691.75,0.094969,45653,36686
1694.62,0.095672,39137,31399
1697.49,0.103694,33776,26602
1701.31,0.103179,28175,22217

File: Column 1_050591_20150331_121919.csv
Method:,Column 1,,
Host Date-Time:,31/3/15 @ 12:19:19,,
Header Version:,1,,
System Temp (C):,33.84,,
Detector Temp (C):,34.59,,
Humidity (%):,1.86,,
Lamp PD:,3819,,
Shift Vector Coefficients:,-10.5391,0.0761263,-0.000134223,,
Pixel to Wavelength Coefficients:,1775.68,-0.916766,-0.000235065,,
Serial Number:,5510004,,
Scan Config Name:,Column 1,,
Scan Config Type:,Slew,,
Section 1,,
Start wavelength (nm):,900,,
End wavelength (nm):,1700,,
Pattern Pixel Width (nm):,   7.03,,,,
Exposure (ms):,  0.635,,,,
Digital Resolution:,228,,
Num Repeats:,6,,
PGA Gain:,64,,
Total Measurement Time in sec:,  2.677,,
Wavelength (nm),Absorbance (AU),Reference Signal (unitless),Sample Signal (unitless)
901.51,0.069529,108485,92436
905.376,0.073260,121306,102476
909.237,0.075609,131909,110832
913.095,0.077663,143299,119834
916.948,0.079226,156982,130805
922.079,0.081145,179937,149271
925.923,0.082052,200504,165986
929.762,0.083313,222660,183793
933.597,0.083000,244426,201905
937.427,0.081930,263972,218589
941.254,0.080774,281845,234011
945.076,0.080452,297271,247002
950.165,0.078926,315605,263159
953.978,0.078119,328029,274027
957.786,0.078618,340470,284093
961.59,0.079394,352317,293454
965.389,0.078811,363056,302805
969.185,0.078935,373162,311145
972.976,0.079379,382632,318715
976.763,0.080062,391202,325341
981.806,0.079693,400190,333099
985.583,0.080582,406088,337317
989.355,0.080961,410162,340404
993.124,0.081793,412868,341994
996.888,0.082040,414263,342954
1000.65,0.082583,415476,343529
1004.4,0.084480,415479,342034
1009.41,0.085275,414358,340487
1013.15,0.085655,412923,339011
1016.89,0.086436,411526,337257
1020.63,0.085849,409066,335695
1024.36,0.086073,406777,333644
1028.09,0.085779,404427,331941
1031.82,0.085965,401911,329735
1036.78,0.085206,398410,327434
1040.49,0.085401,396204,325475
1044.2,0.084911,394236,324224
1047.91,0.084080,392042,323037
1051.61,0.083977,389823,321285
1055.31,0.084131,388234,319862
1059,0.083470,387599,319825
1063.92,0.082910,386688,319485
1067.61,0.082154,386598,319967
1071.29,0.081981,387377,320740
1074.96,0.081552,388536,322017
1078.63,0.080891,389855,323603
1082.3,0.079759,391215,325579
1085.96,0.078396,393215,328272
1090.84,0.078363,396270,330848
1094.49,0.077423,398760,333648
1098.14,0.077138,400987,335732
1101.79,0.076756,403477,338114
1105.43,0.076049,406116,340880
1109.06,0.075780,407701,342422
1112.7,0.075726,409859,344277
1117.53,0.075143,412494,346956
1121.15,0.075715,414909,348528
1124.77,0.075507,416559,350082
1128.38,0.077258,418532,350325
1131.99,0.077702,419956,351157
1135.6,0.079403,421946,351442
1139.2,0.080578,423881,352100
1143.99,0.082680,426786,352801
1147.58,0.083904,428617,353318
1151.17,0.084613,431169,354842
1154.75,0.085334,433579,356233
1158.33,0.086845,436264,357194
1161.91,0.088588,439132,358102
1165.48,0.090185,442389,359434
1169.04,0.092610,446101,360432
1173.79,0.096281,451929,362067
1177.34,0.098019,456026,363890
1180.9,0.100573,461306,365945
1184.44,0.102351,467657,369468
1187.99,0.103069,473969,373836
1191.52,0.103128,479856,378428
1195.06,0.102507,487372,384905
1199.76,0.102053,497347,393194
1203.29,0.102205,504311,398560
1206.81,0.101340,511507,405053
1210.33,0.100541,519078,411805
1213.84,0.100117,527163,418628
1217.35,0.099482,534208,424843
1220.85,0.098674,540472,430625
1225.51,0.097990,549929,438851
1229.01,0.097721,556888,444679
1232.5,0.096776,562180,449883
1235.98,0.096514,567975,454795
1239.46,0.095664,574815,461173
1242.94,0.094431,582782,468895
1246.41,0.094075,591476,476280
1251.03,0.093600,604016,486910
1254.5,0.094101,612289,493010
1257.96,0.094390,619125,498182
1261.41,0.095097,624551,501731
1264.86,0.095712,629900,505312
1268.31,0.095552,634345,509065
1271.75,0.096681,638574,511129
1276.33,0.096737,642499,514204
1279.76,0.096603,645905,517090
1283.19,0.096254,648307,519430
1286.61,0.095373,650446,522202
1290.03,0.095478,652132,523429
1293.44,0.094694,653907,525802
1296.85,0.094822,655963,527299
1301.39,0.094767,657349,528480
1304.8,0.094616,657558,528833
1308.19,0.094713,658515,529484
1311.58,0.094841,658804,529560
1314.97,0.095282,659011,529189
1318.36,0.095680,658272,528111
1321.73,0.095884,658022,527663
1326.23,0.096706,657870,526543
1329.6,0.097657,656482,524283
1332.97,0.098749,654926,521727
1336.33,0.100027,653727,519242
1339.69,0.101328,652497,516714
1343.04,0.103034,649913,512650
1346.39,0.104969,647671,508611
1349.73,0.106790,645338,504658
1354.18,0.109746,641175,498001
1357.52,0.111850,638376,493431
1360.85,0.113694,635805,489362
1364.17,0.115903,633413,485047
1367.49,0.117958,631026,480938
1370.81,0.119960,628050,476469
1374.12,0.122193,625034,471749
1378.54,0.125565,620272,464534
1381.84,0.128505,616892,458885
1385.14,0.131925,613613,452866
1388.43,0.135805,611526,447311
1391.72,0.140498,610663,441879
1395.01,0.144686,610634,437618
1398.29,0.149466,611700,433583
1402.66,0.156291,614051,428463
1405.93,0.162125,616268,424272
1409.2,0.167463,617795,420128
1412.46,0.170783,618872,417655
1415.72,0.175897,619795,413382
1418.98,0.179723,620495,410219
1422.23,0.183333,621087,407211
1426.56,0.187300,621375,403695
1429.8,0.189727,621616,401601
1433.04,0.191662,622129,400146
1436.27,0.194623,621526,397042
1439.5,0.196313,621113,395237
1442.72,0.198586,620921,393052
1445.94,0.201237,620270,390251
1450.23,0.204757,618860,386221
1453.44,0.206863,617697,383630
1456.64,0.209299,616264,380599
1459.85,0.212273,614413,376866
1463.04,0.215483,612307,372809
1466.24,0.218541,610032,368818
1469.43,0.221366,607345,364812
1473.67,0.227850,603789,357302
1476.85,0.233235,601175,351371
1480.02,0.238429,597737,345208
1483.19,0.244219,594479,338780
1486.36,0.249662,591232,332733
1489.52,0.254287,587853,327327
1492.68,0.257214,583875,322928
1496.89,0.259156,578062,318287
1500.03,0.260044,574159,315492
1503.18,0.259377,570285,313845
1506.32,0.258968,565444,311474
1509.45,0.257809,560571,309615
1512.58,0.256081,555821,308215
1515.71,0.253810,550344,306778
1519.87,0.250739,543983,305384
1522.99,0.248168,538764,304250
1526.1,0.246142,533692,302795
1529.21,0.243027,527902,301666
1532.32,0.240363,521886,300063
1535.42,0.237354,515888,298677
1538.51,0.234987,509987,296874
1541.6,0.231869,503936,295465
1545.72,0.228206,494694,292503
1548.8,0.225250,488378,290741
1551.88,0.222502,481832,288665
1554.95,0.220764,474989,285706
1558.02,0.218989,467818,282545
1561.08,0.218299,460730,278707
1564.15,0.216797,454170,275690
1568.22,0.215907,444181,270180
1571.27,0.215268,436947,266171
1574.32,0.214617,429598,262087
1577.36,0.213864,422039,257922
1580.4,0.211539,414375,254598
1583.43,0.210749,406354,250124
1586.46,0.209254,398475,246120
1590.49,0.207851,388982,241034
1593.51,0.205188,380708,237358
1596.53,0.203240,372727,233427
1599.54,0.201824,365060,229372
1602.55,0.200139,357543,225522
1605.55,0.198246,349495,221409
1608.55,0.195108,341154,217692
1612.54,0.193802,330877,211770
1615.53,0.191451,322904,207789
1618.51,0.191293,315116,202851
1621.49,0.189105,307217,198765
1624.47,0.188565,299481,194001
1627.44,0.187143,292112,189848
1630.41,0.186751,284245,184902
1634.36,0.185231,274079,178914
1637.32,0.184415,266916,174566
1640.27,0.183375,259612,170196
1643.22,0.182417,251804,165442
1646.16,0.182896,244348,160366
1649.1,0.181458,236703,155864
1652.04,0.180156,228171,150697
1655.95,0.176979,215408,143312
1658.88,0.172727,204937,137687
1661.8,0.167516,193395,131501
1664.72,0.160228,179728,124276
1667.63,0.146999,163642,116653
1670.54,0.134660,146312,107305
1673.44,0.117565,128451,97988
1677.31,0.099122,105080,83637
1680.21,0.088342,88906,72542
1683.1,0.081364,75033,62214
1685.99,0.085681,63520,52147
1688.87,0.086842,53714,43979
1691.75,0.085820,45653,37467
1694.62,0.091693,39137,31688
1697.49,0.098356,33776,26931
1701.31,0.108964,28175,21923