Folder: textile_sorting_NIRSCAN_/samples/wool/wool-000811 (part 135)

File: Column 1_050606_20150331_122641.csv
Method:,Column 1,,
Host Date-Time:,31/3/15 @ 12:26:41,,
Header Version:,1,,
System Temp (C):,34.01,,
Detector Temp (C):,34.85,,
Humidity (%):,1.66,,
Lamp PD:,3818,,
Shift Vector Coefficients:,-10.5391,0.0761263,-0.000134223,,
Pixel to Wavelength Coefficients:,1775.68,-0.916766,-0.000235065,,
Serial Number:,5510004,,
Scan Config Name:,Column 1,,
Scan Config Type:,Slew,,
Section 1,,
Start wavelength (nm):,900,,
End wavelength (nm):,1700,,
Pattern Pixel Width (nm):,   7.03,,,,
Exposure (ms):,  0.635,,,,
Digital Resolution:,228,,
Num Repeats:,6,,
PGA Gain:,64,,
Total Measurement Time in sec:,  2.673,,
Wavelength (nm),Absorbance (AU),Reference Signal (unitless),Sample Signal (unitless)
901.51,0.070714,108485,92184
905.376,0.073896,121306,102326
909.237,0.077904,131909,110248
913.095,0.078247,143299,119673
916.948,0.080366,156982,130462
922.079,0.079719,179937,149762
925.923,0.080284,200504,166663
929.762,0.081307,222660,184644
933.597,0.082469,244426,202152
937.427,0.080874,263972,219121
941.254,0.079608,281845,234640
945.076,0.079572,297271,247503
950.165,0.077775,315605,263857
953.978,0.076979,328029,274747
957.786,0.077187,340470,285031
961.59,0.077468,352317,294758
965.389,0.077553,363056,303683
969.185,0.077513,373162,312165
972.976,0.077582,382632,320036
976.763,0.078090,391202,326822
981.806,0.078656,400190,333895
985.583,0.079679,406088,338019
989.355,0.080069,410162,341104
993.124,0.079845,412868,343531
996.888,0.080465,414263,344200
1000.65,0.081446,415476,344429
1004.4,0.082772,415479,343382
1009.41,0.083909,414358,341560
1013.15,0.084466,412923,339941
1016.89,0.085118,411526,338282
1020.63,0.084503,409066,336737
1024.36,0.084959,406777,334501
1028.09,0.084039,404427,333274
1031.82,0.084118,401911,331140
1036.78,0.083959,398410,328376
1040.49,0.083730,396204,326730
1044.2,0.084081,394236,324844
1047.91,0.083615,392042,323383
1051.61,0.083029,389823,321987
1055.31,0.082474,388234,321085
1059,0.082453,387599,320575
1063.92,0.080979,386688,320909
1067.61,0.081243,386598,320639
1071.29,0.080591,387377,321768
1074.96,0.079600,388536,323468
1078.63,0.079620,389855,324551
1082.3,0.078179,391215,326766
1085.96,0.077731,393215,328775
1090.84,0.076414,396270,332336
1094.49,0.076386,398760,334446
1098.14,0.075749,400987,336807
1101.79,0.074818,403477,339626
1105.43,0.075384,406116,341402
1109.06,0.073682,407701,344080
1112.7,0.073752,409859,345846
1117.53,0.073103,412494,348590
1121.15,0.074255,414909,349702
1124.77,0.074056,416559,351253
1128.38,0.075128,418532,352047
1131.99,0.076165,419956,352402
1135.6,0.077539,421946,352954
1139.2,0.078673,423881,353648
1143.99,0.080941,426786,354217
1147.58,0.081199,428617,355525
1151.17,0.082312,431169,356727
1154.75,0.083514,433579,357729
1158.33,0.084886,436264,358809
1161.91,0.086343,439132,359958
1165.48,0.088269,442389,361023
1169.04,0.090969,446101,361796
1173.79,0.094068,451929,363917
1177.34,0.096204,456026,365414
1180.9,0.098754,461306,367481
1184.44,0.099868,467657,371586
1187.99,0.101071,473969,375560
1191.52,0.101671,479856,379699
1195.06,0.100974,487372,386266
1199.76,0.100676,497347,394442
1203.29,0.100165,504311,400436
1206.81,0.099173,511507,407079
1210.33,0.098475,519078,413769
1213.84,0.098107,527163,420570
1217.35,0.097146,534208,427134
1220.85,0.096757,540472,432530
1225.51,0.096419,549929,440441
1229.01,0.095692,556888,446762
1232.5,0.094910,562180,451820
1235.98,0.094147,567975,457280
1239.46,0.093105,574815,463899
1242.94,0.092343,582782,471154
1246.41,0.091967,591476,478597
1251.03,0.091361,604016,489426
1254.5,0.091918,612289,495494
1257.96,0.092449,619125,500414
1261.41,0.092920,624551,504252
1264.86,0.093450,629900,507951
1268.31,0.093548,634345,511420
1271.75,0.094477,638574,513729
1276.33,0.094560,642499,516788
1279.76,0.094400,645905,519719
1283.19,0.094271,648307,521807
1286.61,0.093600,650446,524338
1290.03,0.093209,652132,526171
1293.44,0.092994,653907,527864
1296.85,0.092635,655963,529961
1301.39,0.092692,657349,531011
1304.8,0.092164,657558,531827
1308.19,0.092441,658515,532261
1311.58,0.092358,658804,532596
1314.97,0.093028,659011,531943
1318.36,0.093479,658272,530795
1321.73,0.093818,658022,530179
1326.23,0.094717,657870,528960
1329.6,0.095220,656482,527233
1332.97,0.096059,654926,524969
1336.33,0.097328,653727,522479
1339.69,0.098723,652497,519823
1343.04,0.099844,649913,516430
1346.39,0.102030,647671,512064
1349.73,0.103722,645338,508236
1354.18,0.107263,641175,500857
1357.52,0.108894,638376,496801
1360.85,0.111000,635805,492407
1364.17,0.112803,633413,488522
1367.49,0.115287,631026,483905
1370.81,0.117286,628050,479411
1374.12,0.119272,625034,474932
1378.54,0.121999,620272,468364
1381.84,0.124935,616892,462673
1385.14,0.128423,613613,456532
1388.43,0.131481,611526,451787
1391.72,0.136020,610663,446459
1395.01,0.140248,610634,442113
1398.29,0.144267,611700,438805
1402.66,0.151099,614051,433616
1405.93,0.155105,616268,431186
1409.2,0.160501,617795,426917
1412.46,0.164786,618872,423462
1415.72,0.168716,619795,420274
1418.98,0.172387,620495,417207
1422.23,0.175396,621087,414721
1426.56,0.179286,621375,411214
1429.8,0.182110,621616,408707
1433.04,0.184116,622129,407159
1436.27,0.186693,621526,404358
1439.5,0.188589,621113,402329
1442.72,0.191101,620921,399885
1445.94,0.193357,620270,397396
1450.23,0.196940,618860,393235
1453.44,0.200064,617697,389683
1456.64,0.202541,616264,386568
1459.85,0.205352,614413,382920
1463.04,0.208111,612307,379191
1466.24,0.211853,610032,374541
1469.43,0.215668,607345,369630
1473.67,0.221577,603789,362500
1476.85,0.227373,601175,356146
1480.02,0.233172,597737,349412
1483.19,0.239355,594479,342595
1486.36,0.245278,591232,336109
1489.52,0.249945,587853,330616
1492.68,0.253837,583875,325449
1496.89,0.255793,578062,320761
1500.03,0.256743,574159,317899
1503.18,0.256149,570285,316186
1506.32,0.254468,565444,314718
1509.45,0.254070,560571,312292
1512.58,0.251874,555821,311215
1515.71,0.249877,550344,309569
1519.87,0.247184,543983,307894
1522.99,0.244495,538764,306834
1526.1,0.242733,533692,305181
1529.21,0.239083,527902,304418
1532.32,0.236450,521886,302779
1535.42,0.233768,515888,301153
1538.51,0.230557,509987,299918
1541.6,0.228063,503936,298066
1545.72,0.223133,494694,295940
1548.8,0.221074,488378,293550
1551.88,0.218865,481832,291092
1554.95,0.216277,474989,288673
1558.02,0.215287,467818,284964
1561.08,0.214098,460730,281416
1564.15,0.213022,454170,278097
1568.22,0.211830,444181,272728
1571.27,0.211811,436947,268298
1574.32,0.210863,429598,264362
1577.36,0.208785,422039,260956
1580.4,0.208316,414375,256494
1583.43,0.207669,406354,251904
1586.46,0.205430,398475,248297
1590.49,0.203723,388982,243336
1593.51,0.202363,380708,238907
1596.53,0.199732,372727,235320
1599.54,0.197881,365060,231464
1602.55,0.196460,357543,227441
1605.55,0.194556,349495,223298
1608.55,0.191490,341154,219513
1612.54,0.189206,330877,214023
1615.53,0.187612,322904,209634
1618.51,0.187478,315116,204641
1621.49,0.187422,307217,199537
1624.47,0.184810,299481,195686
1627.44,0.184823,292112,190865
1630.41,0.183608,284245,186245
1634.36,0.181962,274079,180266
1637.32,0.180191,266916,176272
1640.27,0.181646,259612,170875
1643.22,0.180244,251804,166272
1646.16,0.179092,244348,161777
1649.1,0.178567,236703,156905
1652.04,0.176317,228171,152035
1655.95,0.174743,215408,144052
1658.88,0.168953,204937,138889
1661.8,0.163607,193395,132690
1664.72,0.155142,179728,125740
1667.63,0.143798,163642,117516
1670.54,0.130503,146312,108337
1673.44,0.113761,128451,98850
1677.31,0.092648,105080,84893
1680.21,0.082224,88906,73571
1683.1,0.079157,75033,62531
1685.99,0.076558,63520,53254
1688.87,0.082274,53714,44444
1691.75,0.085983,45653,37453
1694.62,0.093093,39137,31586
1697.49,0.094838,33776,27150
1701.31,0.104608,28175,22144

File: Column 1_050607_20150331_122646.csv
Method:,Column 1,,
Host Date-Time:,31/3/15 @ 12:26:46,,
Header Version:,1,,
System Temp (C):,33.98,,
Detector Temp (C):,34.84,,
Humidity (%):,1.66,,
Lamp PD:,3818,,
Shift Vector Coefficients:,-10.5391,0.0761263,-0.000134223,,
Pixel to Wavelength Coefficients:,1775.68,-0.916766,-0.000235065,,
Serial Number:,5510004,,
Scan Config Name:,Column 1,,
Scan Config Type:,Slew,,
Section 1,,
Start wavelength (nm):,900,,
End wavelength (nm):,1700,,
Pattern Pixel Width (nm):,   7.03,,,,
Exposure (ms):,  0.635,,,,
Digital Resolution:,228,,
Num Repeats:,6,,
PGA Gain:,64,,
Total Measurement Time in sec:,  2.669,,
Wavelength (nm),Absorbance (AU),Reference Signal (unitless),Sample Signal (unitless)
901.51,0.068848,108485,92581
905.376,0.075606,121306,101924
909.237,0.078302,131909,110147
913.095,0.078207,143299,119684
916.948,0.078708,156982,130961
922.079,0.079780,179937,149741
925.923,0.081288,200504,166278
929.762,0.082166,222660,184279
933.597,0.082252,244426,202253
937.427,0.080818,263972,219149
941.254,0.080568,281845,234122
945.076,0.079844,297271,247348
950.165,0.077695,315605,263906
953.978,0.077286,328029,274553
957.786,0.077679,340470,284708
961.59,0.077318,352317,294860
965.389,0.077685,363056,303591
969.185,0.077260,373162,312347
972.976,0.077839,382632,319847
976.763,0.078604,391202,326435
981.806,0.079038,400190,333602
985.583,0.079945,406088,337812
989.355,0.080015,410162,341146
993.124,0.080024,412868,343390
996.888,0.081045,414263,343741
1000.65,0.081505,415476,344382
1004.4,0.083130,415479,343099
1009.41,0.084098,414358,341411
1013.15,0.084310,412923,340063
1016.89,0.084785,411526,338542
1020.63,0.084530,409066,336716
1024.36,0.084980,406777,334485
1028.09,0.084700,404427,332767
1031.82,0.084375,401911,330944
1036.78,0.084059,398410,328300
1040.49,0.083674,396204,326772
1044.2,0.083217,394236,325491
1047.91,0.083876,392042,323189
1051.61,0.083242,389823,321829
1055.31,0.082609,388234,320985
1059,0.082357,387599,320646
1063.92,0.081121,386688,320804
1067.61,0.081180,386598,320686
1071.29,0.080414,387377,321899
1074.96,0.080513,388536,322789
1078.63,0.079468,389855,324665
1082.3,0.078238,391215,326721
1085.96,0.077467,393215,328975
1090.84,0.077221,396270,331719
1094.49,0.076371,398760,334457
1098.14,0.075797,400987,336770
1101.79,0.075833,403477,338833
1105.43,0.075200,406116,341547
1109.06,0.075021,407701,343021
1112.7,0.073954,409859,345685
1117.53,0.072715,412494,348901
1121.15,0.073764,414909,350097
1124.77,0.074809,416559,350645
1128.38,0.075048,418532,352112
1131.99,0.076085,419956,352467
1135.6,0.077755,421946,352778
1139.2,0.079086,423881,353312
1143.99,0.081193,426786,354011
1147.58,0.081335,428617,355414
1151.17,0.082386,431169,356666
1154.75,0.083778,433579,357512
1158.33,0.084886,436264,358809
1161.91,0.086401,439132,359910
1165.48,0.088377,442389,360934
1169.04,0.090316,446101,362341
1173.79,0.094632,451929,363445
1177.34,0.096565,456026,365111
1180.9,0.098249,461306,367909
1184.44,0.100509,467657,371038
1187.99,0.100905,473969,375703
1191.52,0.101254,479856,380064
1195.06,0.101748,487372,385578
1199.76,0.100552,497347,394555
1203.29,0.099565,504311,400990
1206.81,0.099271,511507,406987
1210.33,0.098784,519078,413474
1213.84,0.098421,527163,420266
1217.35,0.097609,534208,426679
1220.85,0.096457,540472,432829
1225.51,0.095974,549929,440892
1229.01,0.095661,556888,446793
1232.5,0.094546,562180,452199
1235.98,0.094344,567975,457073
1239.46,0.093287,574815,463704
1242.94,0.091970,582782,471559
1246.41,0.092335,591476,478192
1251.03,0.091882,604016,488840
1254.5,0.091962,612289,495444
1257.96,0.092052,619125,500872
1261.41,0.092691,624551,504518
1264.86,0.093617,629900,507755
1268.31,0.093861,634345,511051
1271.75,0.094673,638574,513497
1276.33,0.094593,642499,516749
1279.76,0.094603,645905,519476
1283.19,0.094010,648307,522121
1286.61,0.093646,650446,524282
1290.03,0.093461,652132,525865
1293.44,0.092707,653907,528213
1296.85,0.092588,655963,530019
1301.39,0.092159,657349,531664
1304.8,0.092823,657558,531020
1308.19,0.092711,658515,531930
1311.58,0.092930,658804,531896
1314.97,0.093326,659011,531577
1318.36,0.093405,658272,530885
1321.73,0.093666,658022,530365
1326.23,0.094560,657870,529151
1329.6,0.095274,656482,527168
1332.97,0.096115,654926,524901
1336.33,0.096983,653727,522894
1339.69,0.098411,652497,520197
1343.04,0.099973,649913,516276
1346.39,0.102142,647671,511932
1349.73,0.104014,645338,507894
1354.18,0.107072,641175,501077
1357.52,0.109100,638376,496565
1360.85,0.111047,635805,492353
1364.17,0.112798,633413,488527
1367.49,0.115121,631026,484090
1370.81,0.117325,628050,479368
1374.12,0.119496,625034,474687
1378.54,0.122263,620272,468079
1381.84,0.125033,616892,462569
1385.14,0.128413,613613,456543
1388.43,0.131859,611526,451394
1391.72,0.136039,610663,446440
1395.01,0.139971,610634,442395
1398.29,0.144512,611700,438557
1402.66,0.150455,614051,434260
1405.93,0.156057,616268,430242
1409.2,0.160387,617795,427029
1412.46,0.165013,618872,423241
1415.72,0.168508,619795,420475
1418.98,0.172435,620495,417161
1422.23,0.175810,621087,414326
1426.56,0.179340,621375,411163
1429.8,0.181782,621616,409016
1433.04,0.184539,622129,406763
1436.27,0.186403,621526,404628
1439.5,0.188581,621113,402337
1442.72,0.191198,620921,399796
1445.94,0.193941,620270,396862
1450.23,0.197639,618860,392603
1453.44,0.199845,617697,389880
1456.64,0.202875,616264,386271
1459.85,0.205217,614413,383039
1463.04,0.208112,612307,379190
1466.24,0.211776,610032,374608
1469.43,0.215319,607345,369927
1473.67,0.221725,603789,362377
1476.85,0.226855,601175,356571
1480.02,0.233589,597737,349077
1483.19,0.239168,594479,342743
1486.36,0.245450,591232,335976
1489.52,0.250365,587853,330296
1492.68,0.253708,583875,325546
1496.89,0.255221,578062,321184
1500.03,0.256238,574159,318269
1503.18,0.256480,570285,315945
1506.32,0.255136,565444,314234
1509.45,0.254134,560571,312246
1512.58,0.252685,555821,310635
1515.71,0.249943,550344,309522
1519.87,0.246768,543983,308189
1522.99,0.244180,538764,307057
1526.1,0.241865,533692,305792
1529.21,0.238417,527902,304885
1532.32,0.236319,521886,302870
1535.42,0.233405,515888,301405
1538.51,0.230785,509987,299760
1541.6,0.227476,503936,298469
1545.72,0.223809,494694,295480
1548.8,0.220500,488378,293938
1551.88,0.219186,481832,290877
1554.95,0.216490,474989,288532
1558.02,0.214772,467818,285302
1561.08,0.214031,460730,281459
1564.15,0.213317,454170,277908
1568.22,0.212520,444181,272295
1571.27,0.211747,436947,268338
1574.32,0.211243,429598,264131
1577.36,0.210434,422039,259967
1580.4,0.208681,414375,256279
1583.43,0.206796,406354,252411
1586.46,0.205755,398475,248111
1590.49,0.203151,388982,243657
1593.51,0.201471,380708,239398
1596.53,0.199638,372727,235371
1599.54,0.197586,365060,231621
1602.55,0.195933,357543,227717
1605.55,0.195047,349495,223046
1608.55,0.192536,341154,218985
1612.54,0.189505,330877,213876
1615.53,0.188124,322904,209387
1618.51,0.188187,315116,204307
1621.49,0.186800,307217,199823
1624.47,0.185220,299481,195501
1627.44,0.183528,292112,191435
1630.41,0.183464,284245,186307
1634.36,0.182709,274079,179956
1637.32,0.182229,266916,175447
1640.27,0.181532,259612,170920
1643.22,0.180220,251804,166281
1646.16,0.178647,244348,161943
1649.1,0.177025,236703,157463
1652.04,0.175523,228171,152313
1655.95,0.173800,215408,144365
1658.88,0.169704,204937,138649
1661.8,0.164738,193395,132345
1664.72,0.155962,179728,125503
1667.63,0.145627,163642,117022
1670.54,0.129494,146312,108589
1673.44,0.113998,128451,98796
1677.31,0.095445,105080,84348
1680.21,0.081487,88906,73696
1683.1,0.074686,75033,63178
1685.99,0.080458,63520,52778
1688.87,0.083429,53714,44326
1691.75,0.085276,45653,37514
1694.62,0.087356,39137,32006
1697.49,0.091714,33776,27346
1701.31,0.109360,28175,21903

File: Column 1_050607_20150331_122649.csv
Method:,Column 1,,
Host Date-Time:,31/3/15 @ 12:26:49,,
Header Version:,1,,
System Temp (C):,34.01,,
Detector Temp (C):,34.84,,
Humidity (%):,1.66,,
Lamp PD:,3818,,
Shift Vector Coefficients:,-10.5391,0.0761263,-0.000134223,,
Pixel to Wavelength Coefficients:,1775.68,-0.916766,-0.000235065,,
Serial Number:,5510004,,
Scan Config Name:,Column 1,,
Scan Config Type:,Slew,,
Section 1,,
Start wavelength (nm):,900,,
End wavelength (nm):,1700,,
Pattern Pixel Width (nm):,   7.03,,,,
Exposure (ms):,  0.635,,,,
Digital Resolution:,228,,
Num Repeats:,6,,
PGA Gain:,64,,
Total Measurement Time in sec:,  2.672,,
Wavelength (nm),Absorbance (AU),Reference Signal (unitless),Sample Signal (unitless)
901.51,0.068098,108485,92741
905.376,0.076493,121306,101716
909.237,0.075535,131909,110851
913.095,0.077000,143299,120017
916.948,0.078837,156982,130922
922.079,0.079783,179937,149740
925.923,0.081158,200504,166328
929.762,0.082025,222660,184339
933.597,0.081373,244426,202663
937.427,0.080256,263972,219433
941.254,0.079782,281845,234546
945.076,0.078603,297271,248056
950.165,0.077637,315605,263941
953.978,0.077813,328029,274220
957.786,0.077225,340470,285006
961.59,0.078103,352317,294327
965.389,0.077998,363056,303372
969.185,0.077099,373162,312463
972.976,0.077718,382632,319936
976.763,0.078521,391202,326498
981.806,0.078828,400190,333763
985.583,0.079411,406088,338228
989.355,0.079815,410162,341303
993.124,0.080080,412868,343345
996.888,0.080643,414263,344059
1000.65,0.081932,415476,344044
1004.4,0.082471,415479,343620
1009.41,0.083900,414358,341567
1013.15,0.084602,412923,339834
1016.89,0.084094,411526,339081
1020.63,0.084290,409066,336902
1024.36,0.083944,406777,335284
1028.09,0.084663,404427,332795
1031.82,0.084230,401911,331055
1036.78,0.084137,398410,328241
1040.49,0.083815,396204,326666
1044.2,0.083806,394236,325050
1047.91,0.083266,392042,323643
1051.61,0.083402,389823,321711
1055.31,0.082907,388234,320765
1059,0.081855,387599,321017
1063.92,0.081304,386688,320669
1067.61,0.080769,386598,320989
1071.29,0.080034,387377,322181
1074.96,0.079885,388536,323256
1078.63,0.079091,389855,324947
1082.3,0.078032,391215,326876
1085.96,0.077528,393215,328929
1090.84,0.076678,396270,332134
1094.49,0.076236,398760,334561
1098.14,0.075082,400987,337325
1101.79,0.075158,403477,339360
1105.43,0.074533,406116,342072
1109.06,0.074222,407701,343653
1112.7,0.073663,409859,345917
1117.53,0.073759,412494,348064
1121.15,0.073683,414909,350163
1124.77,0.074170,416559,351161
1128.38,0.074880,418532,352248
1131.99,0.076069,419956,352480
1135.6,0.077487,421946,352996
1139.2,0.078717,423881,353612
1143.99,0.080970,426786,354193
1147.58,0.081891,428617,354959
1151.17,0.082108,431169,356894
1154.75,0.083843,433579,357458
1158.33,0.084390,436264,359219
1161.91,0.086825,439132,359559
1165.48,0.088901,442389,360498
1169.04,0.090713,446101,362010
1173.79,0.094118,451929,363875
1177.34,0.096422,456026,365231
1180.9,0.098157,461306,367987
1184.44,0.099783,467657,371659
1187.99,0.100973,473969,375644
1191.52,0.100752,479856,380504
1195.06,0.100954,487372,386284
1199.76,0.100278,497347,394804
1203.29,0.099662,504311,400900
1206.81,0.099142,511507,407108
1210.33,0.098297,519078,413938
1213.84,0.097675,527163,420988
1217.35,0.097521,534208,426766
1220.85,0.096535,540472,432751
1225.51,0.095994,549929,440872
1229.01,0.095175,556888,447294
1232.5,0.094841,562180,451892
1235.98,0.094642,567975,456759
1239.46,0.093166,574815,463834
1242.94,0.092486,582782,470999
1246.41,0.091665,591476,478930
1251.03,0.091601,604016,489156
1254.5,0.091531,612289,495936
1257.96,0.092377,619125,500497
1261.41,0.092694,624551,504515
1264.86,0.093423,629900,507982
1268.31,0.093551,634345,511416
1271.75,0.094321,638574,513914
1276.33,0.094763,642499,516547
1279.76,0.094835,645905,519199
1283.19,0.093873,648307,522285
1286.61,0.093369,650446,524617
1290.03,0.093465,652132,525861
1293.44,0.092804,653907,528095
1296.85,0.092815,655963,529742
1301.39,0.092101,657349,531735
1304.8,0.092607,657558,531284
1308.19,0.092431,658515,532273
1311.58,0.092756,658804,532108
1314.97,0.093241,659011,531682
1318.36,0.093515,658272,530751
1321.73,0.093908,658022,530069
1326.23,0.094611,657870,529089
1329.6,0.095051,656482,527439
1332.97,0.096351,654926,524616
1336.33,0.096939,653727,522947
1339.69,0.098401,652497,520208
1343.04,0.100262,649913,515933
1346.39,0.101946,647671,512163
1349.73,0.103716,645338,508243
1354.18,0.106849,641175,501335
1357.52,0.108836,638376,496868
1360.85,0.110550,635805,492917
1364.17,0.112649,633413,488695
1367.49,0.115155,631026,484052
1370.81,0.117473,628050,479205
1374.12,0.119671,625034,474496
1378.54,0.121919,620272,468450
1381.84,0.124759,616892,462860
1385.14,0.128469,613613,456484
1388.43,0.131774,611526,451482
1391.72,0.135825,610663,446660
1395.01,0.140120,610634,442243
1398.29,0.143941,611700,439134
1402.66,0.150904,614051,433811
1405.93,0.155594,616268,430701
1409.2,0.160531,617795,426887
1412.46,0.164727,618872,423520
1415.72,0.168355,619795,420623
1418.98,0.171992,620495,417586
1422.23,0.175513,621087,414610
1426.56,0.179317,621375,411185
1429.8,0.181710,621616,409084
1433.04,0.184449,622129,406847
1436.27,0.186370,621526,404659
1439.5,0.188376,621113,402527
1442.72,0.190861,620921,400106
1445.94,0.193549,620270,397221
1450.23,0.197019,618860,393164
1453.44,0.200148,617697,389608
1456.64,0.202768,616264,386366
1459.85,0.204832,614413,383379
1463.04,0.207928,612307,379351
1466.24,0.211281,610032,375035
1469.43,0.215121,607345,370096
1473.67,0.221245,603789,362777
1476.85,0.227238,601175,356257
1480.02,0.233079,597737,349487
1483.19,0.239679,594479,342340
1486.36,0.245796,591232,335708
1489.52,0.250164,587853,330449
1492.68,0.253196,583875,325930
1496.89,0.255518,578062,320964
1500.03,0.256186,574159,318307
1503.18,0.255869,570285,316390
1506.32,0.255406,565444,314039
1509.45,0.254281,560571,312140
1512.58,0.252295,555821,310914
1515.71,0.249735,550344,309670
1519.87,0.246915,543983,308085
1522.99,0.244910,538764,306541
1526.1,0.241545,533692,306017
1529.21,0.238889,527902,304554
1532.32,0.235743,521886,303272
1535.42,0.233481,515888,301352
1538.51,0.229342,509987,300758
1541.6,0.227834,503936,298223
1545.72,0.223579,494694,295636
1548.8,0.220780,488378,293749
1551.88,0.218463,481832,291362
1554.95,0.216124,474989,288775
1558.02,0.214367,467818,285568
1561.08,0.213837,460730,281585
1564.15,0.212977,454170,278126
1568.22,0.211638,444181,272849
1571.27,0.211061,436947,268762
1574.32,0.211291,429598,264102
1577.36,0.209533,422039,260507
1580.4,0.208818,414375,256198
1583.43,0.206487,406354,252591
1586.46,0.205110,398475,248480
1590.49,0.203295,388982,243576
1593.51,0.201488,380708,239389
1596.53,0.199367,372727,235518
1599.54,0.197721,365060,231549
1602.55,0.195712,357543,227833
1605.55,0.193981,349495,223594
1608.55,0.190790,341154,219867
1612.54,0.190250,330877,213509
1615.53,0.187411,322904,209731
1618.51,0.186943,315116,204893
1621.49,0.187067,307217,199700
1624.47,0.185385,299481,195427
1627.44,0.183188,292112,191585
1630.41,0.183249,284245,186399
1634.36,0.181752,274079,180353
1637.32,0.181531,266916,175729
1640.27,0.180740,259612,171232
1643.22,0.178221,251804,167048
1646.16,0.178507,244348,161995
1649.1,0.178398,236703,156966
1652.04,0.175951,228171,152163
1655.95,0.174023,215408,144291
1658.88,0.168787,204937,138942
1661.8,0.163934,193395,132590
1664.72,0.157254,179728,125130
1667.63,0.144001,163642,117461
1670.54,0.129074,146312,108694
1673.44,0.113787,128451,98844
1677.31,0.091968,105080,85026
1680.21,0.083413,88906,73370
1683.1,0.075312,75033,63087
1685.99,0.078684,63520,52994
1688.87,0.080714,53714,44604
1691.75,0.087924,45653,37286
1694.62,0.086489,39137,32070
1697.49,0.089939,33776,27458
1701.31,0.099073,28175,22428