Folder: textile_sorting_NIRSCAN_/samples/wool/wool-000811 (part 14)

File: Column 1_050538_20150331_115415.csv
Method:,Column 1,,
Host Date-Time:,31/3/15 @ 11:54:15,,
Header Version:,1,,
System Temp (C):,31.95,,
Detector Temp (C):,30.27,,
Humidity (%):,3.32,,
Lamp PD:,3825,,
Shift Vector Coefficients:,-10.5391,0.0761263,-0.000134223,,
Pixel to Wavelength Coefficients:,1775.68,-0.916766,-0.000235065,,
Serial Number:,5510004,,
Scan Config Name:,Column 1,,
Scan Config Type:,Slew,,
Section 1,,
Start wavelength (nm):,900,,
End wavelength (nm):,1700,,
Pattern Pixel Width (nm):,   7.03,,,,
Exposure (ms):,  0.635,,,,
Digital Resolution:,228,,
Num Repeats:,6,,
PGA Gain:,64,,
Total Measurement Time in sec:,  2.733,,
Wavelength (nm),Absorbance (AU),Reference Signal (unitless),Sample Signal (unitless)
901.51,0.042653,108485,98337
905.376,0.047845,121306,108652
909.237,0.051336,131909,117203
913.095,0.051162,143299,127374
916.948,0.049561,156982,140052
922.079,0.050268,179937,160270
925.923,0.051008,200504,178285
929.762,0.051210,222660,197894
933.597,0.052192,244426,216748
937.427,0.051980,263972,234195
941.254,0.053180,281845,249362
945.076,0.052410,297271,263477
950.165,0.052691,315605,279546
953.978,0.051970,328029,291033
957.786,0.053706,340470,300866
961.59,0.053887,352317,311205
965.389,0.053776,363056,320773
969.185,0.054798,373162,328927
972.976,0.054650,382632,337389
976.763,0.055584,391202,344205
981.806,0.056014,400190,351765
985.583,0.057185,406088,355988
989.355,0.057387,410162,359392
993.124,0.057522,412868,361651
996.888,0.058818,414263,361791
1000.65,0.059743,415476,362079
1004.4,0.060089,415479,361793
1009.41,0.061324,414358,359792
1013.15,0.062498,412923,357578
1016.89,0.062895,411526,356043
1020.63,0.063227,409066,353644
1024.36,0.062500,406777,352254
1028.09,0.061922,404427,350686
1031.82,0.061940,401911,348490
1036.78,0.061370,398410,345908
1040.49,0.060624,396204,344584
1044.2,0.060610,394236,342883
1047.91,0.059737,392042,341661
1051.61,0.058917,389823,340369
1055.31,0.058395,388234,339390
1059,0.057730,387599,339354
1063.92,0.056767,386688,339308
1067.61,0.055639,386598,340111
1071.29,0.054858,387377,341410
1074.96,0.054221,388536,342934
1078.63,0.053521,389855,344653
1082.3,0.052539,391215,346638
1085.96,0.051930,393215,348899
1090.84,0.051042,396270,352330
1094.49,0.050970,398760,354602
1098.14,0.050100,400987,357298
1101.79,0.050137,403477,359486
1105.43,0.049964,406116,361981
1109.06,0.049560,407701,363732
1112.7,0.050107,409859,365197
1117.53,0.050133,412494,367523
1121.15,0.050819,414909,369091
1124.77,0.050956,416559,370442
1128.38,0.052652,418532,370746
1131.99,0.054666,419956,370286
1135.6,0.056156,421946,370767
1139.2,0.058499,423881,370463
1143.99,0.061326,426786,370582
1147.58,0.062449,428617,371211
1151.17,0.063994,431169,372095
1154.75,0.065642,433579,372757
1158.33,0.067552,436264,373420
1161.91,0.069694,439132,374025
1165.48,0.072932,442389,374001
1169.04,0.075795,446101,374661
1173.79,0.079806,451929,376066
1177.34,0.082676,456026,376976
1180.9,0.085563,461306,378814
1184.44,0.087386,467657,382421
1187.99,0.088116,473969,386931
1191.52,0.087503,479856,392291
1195.06,0.086728,487372,399147
1199.76,0.085694,497347,408287
1203.29,0.084420,504311,415220
1206.81,0.082812,511507,422707
1210.33,0.081310,519078,430450
1213.84,0.080718,527163,437751
1217.35,0.079641,534208,444702
1220.85,0.078347,540472,451259
1225.51,0.077105,549929,460470
1229.01,0.076342,556888,467117
1232.5,0.075453,562180,472522
1235.98,0.074714,567975,478206
1239.46,0.073547,574815,485267
1242.94,0.072416,582782,493276
1246.41,0.071562,591476,501620
1251.03,0.071157,604016,512733
1254.5,0.071243,612289,519653
1257.96,0.071537,619125,525099
1261.41,0.072004,624551,529132
1264.86,0.072423,629900,533149
1268.31,0.073243,634345,535899
1271.75,0.074221,638574,538258
1276.33,0.074437,642499,541297
1279.76,0.074492,645905,544098
1283.19,0.073630,648307,547206
1286.61,0.073453,650446,549235
1290.03,0.073160,652132,551030
1293.44,0.072646,653907,553184
1296.85,0.072093,655963,555631
1301.39,0.071981,657349,556948
1304.8,0.072268,657558,556757
1308.19,0.072355,658515,557456
1311.58,0.072754,658804,557189
1314.97,0.073229,659011,556755
1318.36,0.073995,658272,555150
1321.73,0.074284,658022,554570
1326.23,0.075333,657870,553104
1329.6,0.076360,656482,550634
1332.97,0.077292,654926,548151
1336.33,0.078957,653727,545054
1339.69,0.081150,652497,541288
1343.04,0.082822,649913,537073
1346.39,0.085377,647671,532081
1349.73,0.087949,645338,527034
1354.18,0.091424,641175,519461
1357.52,0.093880,638376,514276
1360.85,0.096591,635805,509018
1364.17,0.098989,633413,504311
1367.49,0.101555,631026,499450
1370.81,0.104370,628050,493883
1374.12,0.107202,625034,488317
1378.54,0.111053,620272,480318
1381.84,0.115051,616892,473324
1385.14,0.119635,613613,465864
1388.43,0.124688,611526,458909
1391.72,0.130196,610663,452486
1395.01,0.136459,610634,445987
1398.29,0.142823,611700,440266
1402.66,0.151808,614051,432909
1405.93,0.158328,616268,427998
1409.2,0.165497,617795,422034
1412.46,0.171981,618872,416505
1415.72,0.177302,619795,412046
1418.98,0.181237,620495,408791
1422.23,0.186146,621087,404582
1426.56,0.190502,621375,400730
1429.8,0.194503,621616,397209
1433.04,0.197138,622129,395132
1436.27,0.199297,621526,392792
1439.5,0.201948,621113,390142
1442.72,0.204749,620921,387514
1445.94,0.206964,620270,385138
1450.23,0.210873,618860,380820
1453.44,0.213577,617697,377745
1456.64,0.216715,616264,374155
1459.85,0.218896,614413,371163
1463.04,0.221710,612307,367502
1466.24,0.224723,610032,363605
1469.43,0.227722,607345,359512
1473.67,0.233055,603789,353045
1476.85,0.237990,601175,347545
1480.02,0.243179,597737,341453
1483.19,0.249846,594479,334419
1486.36,0.254680,591232,328911
1489.52,0.260033,587853,323025
1492.68,0.263728,583875,318121
1496.89,0.266223,578062,313149
1500.03,0.267826,574159,309889
1503.18,0.267895,570285,307749
1506.32,0.267664,565444,305299
1509.45,0.265877,560571,303916
1512.58,0.264990,555821,301957
1515.71,0.262245,550344,300877
1519.87,0.259534,543983,299262
1522.99,0.255877,538764,298897
1526.1,0.253818,533692,297490
1529.21,0.251069,527902,296131
1532.32,0.247718,521886,295024
1535.42,0.244715,515888,293657
1538.51,0.240938,509987,292834
1541.6,0.237235,503936,291837
1545.72,0.233586,494694,288902
1548.8,0.230145,488378,287482
1551.88,0.227131,481832,285604
1554.95,0.224403,474989,283322
1558.02,0.222415,467818,280325
1561.08,0.220581,460730,277246
1564.15,0.220485,454170,273359
1568.22,0.219273,444181,268094
1571.27,0.218412,436947,264251
1574.32,0.217173,429598,260549
1577.36,0.215176,422039,257144
1580.4,0.213534,414375,253431
1583.43,0.212552,406354,249088
1586.46,0.210344,398475,245503
1590.49,0.207406,388982,241281
1593.51,0.205163,380708,237372
1596.53,0.203318,372727,233385
1599.54,0.200265,365060,230197
1602.55,0.197879,357543,226699
1605.55,0.195146,349495,222995
1608.55,0.193402,341154,218549
1612.54,0.190912,330877,213184
1615.53,0.189222,322904,208858
1618.51,0.187177,315116,204783
1621.49,0.185372,307217,200481
1624.47,0.184410,299481,195866
1627.44,0.182857,292112,191731
1630.41,0.181640,284245,187091
1634.36,0.180255,274079,180976
1637.32,0.179082,266916,176723
1640.27,0.177800,259612,172395
1643.22,0.176747,251804,167616
1646.16,0.175448,244348,163140
1649.1,0.174432,236703,158406
1652.04,0.174689,228171,152606
1655.95,0.173286,215408,144536
1658.88,0.171836,204937,137970
1661.8,0.170033,193395,130741
1664.72,0.167879,179728,122106
1667.63,0.163094,163642,112409
1670.54,0.158818,146312,101499
1673.44,0.154698,128451,89958
1677.31,0.152318,105080,73995
1680.21,0.150584,88906,62856
1683.1,0.152536,75033,52810
1685.99,0.162191,63520,43724
1688.87,0.167473,53714,36527
1691.75,0.170116,45653,30857
1694.62,0.176413,39137,26072
1697.49,0.172448,33776,22707
1701.31,0.178022,28175,18700

File: Column 1_050538_20150331_115418.csv
Method:,Column 1,,
Host Date-Time:,31/3/15 @ 11:54:18,,
Header Version:,1,,
System Temp (C):,31.93,,
Detector Temp (C):,30.27,,
Humidity (%):,3.32,,
Lamp PD:,3825,,
Shift Vector Coefficients:,-10.5391,0.0761263,-0.000134223,,
Pixel to Wavelength Coefficients:,1775.68,-0.916766,-0.000235065,,
Serial Number:,5510004,,
Scan Config Name:,Column 1,,
Scan Config Type:,Slew,,
Section 1,,
Start wavelength (nm):,900,,
End wavelength (nm):,1700,,
Pattern Pixel Width (nm):,   7.03,,,,
Exposure (ms):,  0.635,,,,
Digital Resolution:,228,,
Num Repeats:,6,,
PGA Gain:,64,,
Total Measurement Time in sec:,  2.675,,
Wavelength (nm),Absorbance (AU),Reference Signal (unitless),Sample Signal (unitless)
901.51,0.044827,108485,97846
905.376,0.050165,121306,108073
909.237,0.051436,131909,117176
913.095,0.051012,143299,127418
916.948,0.051120,156982,139550
922.079,0.049194,179937,160667
925.923,0.051271,200504,178177
929.762,0.052178,222660,197453
933.597,0.052758,244426,216466
937.427,0.052450,263972,233942
941.254,0.052764,281845,249601
945.076,0.053065,297271,263080
950.165,0.052608,315605,279599
953.978,0.053230,328029,290190
957.786,0.053722,340470,300855
961.59,0.053616,352317,311399
965.389,0.053862,363056,320709
969.185,0.054014,373162,329521
972.976,0.055662,382632,336604
976.763,0.056065,391202,343824
981.806,0.056664,400190,351239
985.583,0.056904,406088,356218
989.355,0.057828,410162,359027
993.124,0.058140,412868,361136
996.888,0.058888,414263,361733
1000.65,0.059895,415476,361952
1004.4,0.060155,415479,361738
1009.41,0.062257,414358,359020
1013.15,0.062594,412923,357499
1016.89,0.063575,411526,355486
1020.63,0.062975,409066,353849
1024.36,0.062861,406777,351962
1028.09,0.062556,404427,350174
1031.82,0.062013,401911,348431
1036.78,0.061572,398410,345747
1040.49,0.060266,396204,344868
1044.2,0.060225,394236,343187
1047.91,0.060636,392042,340955
1051.61,0.059206,389823,340143
1055.31,0.058790,388234,339081
1059,0.058216,387599,338974
1063.92,0.057288,386688,338901
1067.61,0.055885,386598,339918
1071.29,0.054788,387377,341465
1074.96,0.054478,388536,342731
1078.63,0.053737,389855,344482
1082.3,0.053159,391215,346144
1085.96,0.051745,393215,349048
1090.84,0.050711,396270,352598
1094.49,0.051174,398760,354436
1098.14,0.050449,400987,357011
1101.79,0.050175,403477,359454
1105.43,0.050503,406116,361532
1109.06,0.049572,407701,363722
1112.7,0.049855,409859,365409
1117.53,0.050002,412494,367634
1121.15,0.050885,414909,369035
1124.77,0.051386,416559,370076
1128.38,0.052759,418532,370655
1131.99,0.053920,419956,370923
1135.6,0.056299,421946,370645
1139.2,0.058542,423881,370426
1143.99,0.061656,426786,370300
1147.58,0.062924,428617,370805
1151.17,0.063910,431169,372167
1154.75,0.065548,433579,372838
1158.33,0.067872,436264,373145
1161.91,0.069481,439132,374209
1165.48,0.072750,442389,374157
1169.04,0.076074,446101,374420
1173.79,0.079878,451929,376004
1177.34,0.082654,456026,376995
1180.9,0.085361,461306,378990
1184.44,0.087094,467657,382678
1187.99,0.088063,473969,386979
1191.52,0.087254,479856,392516
1195.06,0.087087,487372,398817
1199.76,0.085301,497347,408657
1203.29,0.084491,504311,415152
1206.81,0.082817,511507,422702
1210.33,0.081518,519078,430244
1213.84,0.080886,527163,437581
1217.35,0.079834,534208,444505
1220.85,0.078642,540472,450953
1225.51,0.077029,549929,460551
1229.01,0.076296,556888,467167
1232.5,0.075324,562180,472663
1235.98,0.074976,567975,477918
1239.46,0.073420,574815,485409
1242.94,0.072573,582782,493098
1246.41,0.071850,591476,501288
1251.03,0.071034,604016,512878
1254.5,0.071053,612289,519880
1257.96,0.071662,619125,524948
1261.41,0.071876,624551,529288
1264.86,0.073003,629900,532438
1268.31,0.073467,634345,535622
1271.75,0.074338,638574,538113
1276.33,0.074849,642499,540783
1279.76,0.074380,645905,544238
1283.19,0.073800,648307,546992
1286.61,0.073349,650446,549366
1290.03,0.073083,652132,551128
1293.44,0.072664,653907,553162
1296.85,0.072567,655963,555025
1301.39,0.072197,657349,556672
1304.8,0.072158,657558,556898
1308.19,0.072424,658515,557368
1311.58,0.072638,658804,557338
1314.97,0.073441,659011,556483
1318.36,0.074091,658272,555027
1321.73,0.074254,658022,554609
1326.23,0.075732,657870,552597
1329.6,0.076692,656482,550213
1332.97,0.077575,654926,547794
1336.33,0.078993,653727,545009
1339.69,0.080824,652497,541695
1343.04,0.082756,649913,537155
1346.39,0.085329,647671,532139
1349.73,0.087762,645338,527261
1354.18,0.091396,641175,519494
1357.52,0.093967,638376,514173
1360.85,0.096635,635805,508966
1364.17,0.098663,633413,504689
1367.49,0.101700,631026,499284
1370.81,0.104066,628050,494229
1374.12,0.107321,625034,488183
1378.54,0.110517,620272,480912
1381.84,0.115145,616892,473221
1385.14,0.119876,613613,465606
1388.43,0.124868,611526,458719
1391.72,0.130775,610663,451884
1395.01,0.136940,610634,445493
1398.29,0.143086,611700,440000
1402.66,0.152083,614051,432635
1405.93,0.158945,616268,427390
1409.2,0.165077,617795,422442
1412.46,0.171386,618872,417076
1415.72,0.176769,619795,412552
1418.98,0.181627,620495,408424
1422.23,0.186033,621087,404687
1426.56,0.190605,621375,400635
1429.8,0.194093,621616,397584
1433.04,0.197025,622129,395235
1436.27,0.199612,621526,392507
1439.5,0.202147,621113,389963
1442.72,0.204259,620921,387951
1445.94,0.206920,620270,385177
1450.23,0.210923,618860,380776
1453.44,0.213967,617697,377406
1456.64,0.216191,616264,374607
1459.85,0.219570,614413,370587
1463.04,0.221798,612307,367427
1466.24,0.224918,610032,363442
1469.43,0.228532,607345,358842
1473.67,0.232646,603789,353378
1476.85,0.237507,601175,347932
1480.02,0.243427,597737,341258
1483.19,0.249687,594479,334541
1486.36,0.255008,591232,328662
1489.52,0.260513,587853,322668
1492.68,0.263763,583875,318095
1496.89,0.266562,578062,312905
1500.03,0.267518,574159,310109
1503.18,0.268076,570285,307621
1506.32,0.267535,565444,305390
1509.45,0.266037,560571,303804
1512.58,0.264830,555821,302068
1515.71,0.262252,550344,300872
1519.87,0.259058,543983,299590
1522.99,0.256882,538764,298206
1526.1,0.254119,533692,297284
1529.21,0.250315,527902,296646
1532.32,0.248022,521886,294818
1535.42,0.244412,515888,293862
1538.51,0.240961,509987,292818
1541.6,0.237822,503936,291443
1545.72,0.233604,494694,288890
1548.8,0.229780,488378,287724
1551.88,0.227232,481832,285538
1554.95,0.224399,474989,283325
1558.02,0.222263,467818,280423
1561.08,0.221445,460730,276695
1564.15,0.220690,454170,273230
1568.22,0.218810,444181,268380
1571.27,0.218194,436947,264384
1574.32,0.216923,429598,260699
1577.36,0.215861,422039,256739
1580.4,0.214405,414375,252923
1583.43,0.212409,406354,249170
1586.46,0.210732,398475,245284
1590.49,0.207837,388982,241042
1593.51,0.205682,380708,237088
1596.53,0.203370,372727,233357
1599.54,0.201434,365060,229578
1602.55,0.198793,357543,226222
1605.55,0.196082,349495,222515
1608.55,0.194006,341154,218245
1612.54,0.190370,330877,213450
1615.53,0.188281,322904,209311
1618.51,0.187427,315116,204665
1621.49,0.186367,307217,200022
1624.47,0.183956,299481,196071
1627.44,0.182726,292112,191789
1630.41,0.181343,284245,187219
1634.36,0.179957,274079,181100
1637.32,0.178858,266916,176814
1640.27,0.177553,259612,172493
1643.22,0.176789,251804,167600
1646.16,0.176282,244348,162827
1649.1,0.175244,236703,158110
1652.04,0.173898,228171,152884
1655.95,0.173977,215408,144306
1658.88,0.171685,204937,138018
1661.8,0.170635,193395,130560
1664.72,0.169075,179728,121770
1667.63,0.164995,163642,111918
1670.54,0.160391,146312,101132
1673.44,0.157045,128451,89473
1677.31,0.152435,105080,73975
1680.21,0.152912,88906,62520
1683.1,0.155316,75033,52473
1685.99,0.158019,63520,44146
1688.87,0.168259,53714,36461
1691.75,0.169370,45653,30910
1694.62,0.180278,39137,25841
1697.49,0.178496,33776,22393
1701.31,0.183962,28175,18446

File: Column 1_050538_20150331_115421.csv
Method:,Column 1,,
Host Date-Time:,31/3/15 @ 11:54:21,,
Header Version:,1,,
System Temp (C):,31.98,,
Detector Temp (C):,30.32,,
Humidity (%):,3.32,,
Lamp PD:,3826,,
Shift Vector Coefficients:,-10.5391,0.0761263,-0.000134223,,
Pixel to Wavelength Coefficients:,1775.68,-0.916766,-0.000235065,,
Serial Number:,5510004,,
Scan Config Name:,Column 1,,
Scan Config Type:,Slew,,
Section 1,,
Start wavelength (nm):,900,,
End wavelength (nm):,1700,,
Pattern Pixel Width (nm):,   7.03,,,,
Exposure (ms):,  0.635,,,,
Digital Resolution:,228,,
Num Repeats:,6,,
PGA Gain:,64,,
Total Measurement Time in sec:,  2.673,,
Wavelength (nm),Absorbance (AU),Reference Signal (unitless),Sample Signal (unitless)
901.51,0.043749,108485,98089
905.376,0.049563,121306,108223
909.237,0.050710,131909,117372
913.095,0.050219,143299,127651
916.948,0.051799,156982,139332
922.079,0.051204,179937,159925
925.923,0.050570,200504,178465
929.762,0.051539,222660,197744
933.597,0.052164,244426,216762
937.427,0.052012,263972,234178
941.254,0.052142,281845,249959
945.076,0.052303,297271,263542
950.165,0.052785,315605,279485
953.978,0.052757,328029,290506
957.786,0.053241,340470,301188
961.59,0.053655,352317,311371
965.389,0.054217,363056,320447
969.185,0.054577,373162,329094
972.976,0.055200,382632,336962
976.763,0.055713,391202,344103
981.806,0.056200,400190,351614
985.583,0.056962,406088,356171
989.355,0.057786,410162,359062
993.124,0.058140,412868,361136
996.888,0.058293,414263,362229
1000.65,0.059369,415476,362391
1004.4,0.060520,415479,361434
1009.41,0.061912,414358,359305
1013.15,0.062585,412923,357507
1016.89,0.063254,411526,355749
1020.63,0.062713,409066,354063
1024.36,0.062460,406777,352287
1028.09,0.062845,404427,349941
1031.82,0.061739,401911,348651
1036.78,0.061186,398410,346054
1040.49,0.060696,396204,344527
1044.2,0.060620,394236,342875
1047.91,0.059909,392042,341526
1051.61,0.059147,389823,340189
1055.31,0.058003,388234,339696
1059,0.057796,387599,339302
1063.92,0.056211,386688,339742
1067.61,0.055833,386598,339959
1071.29,0.055041,387377,341266
1074.96,0.054525,388536,342694
1078.63,0.054120,389855,344178
1082.3,0.052795,391215,346434
1085.96,0.052049,393215,348804
1090.84,0.051293,396270,352126
1094.49,0.051545,398760,354133
1098.14,0.050164,400987,357245
1101.79,0.049924,403477,359662
1105.43,0.050191,406116,361792
1109.06,0.049778,407701,363550
1112.7,0.049398,409859,365794
1117.53,0.049925,412494,367699
1121.15,0.050731,414909,369166
1124.77,0.051172,416559,370258
1128.38,0.053027,418532,370426
1131.99,0.054348,419956,370558
1135.6,0.056741,421946,370268
1139.2,0.058101,423881,370803
1143.99,0.061140,426786,370741
1147.58,0.063170,428617,370595
1151.17,0.063884,431169,372189
1154.75,0.065542,433579,372843
1158.33,0.067372,436264,373575
1161.91,0.069856,439132,373886
1165.48,0.072959,442389,373977
1169.04,0.076073,446101,374421
1173.79,0.079837,451929,376039
1177.34,0.082966,456026,376724
1180.9,0.085217,461306,379116
1184.44,0.086602,467657,383112
1187.99,0.087908,473969,387117
1191.52,0.087573,479856,392227
1195.06,0.086887,487372,399001
1199.76,0.085389,497347,408574
1203.29,0.083784,504311,415829
1206.81,0.082518,511507,422993
1210.33,0.081456,519078,430305
1213.84,0.080708,527163,437761
1217.35,0.079511,534208,444835
1220.85,0.078470,540472,451132
1225.51,0.076910,549929,460677
1229.01,0.076106,556888,467371
1232.5,0.075745,562180,472205
1235.98,0.074638,567975,478290
1239.46,0.073503,574815,485317
1242.94,0.072210,582782,493510
1246.41,0.071471,591476,501725
1251.03,0.071281,604016,512587
1254.5,0.071668,612289,519145
1257.96,0.071647,619125,524966
1261.41,0.072297,624551,528775
1264.86,0.072913,629900,532548
1268.31,0.073379,634345,535731
1271.75,0.073942,638574,538604
1276.33,0.074318,642499,541445
1279.76,0.074314,645905,544320
1283.19,0.073642,648307,547191
1286.61,0.073334,650446,549386
1290.03,0.073125,652132,551075
1293.44,0.072466,653907,553414
1296.85,0.072286,655963,555384
1301.39,0.072134,657349,556752
1304.8,0.071979,657558,557128
1308.19,0.072400,658515,557398
1311.58,0.072699,658804,557259
1314.97,0.073497,659011,556411
1318.36,0.074068,658272,555057
1321.73,0.074178,658022,554706
1326.23,0.075411,657870,553005
1329.6,0.076593,656482,550338
1332.97,0.078030,654926,547220
1336.33,0.078608,653727,545492
1339.69,0.081172,652497,541261
1343.04,0.082672,649913,537259
1346.39,0.085537,647671,531885
1349.73,0.087990,645338,526984
1354.18,0.091210,641175,519716
1357.52,0.093915,638376,514235
1360.85,0.096312,635805,509345
1364.17,0.098778,633413,504555
1367.49,0.101164,631026,499900
1370.81,0.104196,628050,494081
1374.12,0.107384,625034,488112
1378.54,0.110841,620272,480553
1381.84,0.114783,616892,473616
1385.14,0.119799,613613,465689
1388.43,0.124757,611526,458836
1391.72,0.130769,610663,451890
1395.01,0.136597,610634,445845
1398.29,0.143458,611700,439623
1402.66,0.151828,614051,432889
1405.93,0.158973,616268,427363
1409.2,0.165133,617795,422388
1412.46,0.171267,618872,417190
1415.72,0.176499,619795,412809
1418.98,0.181569,620495,408479
1422.23,0.185584,621087,405106
1426.56,0.190499,621375,400733
1429.8,0.194145,621616,397537
1433.04,0.196977,622129,395279
1436.27,0.199463,621526,392642
1439.5,0.201613,621113,390443
1442.72,0.204415,620921,387812
1445.94,0.207020,620270,385089
1450.23,0.210359,618860,381271
1453.44,0.213548,617697,377770
1456.64,0.216407,616264,374421
1459.85,0.219290,614413,370826
1463.04,0.221825,612307,367404
1466.24,0.224606,610032,363703
1469.43,0.227850,607345,359406
1473.67,0.232545,603789,353460
1476.85,0.237794,601175,347702
1480.02,0.243130,597737,341492
1483.19,0.249081,594479,335008
1486.36,0.255430,591232,328343
1489.52,0.260012,587853,323040
1492.68,0.263707,583875,318136
1496.89,0.266423,578062,313005
1500.03,0.267197,574159,310338
1503.18,0.267584,570285,307970
1506.32,0.266955,565444,305798
1509.45,0.266742,560571,303311
1512.58,0.264799,555821,302090
1515.71,0.262393,550344,300775
1519.87,0.259860,543983,299037
1522.99,0.256948,538764,298161
1526.1,0.254144,533692,297267
1529.21,0.250989,527902,296186
1532.32,0.247589,521886,295112
1535.42,0.244678,515888,293682
1538.51,0.241470,509987,292475
1541.6,0.238241,503936,291162
1545.72,0.233280,494694,289106
1548.8,0.229484,488378,287920
1551.88,0.226647,481832,285923
1554.95,0.224655,474989,283158
1558.02,0.222806,467818,280073
1561.08,0.220655,460730,277199
1564.15,0.221016,454170,273025
1568.22,0.219373,444181,268032
1571.27,0.218315,436947,264310
1574.32,0.217433,429598,260393
1577.36,0.216328,422039,256463
1580.4,0.214780,414375,252705
1583.43,0.211820,406354,249508
1586.46,0.210185,398475,245593
1590.49,0.207239,388982,241374
1593.51,0.205408,380708,237238
1596.53,0.202444,372727,233855
1599.54,0.201113,365060,229748
1602.55,0.197965,357543,226654
1605.55,0.196654,349495,222222
1608.55,0.193467,341154,218516
1612.54,0.191273,330877,213007
1615.53,0.189120,322904,208907
1618.51,0.187569,315116,204598
1621.49,0.185803,307217,200282
1624.47,0.184628,299481,195768
1627.44,0.183757,292112,191334
1630.41,0.181610,284245,187104
1634.36,0.178490,274079,181713
1637.32,0.178215,266916,177076
1640.27,0.178966,259612,171933
1643.22,0.176253,251804,167807
1646.16,0.175720,244348,163038
1649.1,0.175626,236703,157971
1652.04,0.173915,228171,152878
1655.95,0.173430,215408,144488
1658.88,0.170795,204937,138301
1661.8,0.170263,193395,130672
1664.72,0.167463,179728,122223
1667.63,0.164150,163642,112136
1670.54,0.159242,146312,101400
1673.44,0.155872,128451,89715
1677.31,0.151802,105080,74083
1680.21,0.149618,88906,62996
1683.1,0.155143,75033,52494
1685.99,0.162022,63520,43741
1688.87,0.163214,53714,36887
1691.75,0.170454,45653,30833
1694.62,0.173078,39137,26273
1697.49,0.184845,33776,22068
1701.31,0.176539,28175,18764