Folder: textile_sorting_NIRSCAN_/samples/wool/wool-000811 (part 62)

File: Column 1_050564_20150331_120638.csv
Method:,Column 1,,
Host Date-Time:,31/3/15 @ 12:6:38,,
Header Version:,1,,
System Temp (C):,33.86,,
Detector Temp (C):,33.66,,
Humidity (%):,1.95,,
Lamp PD:,3819,,
Shift Vector Coefficients:,-10.5391,0.0761263,-0.000134223,,
Pixel to Wavelength Coefficients:,1775.68,-0.916766,-0.000235065,,
Serial Number:,5510004,,
Scan Config Name:,Column 1,,
Scan Config Type:,Slew,,
Section 1,,
Start wavelength (nm):,900,,
End wavelength (nm):,1700,,
Pattern Pixel Width (nm):,   7.03,,,,
Exposure (ms):,  0.635,,,,
Digital Resolution:,228,,
Num Repeats:,6,,
PGA Gain:,64,,
Total Measurement Time in sec:,  2.675,,
Wavelength (nm),Absorbance (AU),Reference Signal (unitless),Sample Signal (unitless)
901.51,0.034056,108485,100303
905.376,0.039703,121306,110708
909.237,0.040836,131909,120071
913.095,0.043933,143299,129512
916.948,0.043589,156982,141991
922.079,0.045828,179937,161917
925.923,0.047063,200504,179912
929.762,0.049090,222660,198862
933.597,0.047856,244426,218923
937.427,0.046993,263972,236900
941.254,0.047250,281845,252790
945.076,0.046724,297271,266949
950.165,0.046514,315605,283550
953.978,0.046713,328029,294577
957.786,0.045722,340470,306448
961.59,0.045922,352317,316965
965.389,0.046263,363056,326370
969.185,0.046138,373162,335552
972.976,0.046569,382632,343726
976.763,0.047478,391202,350690
981.806,0.047830,400190,358456
985.583,0.048143,406088,363477
989.355,0.048848,410162,366528
993.124,0.049799,412868,368139
996.888,0.050404,414263,368869
1000.65,0.051274,415476,369209
1004.4,0.052606,415479,368081
1009.41,0.053829,414358,366055
1013.15,0.054275,412923,364413
1016.89,0.054620,411526,362892
1020.63,0.054555,409066,360777
1024.36,0.054815,406777,358543
1028.09,0.054436,404427,356783
1031.82,0.054720,401911,354332
1036.78,0.053365,398410,352343
1040.49,0.053201,396204,350524
1044.2,0.052762,394236,349136
1047.91,0.052757,392042,347197
1051.61,0.052158,389823,345708
1055.31,0.051641,388234,344709
1059,0.051158,387599,344528
1063.92,0.050359,386688,344351
1067.61,0.049068,386598,345296
1071.29,0.048481,387377,346460
1074.96,0.048263,388536,347671
1078.63,0.047538,389855,349434
1082.3,0.047034,391215,351060
1085.96,0.046640,393215,353175
1090.84,0.045255,396270,357056
1094.49,0.044939,398760,359561
1098.14,0.044759,400987,361719
1101.79,0.043648,403477,364897
1105.43,0.044271,406116,366758
1109.06,0.043792,407701,368595
1112.7,0.043797,409859,370542
1117.53,0.044300,412494,372493
1121.15,0.044399,414909,374588
1124.77,0.044810,416559,375722
1128.38,0.046089,418532,376391
1131.99,0.047574,419956,376383
1135.6,0.050090,421946,375982
1139.2,0.051278,423881,376674
1143.99,0.053503,426786,377318
1147.58,0.054744,428617,377855
1151.17,0.056330,431169,378719
1154.75,0.056942,433579,380300
1158.33,0.059026,436264,380823
1161.91,0.061271,439132,381350
1165.48,0.063155,442389,382516
1169.04,0.066189,446101,383040
1173.79,0.070155,451929,384517
1177.34,0.072234,456026,386150
1180.9,0.074660,461306,388445
1184.44,0.076256,467657,392348
1187.99,0.077085,473969,396885
1191.52,0.077550,479856,401385
1195.06,0.076591,487372,408573
1199.76,0.075973,497347,417529
1203.29,0.075016,504311,424309
1206.81,0.074328,511507,431046
1210.33,0.073336,519078,438426
1213.84,0.072195,527163,446426
1217.35,0.071827,534208,452776
1220.85,0.070731,540472,459243
1225.51,0.070191,549929,467860
1229.01,0.069720,556888,474294
1232.5,0.068821,562180,479793
1235.98,0.068387,567975,485224
1239.46,0.067078,574815,492550
1242.94,0.065845,582782,500796
1246.41,0.065429,591476,508754
1251.03,0.065190,604016,519827
1254.5,0.065766,612289,526248
1257.96,0.066081,619125,531738
1261.41,0.066875,624551,535418
1264.86,0.067137,629900,539678
1268.31,0.067754,634345,542714
1271.75,0.068558,638574,545322
1276.33,0.068872,642499,548277
1279.76,0.068918,645905,551126
1283.19,0.068067,648307,554260
1286.61,0.068099,650446,556048
1290.03,0.067526,652132,558225
1293.44,0.067081,653907,560318
1296.85,0.066944,655963,562258
1301.39,0.067003,657349,563369
1304.8,0.066948,657558,563619
1308.19,0.067036,658515,564325
1311.58,0.067362,658804,564149
1314.97,0.067795,659011,563765
1318.36,0.068283,658272,562500
1321.73,0.068355,658022,562193
1326.23,0.069724,657870,560294
1329.6,0.070619,656482,557961
1332.97,0.071246,654926,555835
1336.33,0.072716,653727,552943
1339.69,0.074200,652497,550020
1343.04,0.076419,649913,545050
1346.39,0.078511,647671,540559
1349.73,0.080435,645338,536232
1354.18,0.083522,641175,528999
1357.52,0.085713,638376,524039
1360.85,0.088041,635805,519138
1364.17,0.090148,633413,514682
1367.49,0.093300,631026,509034
1370.81,0.095415,628050,504172
1374.12,0.097428,625034,499431
1378.54,0.100884,620272,491698
1381.84,0.104765,616892,484668
1385.14,0.108512,613613,477950
1388.43,0.112720,611526,471732
1391.72,0.117418,610663,465998
1395.01,0.122273,610634,460795
1398.29,0.127830,611700,455731
1402.66,0.135636,614051,449333
1405.93,0.141082,616268,445336
1409.2,0.146868,617795,440531
1412.46,0.151687,618872,436429
1415.72,0.156299,619795,432463
1418.98,0.160887,620495,428402
1422.23,0.163799,621087,425945
1426.56,0.168008,621375,422032
1429.8,0.171239,621616,419067
1433.04,0.173931,622129,416821
1436.27,0.176185,621526,414261
1439.5,0.178544,621113,411743
1442.72,0.181470,620921,408852
1445.94,0.184054,620270,406001
1450.23,0.187375,618860,401992
1453.44,0.190571,617697,398295
1456.64,0.193456,616264,394740
1459.85,0.196205,614413,391071
1463.04,0.199070,612307,387168
1466.24,0.202124,610032,383026
1469.43,0.205553,607345,378340
1473.67,0.211924,603789,370648
1476.85,0.217827,601175,364061
1480.02,0.223128,597737,357587
1483.19,0.230193,594479,349900
1486.36,0.235982,591232,343381
1489.52,0.241125,587853,337399
1492.68,0.245258,583875,331942
1496.89,0.247618,578062,326856
1500.03,0.248384,574159,324077
1503.18,0.248022,570285,322159
1506.32,0.247465,565444,319834
1509.45,0.246392,560571,317862
1512.58,0.244262,555821,316718
1515.71,0.242162,550344,315117
1519.87,0.238985,543983,313762
1522.99,0.236211,538764,312743
1526.1,0.233423,533692,311794
1529.21,0.230037,527902,310825
1532.32,0.227651,521886,308976
1535.42,0.223776,515888,308162
1538.51,0.221303,509987,306377
1541.6,0.218117,503936,304971
1545.72,0.213349,494694,302683
1548.8,0.210361,488378,300881
1551.88,0.207580,481832,298755
1554.95,0.205539,474989,295900
1558.02,0.203021,467818,293127
1561.08,0.202588,460730,288974
1564.15,0.203132,454170,284503
1568.22,0.201116,444181,279540
1571.27,0.200933,436947,275103
1574.32,0.199230,429598,271539
1577.36,0.196758,422039,268284
1580.4,0.196573,414375,263524
1583.43,0.194411,406354,259713
1586.46,0.192915,398475,255556
1590.49,0.190095,388982,251093
1593.51,0.188280,380708,246781
1596.53,0.185533,372727,243141
1599.54,0.183139,365060,239456
1602.55,0.181337,357543,235500
1605.55,0.179093,349495,231392
1608.55,0.176953,341154,226985
1612.54,0.175410,330877,220931
1615.53,0.171498,322904,217558
1618.51,0.171263,315116,212426
1621.49,0.171037,307217,207209
1624.47,0.168640,299481,203109
1627.44,0.168319,292112,198258
1630.41,0.165992,284245,193955
1634.36,0.165366,274079,187288
1637.32,0.164075,266916,182936
1640.27,0.162665,259612,178509
1643.22,0.161691,251804,173529
1646.16,0.161783,244348,168355
1649.1,0.162048,236703,162988
1652.04,0.159513,228171,158033
1655.95,0.157124,215408,150016
1658.88,0.153119,204937,144046
1661.8,0.151068,193395,136577
1664.72,0.143901,179728,129037
1667.63,0.133160,163642,120430
1670.54,0.121788,146312,110533
1673.44,0.108512,128451,100052
1677.31,0.093950,105080,84639
1680.21,0.085852,88906,72959
1683.1,0.084264,75033,61800
1685.99,0.087877,63520,51884
1688.87,0.091808,53714,43479
1691.75,0.092596,45653,36887
1694.62,0.107932,39137,30525
1697.49,0.105297,33776,26504
1701.31,0.116437,28175,21549

File: Column 1_050564_20150331_120644.csv
Method:,Column 1,,
Host Date-Time:,31/3/15 @ 12:6:44,,
Header Version:,1,,
System Temp (C):,33.87,,
Detector Temp (C):,33.69,,
Humidity (%):,1.95,,
Lamp PD:,3818,,
Shift Vector Coefficients:,-10.5391,0.0761263,-0.000134223,,
Pixel to Wavelength Coefficients:,1775.68,-0.916766,-0.000235065,,
Serial Number:,5510004,,
Scan Config Name:,Column 1,,
Scan Config Type:,Slew,,
Section 1,,
Start wavelength (nm):,900,,
End wavelength (nm):,1700,,
Pattern Pixel Width (nm):,   7.03,,,,
Exposure (ms):,  0.635,,,,
Digital Resolution:,228,,
Num Repeats:,6,,
PGA Gain:,64,,
Total Measurement Time in sec:,  2.727,,
Wavelength (nm),Absorbance (AU),Reference Signal (unitless),Sample Signal (unitless)
901.51,0.034337,108485,100238
905.376,0.039319,121306,110806
909.237,0.043306,131909,119390
913.095,0.042751,143299,129865
916.948,0.044070,156982,141834
922.079,0.046459,179937,161682
925.923,0.047744,200504,179630
929.762,0.048253,222660,199246
933.597,0.047866,244426,218918
937.427,0.047596,263972,236571
941.254,0.047543,281845,252620
945.076,0.046783,297271,266913
950.165,0.046289,315605,283697
953.978,0.045265,328029,295561
957.786,0.046295,340470,306044
961.59,0.046561,352317,316499
965.389,0.046707,363056,326037
969.185,0.046031,373162,335634
972.976,0.047343,382632,343114
976.763,0.047449,391202,350713
981.806,0.048109,400190,358226
985.583,0.049022,406088,362742
989.355,0.049686,410162,365822
993.124,0.049881,412868,368070
996.888,0.050579,414263,368720
1000.65,0.050979,415476,369460
1004.4,0.051978,415479,368613
1009.41,0.053513,414358,366322
1013.15,0.053555,412923,365018
1016.89,0.054855,411526,362696
1020.63,0.054910,409066,360482
1024.36,0.054835,406777,358527
1028.09,0.054606,404427,356643
1031.82,0.054256,401911,354710
1036.78,0.054106,398410,351742
1040.49,0.052787,396204,350858
1044.2,0.052862,394236,349055
1047.91,0.052362,392042,347513
1051.61,0.051652,389823,346111
1055.31,0.051394,388234,344905
1059,0.051828,387599,343997
1063.92,0.049836,386688,344766
1067.61,0.049774,386598,344735
1071.29,0.048584,387377,346378
1074.96,0.048394,388536,347566
1078.63,0.047624,389855,349365
1082.3,0.046748,391215,351291
1085.96,0.046200,393215,353533
1090.84,0.045312,396270,357009
1094.49,0.044800,398760,359676
1098.14,0.044841,400987,361651
1101.79,0.044355,403477,364304
1105.43,0.044752,406116,366352
1109.06,0.044069,407701,368360
1112.7,0.043779,409859,370557
1117.53,0.043972,412494,372774
1121.15,0.045106,414909,373979
1124.77,0.045170,416559,375411
1128.38,0.046730,418532,375836
1131.99,0.047719,419956,376257
1135.6,0.049559,421946,376442
1139.2,0.051951,423881,376091
1143.99,0.053633,426786,377205
1147.58,0.054834,428617,377777
1151.17,0.056341,431169,378710
1154.75,0.057047,433579,380208
1158.33,0.059123,436264,380738
1161.91,0.061206,439132,381407
1165.48,0.064173,442389,381620
1169.04,0.066120,446101,383101
1173.79,0.070039,451929,384619
1177.34,0.072880,456026,385576
1180.9,0.074491,461306,388596
1184.44,0.076096,467657,392493
1187.99,0.077021,473969,396944
1191.52,0.077539,479856,401395
1195.06,0.076636,487372,408531
1199.76,0.075760,497347,417734
1203.29,0.074779,504311,424541
1206.81,0.074794,511507,430584
1210.33,0.073352,519078,438410
1213.84,0.072569,527163,446042
1217.35,0.071976,534208,452621
1220.85,0.071351,540472,458588
1225.51,0.070064,549929,467997
1229.01,0.069874,556888,474126
1232.5,0.068992,562180,479605
1235.98,0.068433,567975,485173
1239.46,0.067115,574815,492508
1242.94,0.066245,582782,500335
1246.41,0.065832,591476,508282
1251.03,0.065434,604016,519534
1254.5,0.065495,612289,526577
1257.96,0.066139,619125,531667
1261.41,0.066527,624551,535847
1264.86,0.067294,629900,539483
1268.31,0.068043,634345,542353
1271.75,0.068918,638574,544870
1276.33,0.069108,642499,547980
1279.76,0.068688,645905,551418
1283.19,0.068527,648307,553674
1286.61,0.068004,650446,556169
1290.03,0.067971,652132,557654
1293.44,0.066982,653907,560446
1296.85,0.067164,655963,561973
1301.39,0.066605,657349,563886
1304.8,0.066362,657558,564380
1308.19,0.066960,658515,564424
1311.58,0.067269,658804,564270
1314.97,0.067583,659011,564040
1318.36,0.068250,658272,562543
1321.73,0.068722,658022,561718
1326.23,0.069695,657870,560331
1329.6,0.070347,656482,558311
1332.97,0.071400,654926,555639
1336.33,0.072569,653727,553130
1339.69,0.074345,652497,549836
1343.04,0.076076,649913,545480
1346.39,0.078516,647671,540553
1349.73,0.080712,645338,535889
1354.18,0.083674,641175,528814
1357.52,0.085916,638376,523794
1360.85,0.088197,635805,518952
1364.17,0.090324,633413,514474
1367.49,0.092853,631026,509559
1370.81,0.095315,628050,504289
1374.12,0.097946,625034,498836
1378.54,0.100944,620272,491630
1381.84,0.104592,616892,484861
1385.14,0.108266,613613,478221
1388.43,0.112744,611526,471706
1391.72,0.117721,610663,465672
1395.01,0.122823,610634,460212
1398.29,0.127710,611700,455857
1402.66,0.135139,614051,449848
1405.93,0.141001,616268,445419
1409.2,0.146586,617795,440817
1412.46,0.151534,618872,436583
1415.72,0.156543,619795,432220
1418.98,0.160466,620495,428817
1422.23,0.164224,621087,425528
1426.56,0.168094,621375,421949
1429.8,0.171432,621616,418881
1433.04,0.173981,622129,416773
1436.27,0.176193,621526,414254
1439.5,0.178428,621113,411853
1442.72,0.181330,620921,408984
1445.94,0.184209,620270,405856
1450.23,0.186737,618860,402583
1453.44,0.189839,617697,398967
1456.64,0.192844,616264,395296
1459.85,0.196078,614413,391185
1463.04,0.199082,612307,387157
1466.24,0.202634,610032,382577
1469.43,0.205883,607345,378053
1473.67,0.211734,603789,370810
1476.85,0.217852,601175,364040
1480.02,0.223413,597737,357353
1483.19,0.229942,594479,350102
1486.36,0.236382,591232,343065
1489.52,0.241522,587853,337091
1492.68,0.244681,583875,332383
1496.89,0.247267,578062,327120
1500.03,0.247733,574159,324563
1503.18,0.247772,570285,322344
1506.32,0.247269,565444,319978
1509.45,0.246497,560571,317785
1512.58,0.244351,555821,316653
1515.71,0.241974,550344,315254
1519.87,0.238786,543983,313906
1522.99,0.236437,538764,312580
1526.1,0.233261,533692,311910
1529.21,0.230524,527902,310477
1532.32,0.227381,521886,309168
1535.42,0.224534,515888,307625
1538.51,0.221263,509987,306405
1541.6,0.217919,503936,305110
1545.72,0.213463,494694,302603
1548.8,0.210293,488378,300928
1551.88,0.208649,481832,298021
1554.95,0.205951,474989,295619
1558.02,0.203329,467818,292919
1561.08,0.202565,460730,288989
1564.15,0.202503,454170,284915
1568.22,0.201278,444181,279436
1571.27,0.200307,436947,275500
1574.32,0.198610,429598,271927
1577.36,0.197779,422039,267654
1580.4,0.196030,414375,263854
1583.43,0.194416,406354,259710
1586.46,0.193131,398475,255429
1590.49,0.190251,388982,251003
1593.51,0.188039,380708,246918
1596.53,0.185738,372727,243026
1599.54,0.183369,365060,239329
1602.55,0.180764,357543,235811
1605.55,0.179746,349495,231044
1608.55,0.177336,341154,226785
1612.54,0.173936,330877,221682
1615.53,0.172750,322904,216932
1618.51,0.172458,315116,211842
1621.49,0.170662,307217,207388
1624.47,0.168629,299481,203114
1627.44,0.167896,292112,198451
1630.41,0.166431,284245,193759
1634.36,0.164969,274079,187459
1637.32,0.163667,266916,183108
1640.27,0.163242,259612,178272
1643.22,0.162638,251804,173151
1646.16,0.161646,244348,168408
1649.1,0.161348,236703,163251
1652.04,0.160231,228171,157772
1655.95,0.156520,215408,150225
1658.88,0.153397,204937,143954
1661.8,0.150035,193395,136902
1664.72,0.144060,179728,128990
1667.63,0.134247,163642,120129
1670.54,0.120877,146312,110765
1673.44,0.108616,128451,100028
1677.31,0.095620,105080,84314
1680.21,0.085745,88906,72977
1683.1,0.083821,75033,61863
1685.99,0.084500,63520,52289
1688.87,0.091219,53714,43538
1691.75,0.094153,45653,36755
1694.62,0.104121,39137,30794
1697.49,0.103286,33776,26627
1701.31,0.111089,28175,21816

File: Column 1_050565_20150331_120647.csv
Method:,Column 1,,
Host Date-Time:,31/3/15 @ 12:6:47,,
Header Version:,1,,
System Temp (C):,33.87,,
Detector Temp (C):,33.66,,
Humidity (%):,1.95,,
Lamp PD:,3818,,
Shift Vector Coefficients:,-10.5391,0.0761263,-0.000134223,,
Pixel to Wavelength Coefficients:,1775.68,-0.916766,-0.000235065,,
Serial Number:,5510004,,
Scan Config Name:,Column 1,,
Scan Config Type:,Slew,,
Section 1,,
Start wavelength (nm):,900,,
End wavelength (nm):,1700,,
Pattern Pixel Width (nm):,   7.03,,,,
Exposure (ms):,  0.635,,,,
Digital Resolution:,228,,
Num Repeats:,6,,
PGA Gain:,64,,
Total Measurement Time in sec:,  2.722,,
Wavelength (nm),Absorbance (AU),Reference Signal (unitless),Sample Signal (unitless)
901.51,0.032776,108485,100599
905.376,0.039770,121306,110691
909.237,0.042463,131909,119622
913.095,0.044259,143299,129415
916.948,0.042746,156982,142267
922.079,0.045839,179937,161913
925.923,0.046269,200504,180241
929.762,0.047349,222660,199661
933.597,0.047828,244426,218937
937.427,0.046804,263972,237003
941.254,0.046379,281845,253298
945.076,0.046630,297271,267007
950.165,0.046586,315605,283503
953.978,0.045297,328029,295539
957.786,0.045790,340470,306400
961.59,0.046139,352317,316807
965.389,0.045794,363056,326723
969.185,0.046347,373162,335390
972.976,0.047190,382632,343235
976.763,0.047445,391202,350716
981.806,0.048097,400190,358236
985.583,0.048473,406088,363201
989.355,0.049260,410162,366181
993.124,0.049357,412868,368514
996.888,0.049838,414263,369350
1000.65,0.050862,415476,369559
1004.4,0.052171,415479,368450
1009.41,0.053256,414358,366539
1013.15,0.053869,412923,364754
1016.89,0.054285,411526,363172
1020.63,0.054447,409066,360866
1024.36,0.054747,406777,358599
1028.09,0.054557,404427,356684
1031.82,0.053980,401911,354936
1036.78,0.053548,398410,352194
1040.49,0.053363,396204,350393
1044.2,0.052948,394236,348986
1047.91,0.052054,392042,347759
1051.61,0.051872,389823,345936
1055.31,0.052130,388234,344321
1059,0.051143,387599,344540
1063.92,0.050161,386688,344508
1067.61,0.048867,386598,345456
1071.29,0.048705,387377,346281
1074.96,0.047901,388536,347961
1078.63,0.047013,389855,349857
1082.3,0.046745,391215,351294
1085.96,0.045673,393215,353962
1090.84,0.045055,396270,357220
1094.49,0.045473,398760,359119
1098.14,0.044861,400987,361634
1101.79,0.044399,403477,364267
1105.43,0.044353,406116,366688
1109.06,0.043832,407701,368561
1112.7,0.043908,409859,370447
1117.53,0.044128,412494,372640
1121.15,0.044993,414909,374076
1124.77,0.044978,416559,375577
1128.38,0.045966,418532,376498
1131.99,0.048121,419956,375909
1135.6,0.049822,421946,376214
1139.2,0.051550,423881,376438
1143.99,0.054325,426786,376604
1147.58,0.054373,428617,378178
1151.17,0.055456,431169,379482
1154.75,0.057297,433579,379989
1158.33,0.058999,436264,380847
1161.91,0.060876,439132,381697
1165.48,0.063048,442389,382610
1169.04,0.066085,446101,383132
1173.79,0.069915,451929,384729
1177.34,0.072369,456026,386030
1180.9,0.074510,461306,388579
1184.44,0.076701,467657,391946
1187.99,0.077405,473969,396593
1191.52,0.076791,479856,402087
1195.06,0.076717,487372,408454
1199.76,0.075925,497347,417575
1203.29,0.074827,504311,424494
1206.81,0.074230,511507,431143
1210.33,0.073640,519078,438120
1213.84,0.072574,527163,446037
1217.35,0.071941,534208,452657
1220.85,0.070727,540472,459247
1225.51,0.069887,549929,468187
1229.01,0.069531,556888,474501
1232.5,0.069035,562180,479557
1235.98,0.068408,567975,485200
1239.46,0.067282,574815,492318
1242.94,0.066056,582782,500553
1246.41,0.065566,591476,508594
1251.03,0.065327,604016,519662
1254.5,0.065721,612289,526303
1257.96,0.066221,619125,531566
1261.41,0.066393,624551,536013
1264.86,0.067536,629900,539182
1268.31,0.067923,634345,542503
1271.75,0.068608,638574,545259
1276.33,0.069235,642499,547819
1279.76,0.068941,645905,551096
1283.19,0.068469,648307,553748
1286.61,0.067887,650446,556319
1290.03,0.067680,652132,558027
1293.44,0.066904,653907,560547
1296.85,0.066914,655963,562297
1301.39,0.066758,657349,563687
1304.8,0.066656,657558,563999
1308.19,0.066841,658515,564579
1311.58,0.067265,658804,564276
1314.97,0.067595,659011,564024
1318.36,0.067959,658272,562919
1321.73,0.068557,658022,561932
1326.23,0.069329,657870,560804
1329.6,0.070376,656482,558273
1332.97,0.071147,654926,555962
1336.33,0.072848,653727,552775
1339.69,0.074385,652497,549786
1343.04,0.075918,649913,545679
1346.39,0.078353,647671,540756
1349.73,0.080469,645338,536189
1354.18,0.083639,641175,528856
1357.52,0.085483,638376,524316
1360.85,0.088076,635805,519096
1364.17,0.090346,633413,514447
1367.49,0.092686,631026,509755
1370.81,0.095074,628050,504569
1374.12,0.097519,625034,499327
1378.54,0.100923,620272,491653
1381.84,0.104522,616892,484939
1385.14,0.108410,613613,478062
1388.43,0.112549,611526,471917
1391.72,0.117397,610663,466020
1395.01,0.122746,610634,460294
1398.29,0.127231,611700,456360
1402.66,0.135151,614051,449835
1405.93,0.141328,616268,445084
1409.2,0.146155,617795,441255
1412.46,0.151500,618872,436617
1415.72,0.156254,619795,432508
1418.98,0.159754,620495,429521
1422.23,0.164004,621087,425744
1426.56,0.167923,621375,422115
1429.8,0.171011,621616,419287
1433.04,0.173230,622129,417494
1436.27,0.176101,621526,414341
1439.5,0.178782,621113,411518
1442.72,0.181122,620921,409180
1445.94,0.183256,620270,406747
1450.23,0.186779,618860,402544
1453.44,0.189972,617697,398844
1456.64,0.193062,616264,395098
1459.85,0.196301,614413,390984
1463.04,0.199102,612307,387139
1466.24,0.202253,610032,382913
1469.43,0.205562,607345,378332
1473.67,0.211912,603789,370658
1476.85,0.216925,601175,364818
1480.02,0.223302,597737,357444
1483.19,0.230339,594479,349782
1486.36,0.236604,591232,342889
1489.52,0.241478,587853,337125
1492.68,0.244793,583875,332297
1496.89,0.247170,578062,327193
1500.03,0.248136,574159,324262
1503.18,0.248077,570285,322118
1506.32,0.247020,565444,320162
1509.45,0.245750,560571,318332
1512.58,0.244126,555821,316817
1515.71,0.241690,550344,315460
1519.87,0.238605,543983,314037
1522.99,0.235947,538764,312933
1526.1,0.233663,533692,311622
1529.21,0.230167,527902,310732
1532.32,0.227464,521886,309109
1535.42,0.223940,515888,308046
1538.51,0.220558,509987,306903
1541.6,0.217595,503936,305338
1545.72,0.213440,494694,302619
1548.8,0.209998,488378,301133
1551.88,0.207166,481832,299040
1554.95,0.204939,474989,296309
1558.02,0.204138,467818,292374
1561.08,0.202016,460730,289355
1564.15,0.201716,454170,285432
1568.22,0.200168,444181,280151
1571.27,0.199301,436947,276139
1574.32,0.198851,429598,271776
1577.36,0.197581,422039,267776
1580.4,0.195742,414375,264029
1583.43,0.194316,406354,259770
1586.46,0.192276,398475,255932
1590.49,0.189988,388982,251155
1593.51,0.187899,380708,246998
1596.53,0.186081,372727,242834
1599.54,0.183732,365060,239129
1602.55,0.181734,357543,235285
1605.55,0.178789,349495,231554
1608.55,0.177118,341154,226899
1612.54,0.175062,330877,221108
1615.53,0.172540,322904,217037
1618.51,0.171013,315116,212548
1621.49,0.170289,307217,207566
1624.47,0.168546,299481,203153
1627.44,0.168547,292112,198154
1630.41,0.167589,284245,193243
1634.36,0.164907,274079,187486
1637.32,0.165074,266916,182516
1640.27,0.163351,259612,178227
1643.22,0.161130,251804,173753
1646.16,0.161821,244348,168340
1649.1,0.161156,236703,163323
1652.04,0.160927,228171,157519
1655.95,0.157507,215408,149884
1658.88,0.153831,204937,143810
1661.8,0.149427,193395,137094
1664.72,0.143642,179728,129114
1667.63,0.133416,163642,120359
1670.54,0.122323,146312,110397
1673.44,0.109081,128451,99921
1677.31,0.092183,105080,84984
1680.21,0.084942,88906,73112
1683.1,0.084257,75033,61801
1685.99,0.084475,63520,52292
1688.87,0.089030,53714,43758
1691.75,0.099335,45653,36319
1694.62,0.096031,39137,31373
1697.49,0.108322,33776,26320
1701.31,0.112045,28175,21768