Folder: textile_sorting_NIRSCAN_/samples/wool/wool-000811 (part 101)

File: Column 1_050586_20150331_121711.csv
Method:,Column 1,,
Host Date-Time:,31/3/15 @ 12:17:11,,
Header Version:,1,,
System Temp (C):,33.79,,
Detector Temp (C):,34.56,,
Humidity (%):,1.86,,
Lamp PD:,3819,,
Shift Vector Coefficients:,-10.5391,0.0761263,-0.000134223,,
Pixel to Wavelength Coefficients:,1775.68,-0.916766,-0.000235065,,
Serial Number:,5510004,,
Scan Config Name:,Column 1,,
Scan Config Type:,Slew,,
Section 1,,
Start wavelength (nm):,900,,
End wavelength (nm):,1700,,
Pattern Pixel Width (nm):,   7.03,,,,
Exposure (ms):,  0.635,,,,
Digital Resolution:,228,,
Num Repeats:,6,,
PGA Gain:,64,,
Total Measurement Time in sec:,  2.694,,
Wavelength (nm),Absorbance (AU),Reference Signal (unitless),Sample Signal (unitless)
901.51,0.070036,108485,92328
905.376,0.075440,121306,101963
909.237,0.077262,131909,110411
913.095,0.077460,143299,119890
916.948,0.077926,156982,131197
922.079,0.081392,179937,149186
925.923,0.081824,200504,166073
929.762,0.083044,222660,183907
933.597,0.082459,244426,202157
937.427,0.081120,263972,218997
941.254,0.081573,281845,233581
945.076,0.080962,297271,246712
950.165,0.080200,315605,262388
953.978,0.079193,328029,273350
957.786,0.079177,340470,283728
961.59,0.079690,352317,293254
965.389,0.078806,363056,302808
969.185,0.078721,373162,311298
972.976,0.080040,382632,318230
976.763,0.080631,391202,324915
981.806,0.080810,400190,332243
985.583,0.081287,406088,336770
989.355,0.081727,410162,339804
993.124,0.081586,412868,342157
996.888,0.082591,414263,342519
1000.65,0.083936,415476,342460
1004.4,0.084609,415479,341932
1009.41,0.085763,414358,340105
1013.15,0.085909,412923,338813
1016.89,0.086774,411526,336995
1020.63,0.086933,409066,334858
1024.36,0.086332,406777,333445
1028.09,0.086226,404427,331600
1031.82,0.086074,401911,329652
1036.78,0.085496,398410,327216
1040.49,0.085791,396204,325183
1044.2,0.085355,394236,323893
1047.91,0.085305,392042,322127
1051.61,0.084919,389823,320589
1055.31,0.084350,388234,319701
1059,0.084259,387599,319245
1063.92,0.083573,386688,318998
1067.61,0.082751,386598,319528
1071.29,0.082100,387377,320652
1074.96,0.081275,388536,322223
1078.63,0.081754,389855,322960
1082.3,0.080213,391215,325239
1085.96,0.080163,393215,326939
1090.84,0.079052,396270,330323
1094.49,0.078301,398760,332974
1098.14,0.077806,400987,335216
1101.79,0.077020,403477,337908
1105.43,0.076727,406116,340348
1109.06,0.076676,407701,341716
1112.7,0.075937,409859,344110
1117.53,0.075905,412494,346348
1121.15,0.076190,414909,348147
1124.77,0.076057,416559,349639
1128.38,0.077481,418532,350145
1131.99,0.078117,419956,350822
1135.6,0.080031,421946,350934
1139.2,0.081366,423881,351462
1143.99,0.083185,426786,352391
1147.58,0.084087,428617,353169
1151.17,0.084764,431169,354718
1154.75,0.086075,433579,355626
1158.33,0.087488,436264,356666
1161.91,0.088883,439132,357859
1165.48,0.090815,442389,358913
1169.04,0.093268,446101,359886
1173.79,0.096797,451929,361637
1177.34,0.098457,456026,363524
1180.9,0.100852,461306,365710
1184.44,0.102461,467657,369374
1187.99,0.104187,473969,372875
1191.52,0.103623,479856,377997
1195.06,0.103533,487372,383997
1199.76,0.102807,497347,392512
1203.29,0.102343,504311,398433
1206.81,0.102152,511507,404296
1210.33,0.101439,519078,410954
1213.84,0.100423,527163,418333
1217.35,0.100084,534208,424254
1220.85,0.099337,540472,429968
1225.51,0.098600,549929,438235
1229.01,0.098894,556888,443480
1232.5,0.097139,562180,449507
1235.98,0.096955,567975,454333
1239.46,0.095980,574815,460838
1242.94,0.095457,582782,467788
1246.41,0.094327,591476,476003
1251.03,0.094174,604016,486267
1254.5,0.094674,612289,492360
1257.96,0.095520,619125,496888
1261.41,0.095312,624551,501483
1264.86,0.096413,629900,504497
1268.31,0.096232,634345,508269
1271.75,0.097073,638574,510668
1276.33,0.097275,642499,513568
1279.76,0.097378,645905,516168
1283.19,0.096510,648307,519123
1286.61,0.096633,650446,520689
1290.03,0.095991,652132,522811
1293.44,0.095377,653907,524976
1296.85,0.095257,655963,526771
1301.39,0.095369,657349,527748
1304.8,0.095234,657558,528080
1308.19,0.095609,658515,528392
1311.58,0.095439,658804,528831
1314.97,0.095998,659011,528317
1318.36,0.096613,658272,526978
1321.73,0.096998,658022,526311
1326.23,0.098100,657870,524856
1329.6,0.098886,656482,522801
1332.97,0.100090,654926,520118
1336.33,0.100789,653727,518331
1339.69,0.102502,652497,515319
1343.04,0.103829,649913,511713
1346.39,0.105885,647671,507539
1349.73,0.107936,645338,503328
1354.18,0.110750,641175,496851
1357.52,0.112426,638376,492777
1360.85,0.114890,635805,488016
1364.17,0.116346,633413,484553
1367.49,0.119253,631026,479506
1370.81,0.121317,628050,474982
1374.12,0.123422,625034,470415
1378.54,0.126256,620272,463795
1381.84,0.129406,616892,457934
1385.14,0.133547,613613,451178
1388.43,0.137709,611526,445355
1391.72,0.141902,610663,440453
1395.01,0.146858,610634,435435
1398.29,0.151167,611700,431888
1402.66,0.158746,614051,426048
1405.93,0.164273,616268,422179
1409.2,0.169468,617795,418193
1412.46,0.174759,618872,413849
1415.72,0.178620,619795,410798
1418.98,0.182683,620495,407432
1422.23,0.186319,621087,404421
1426.56,0.190441,621375,400786
1429.8,0.192563,621616,398987
1433.04,0.195724,622129,396421
1436.27,0.197287,621526,394614
1439.5,0.199882,621113,392002
1442.72,0.202082,620921,389901
1445.94,0.204719,620270,387134
1450.23,0.207972,618860,383372
1453.44,0.210484,617697,380445
1456.64,0.213157,616264,377233
1459.85,0.215444,614413,374125
1463.04,0.218887,612307,369898
1466.24,0.221181,610032,366582
1469.43,0.224195,607345,362444
1473.67,0.230319,603789,355276
1476.85,0.234583,601175,350282
1480.02,0.240494,597737,343571
1483.19,0.246416,594479,337070
1486.36,0.251874,591232,331043
1489.52,0.256183,587853,325901
1492.68,0.258768,583875,321775
1496.89,0.261270,578062,316741
1500.03,0.261655,574159,314324
1503.18,0.261919,570285,312013
1506.32,0.260510,565444,310370
1509.45,0.259942,560571,308098
1512.58,0.257954,555821,306889
1515.71,0.255690,550344,305453
1519.87,0.252938,543983,303842
1522.99,0.250683,538764,302493
1526.1,0.247970,533692,301523
1529.21,0.245289,527902,300099
1532.32,0.242717,521886,298441
1535.42,0.239232,515888,297388
1538.51,0.236420,509987,295896
1541.6,0.233516,503936,294347
1545.72,0.229061,494694,291928
1548.8,0.226526,488378,289888
1551.88,0.224167,481832,287560
1554.95,0.222198,474989,284764
1558.02,0.221204,467818,281108
1561.08,0.219969,460730,277637
1564.15,0.218414,454170,274666
1568.22,0.217451,444181,269221
1571.27,0.217049,436947,265082
1574.32,0.215232,429598,261716
1577.36,0.214751,422039,257396
1580.4,0.213362,414375,253531
1583.43,0.212203,406354,249288
1586.46,0.210268,398475,245546
1590.49,0.208937,388982,240432
1593.51,0.206491,380708,236647
1596.53,0.204684,372727,232652
1599.54,0.202948,365060,228779
1602.55,0.200793,357543,225183
1605.55,0.198568,349495,221245
1608.55,0.196889,341154,216801
1612.54,0.195090,330877,211143
1615.53,0.192594,322904,207243
1618.51,0.191874,315116,202580
1621.49,0.190651,307217,198059
1624.47,0.188879,299481,193861
1627.44,0.189228,292112,188939
1630.41,0.187419,284245,184618
1634.36,0.187085,274079,178152
1637.32,0.184935,266916,174357
1640.27,0.184538,259612,169741
1643.22,0.184736,251804,164561
1646.16,0.183482,244348,160150
1649.1,0.182577,236703,155463
1652.04,0.181218,228171,150329
1655.95,0.177343,215408,143192
1658.88,0.174520,204937,137120
1661.8,0.168270,193395,131273
1664.72,0.161913,179728,123795
1667.63,0.148528,163642,116243
1670.54,0.132512,146312,107837
1673.44,0.118514,128451,97774
1677.31,0.100239,105080,83422
1680.21,0.090304,88906,72215
1683.1,0.084257,75033,61801
1685.99,0.086240,63520,52080
1688.87,0.086882,53714,43975
1691.75,0.089639,45653,37139
1694.62,0.092241,39137,31648
1697.49,0.102227,33776,26692
1701.31,0.112584,28175,21741

File: Column 1_050587_20150331_121725.csv
Method:,Column 1,,
Host Date-Time:,31/3/15 @ 12:17:25,,
Header Version:,1,,
System Temp (C):,33.8,,
Detector Temp (C):,34.54,,
Humidity (%):,1.86,,
Lamp PD:,3818,,
Shift Vector Coefficients:,-10.5391,0.0761263,-0.000134223,,
Pixel to Wavelength Coefficients:,1775.68,-0.916766,-0.000235065,,
Serial Number:,5510004,,
Scan Config Name:,Column 1,,
Scan Config Type:,Slew,,
Section 1,,
Start wavelength (nm):,900,,
End wavelength (nm):,1700,,
Pattern Pixel Width (nm):,   7.03,,,,
Exposure (ms):,  0.635,,,,
Digital Resolution:,228,,
Num Repeats:,6,,
PGA Gain:,64,,
Total Measurement Time in sec:,  2.671,,
Wavelength (nm),Absorbance (AU),Reference Signal (unitless),Sample Signal (unitless)
901.51,0.069655,108485,92409
905.376,0.075401,121306,101972
909.237,0.078148,131909,110186
913.095,0.078566,143299,119585
916.948,0.080612,156982,130388
922.079,0.080044,179937,149650
925.923,0.083052,200504,165604
929.762,0.082447,222660,184160
933.597,0.083420,244426,201710
937.427,0.081332,263972,218890
941.254,0.081274,281845,233742
945.076,0.080327,297271,247073
950.165,0.079388,315605,262879
953.978,0.078485,328029,273796
957.786,0.078753,340470,284005
961.59,0.078926,352317,293770
965.389,0.079660,363056,302213
969.185,0.079303,373162,310881
972.976,0.079939,382632,318304
976.763,0.080630,391202,324916
981.806,0.081051,400190,332059
985.583,0.081113,406088,336905
989.355,0.081729,410162,339802
993.124,0.082363,412868,341545
996.888,0.082661,414263,342464
1000.65,0.083546,415476,342768
1004.4,0.084741,415479,341828
1009.41,0.086177,414358,339781
1013.15,0.085683,412923,338989
1016.89,0.086250,411526,337402
1020.63,0.086434,409066,335243
1024.36,0.086831,406777,333062
1028.09,0.086164,404427,331647
1031.82,0.086265,401911,329507
1036.78,0.085595,398410,327141
1040.49,0.085461,396204,325430
1044.2,0.085686,394236,323646
1047.91,0.085653,392042,321869
1051.61,0.085416,389823,320222
1055.31,0.084341,388234,319707
1059,0.083954,387599,319469
1063.92,0.083184,386688,319284
1067.61,0.082919,386598,319404
1071.29,0.082402,387377,320429
1074.96,0.081982,388536,321699
1078.63,0.081068,389855,323471
1082.3,0.079894,391215,325478
1085.96,0.080356,393215,326794
1090.84,0.078715,396270,330580
1094.49,0.078316,398760,332963
1098.14,0.077736,400987,335270
1101.79,0.077343,403477,337657
1105.43,0.077511,406116,339734
1109.06,0.076549,407701,341816
1112.7,0.075217,409859,344681
1117.53,0.075694,412494,346516
1121.15,0.076213,414909,348129
1124.77,0.076324,416559,349424
1128.38,0.077834,418532,349860
1131.99,0.077956,419956,350952
1135.6,0.079685,421946,351214
1139.2,0.081112,423881,351667
1143.99,0.083304,426786,352295
1147.58,0.083650,428617,353524
1151.17,0.085162,431169,354393
1154.75,0.085932,433579,355743
1158.33,0.087002,436264,357065
1161.91,0.088878,439132,357863
1165.48,0.091132,442389,358651
1169.04,0.093473,446101,359716
1173.79,0.097464,451929,361082
1177.34,0.098972,456026,363093
1180.9,0.101291,461306,365341
1184.44,0.102153,467657,369636
1187.99,0.103376,473969,373572
1191.52,0.104444,479856,377283
1195.06,0.103593,487372,383944
1199.76,0.103262,497347,392101
1203.29,0.102336,504311,398440
1206.81,0.101906,511507,404525
1210.33,0.101483,519078,410913
1213.84,0.100486,527163,418272
1217.35,0.100191,534208,424150
1220.85,0.099070,540472,430232
1225.51,0.098790,549929,438043
1229.01,0.098357,556888,444029
1232.5,0.097566,562180,449065
1235.98,0.097185,567975,454092
1239.46,0.096170,574815,460636
1242.94,0.094869,582782,468422
1246.41,0.094475,591476,475841
1251.03,0.094473,604016,485932
1254.5,0.094485,612289,492574
1257.96,0.094951,619125,497539
1261.41,0.095402,624551,501379
1264.86,0.095903,629900,505090
1268.31,0.096105,634345,508418
1271.75,0.096881,638574,510893
1276.33,0.097281,642499,513560
1279.76,0.097540,645905,515975
1283.19,0.096531,648307,519098
1286.61,0.096501,650446,520847
1290.03,0.095861,652132,522967
1293.44,0.095497,653907,524830
1296.85,0.095658,655963,526285
1301.39,0.095010,657349,528185
1304.8,0.095340,657558,527951
1308.19,0.095727,658515,528249
1311.58,0.095263,658804,529046
1314.97,0.095584,659011,528821
1318.36,0.096219,658272,527456
1321.73,0.097102,658022,526185
1326.23,0.097543,657870,525530
1329.6,0.098451,656482,523326
1332.97,0.099918,654926,520325
1336.33,0.100669,653727,518475
1339.69,0.102600,652497,515203
1343.04,0.103834,649913,511707
1346.39,0.106056,647671,507339
1349.73,0.107852,645338,503425
1354.18,0.110880,641175,496703
1357.52,0.112968,638376,492162
1360.85,0.114834,635805,488079
1364.17,0.116521,633413,484357
1367.49,0.119017,631026,479767
1370.81,0.120783,628050,475567
1374.12,0.123464,625034,470370
1378.54,0.126666,620272,463358
1381.84,0.129331,616892,458013
1385.14,0.133391,613613,451340
1388.43,0.136850,611526,446236
1391.72,0.141648,610663,440711
1395.01,0.146596,610634,435697
1398.29,0.151410,611700,431647
1402.66,0.158171,614051,426612
1405.93,0.163663,616268,422772
1409.2,0.169364,617795,418293
1412.46,0.173539,618872,415013
1415.72,0.178885,619795,410547
1418.98,0.182106,620495,407974
1422.23,0.185579,621087,405110
1426.56,0.189563,621375,401597
1429.8,0.192427,621616,399112
1433.04,0.195087,622129,397003
1436.27,0.197410,621526,394502
1439.5,0.199693,621113,392173
1442.72,0.202152,620921,389838
1445.94,0.204173,620270,387621
1450.23,0.207521,618860,383770
1453.44,0.210373,617697,380542
1456.64,0.212758,616264,377580
1459.85,0.215387,614413,374174
1463.04,0.218136,612307,370538
1466.24,0.221170,610032,366592
1469.43,0.224135,607345,362494
1473.67,0.229555,603789,355902
1476.85,0.234757,601175,350142
1480.02,0.240449,597737,343606
1483.19,0.245936,594479,337443
1486.36,0.251552,591232,331288
1489.52,0.255875,587853,326132
1492.68,0.259093,583875,321534
1496.89,0.261215,578062,316781
1500.03,0.261605,574159,314360
1503.18,0.261374,570285,312405
1506.32,0.260609,565444,310299
1509.45,0.258997,560571,308769
1512.58,0.258091,555821,306792
1515.71,0.255151,550344,305832
1519.87,0.251682,543983,304722
1522.99,0.250072,538764,302919
1526.1,0.247800,533692,301641
1529.21,0.244634,527902,300552
1532.32,0.242138,521886,298839
1535.42,0.238444,515888,297928
1538.51,0.236483,509987,295853
1541.6,0.233377,503936,294441
1545.72,0.229805,494694,291428
1548.8,0.225997,488378,290241
1551.88,0.223729,481832,287850
1554.95,0.221827,474989,285008
1558.02,0.220984,467818,281250
1561.08,0.219231,460730,278109
1564.15,0.218907,454170,274354
1568.22,0.217006,444181,269497
1571.27,0.216935,436947,265151
1574.32,0.218411,429598,259807
1577.36,0.214628,422039,257469
1580.4,0.213231,414375,253608
1583.43,0.212140,406354,249324
1586.46,0.210967,398475,245151
1590.49,0.208618,388982,240609
1593.51,0.206196,380708,236808
1596.53,0.203117,372727,233493
1599.54,0.201608,365060,229486
1602.55,0.201165,357543,224990
1605.55,0.198882,349495,221085
1608.55,0.196419,341154,217036
1612.54,0.194262,330877,211546
1615.53,0.193575,322904,206775
1618.51,0.191552,315116,202730
1621.49,0.191463,307217,197689
1624.47,0.189206,299481,193715
1627.44,0.188741,292112,189151
1630.41,0.187548,284245,184563
1634.36,0.186418,274079,178426
1637.32,0.185444,266916,174153
1640.27,0.184935,259612,169586
1643.22,0.183900,251804,164878
1646.16,0.182385,244348,160555
1649.1,0.183010,236703,155308
1652.04,0.179669,228171,150866
1655.95,0.176646,215408,143422
1658.88,0.174592,204937,137097
1661.8,0.167823,193395,131408
1664.72,0.160784,179728,124117
1667.63,0.151057,163642,115568
1670.54,0.134312,146312,107391
1673.44,0.119381,128451,97579
1677.31,0.100505,105080,83371
1680.21,0.090544,88906,72175
1683.1,0.083274,75033,61941
1685.99,0.085889,63520,52122
1688.87,0.085432,53714,44122
1691.75,0.094082,45653,36761
1694.62,0.094705,39137,31469
1697.49,0.108372,33776,26317
1701.31,0.114366,28175,21652

File: Column 1_050587_20150331_121728.csv
Method:,Column 1,,
Host Date-Time:,31/3/15 @ 12:17:28,,
Header Version:,1,,
System Temp (C):,33.83,,
Detector Temp (C):,34.54,,
Humidity (%):,1.86,,
Lamp PD:,3819,,
Shift Vector Coefficients:,-10.5391,0.0761263,-0.000134223,,
Pixel to Wavelength Coefficients:,1775.68,-0.916766,-0.000235065,,
Serial Number:,5510004,,
Scan Config Name:,Column 1,,
Scan Config Type:,Slew,,
Section 1,,
Start wavelength (nm):,900,,
End wavelength (nm):,1700,,
Pattern Pixel Width (nm):,   7.03,,,,
Exposure (ms):,  0.635,,,,
Digital Resolution:,228,,
Num Repeats:,6,,
PGA Gain:,64,,
Total Measurement Time in sec:,  2.674,,
Wavelength (nm),Absorbance (AU),Reference Signal (unitless),Sample Signal (unitless)
901.51,0.069021,108485,92544
905.376,0.074308,121306,102229
909.237,0.076508,131909,110603
913.095,0.078639,143299,119565
916.948,0.079827,156982,130624
922.079,0.080476,179937,149501
925.923,0.081829,200504,166071
929.762,0.082600,222660,184095
933.597,0.082220,244426,202268
937.427,0.081622,263972,218744
941.254,0.081874,281845,233419
945.076,0.080130,297271,247185
950.165,0.079373,315605,262888
953.978,0.078880,328029,273547
957.786,0.079129,340470,283759
961.59,0.079392,352317,293455
965.389,0.079479,363056,302339
969.185,0.079446,373162,310779
972.976,0.079821,382632,318391
976.763,0.079818,391202,325524
981.806,0.080575,400190,332423
985.583,0.081411,406088,336674
989.355,0.081676,410162,339844
993.124,0.082237,412868,341644
996.888,0.082325,414263,342729
1000.65,0.083329,415476,342939
1004.4,0.084459,415479,342050
1009.41,0.085724,414358,340135
1013.15,0.085645,412923,339019
1016.89,0.086626,411526,337110
1020.63,0.086868,409066,334908
1024.36,0.086414,406777,333382
1028.09,0.086092,404427,331702
1031.82,0.086252,401911,329517
1036.78,0.085682,398410,327076
1040.49,0.085651,396204,325288
1044.2,0.085744,394236,323603
1047.91,0.085388,392042,322066
1051.61,0.084985,389823,320540
1055.31,0.084681,388234,319457
1059,0.084102,387599,319360
1063.92,0.083390,386688,319132
1067.61,0.082978,386598,319361
1071.29,0.082441,387377,320400
1074.96,0.081973,388536,321705
1078.63,0.081709,389855,322994
1082.3,0.080368,391215,325123
1085.96,0.079399,393215,327515
1090.84,0.079154,396270,330246
1094.49,0.078329,398760,332953
1098.14,0.077061,400987,335791
1101.79,0.077367,403477,337638
1105.43,0.077061,406116,340086
1109.06,0.075629,407701,342541
1112.7,0.075926,409859,344119
1117.53,0.074637,412494,347361
1121.15,0.076084,414909,348232
1124.77,0.076044,416559,349649
1128.38,0.077386,418532,350221
1131.99,0.078355,419956,350630
1135.6,0.079885,421946,351052
1139.2,0.081010,423881,351750
1143.99,0.083427,426786,352195
1147.58,0.083787,428617,353413
1151.17,0.084433,431169,354989
1154.75,0.086497,433579,355280
1158.33,0.087189,436264,356911
1161.91,0.089403,439132,357431
1165.48,0.090945,442389,358806
1169.04,0.093829,446101,359422
1173.79,0.096922,451929,361533
1177.34,0.098693,456026,363326
1180.9,0.100933,461306,365642
1184.44,0.102421,467657,369408
1187.99,0.103470,473969,373491
1191.52,0.103342,479856,378241
1195.06,0.103536,487372,383994
1199.76,0.102965,497347,392369
1203.29,0.102018,504311,398731
1206.81,0.101548,511507,404859
1210.33,0.101080,519078,411294
1213.84,0.100984,527163,417793
1217.35,0.099792,534208,424540
1220.85,0.098950,540472,430351
1225.51,0.098395,549929,438441
1229.01,0.098196,556888,444193
1232.5,0.097433,562180,449203
1235.98,0.097139,567975,454141
1239.46,0.096190,574815,460615
1242.94,0.095185,582782,468081
1246.41,0.094554,591476,475755
1251.03,0.094236,604016,486197
1254.5,0.094817,612289,492197
1257.96,0.094955,619125,497535
1261.41,0.095377,624551,501408
1264.86,0.096034,629900,504938
1268.31,0.096579,634345,507863
1271.75,0.097111,638574,510623
1276.33,0.097416,642499,513401
1279.76,0.097562,645905,515949
1283.19,0.096386,648307,519272
1286.61,0.096353,650446,521025
1290.03,0.096100,652132,522679
1293.44,0.095494,653907,524834
1296.85,0.095217,655963,526820
1301.39,0.095110,657349,528063
1304.8,0.095172,657558,528156
1308.19,0.095088,658515,529027
1311.58,0.095491,658804,528768
1314.97,0.096140,659011,528144
1318.36,0.096329,658272,527323
1321.73,0.096713,658022,526657
1326.23,0.097695,657870,525345
1329.6,0.098753,656482,522962
1332.97,0.099632,654926,520667
1336.33,0.100552,653727,518614
1339.69,0.102507,652497,515313
1343.04,0.104055,649913,511447
1346.39,0.105833,647671,507600
1349.73,0.107821,645338,503461
1354.18,0.110453,641175,497191
1357.52,0.112681,638376,492488
1360.85,0.115065,635805,487819
1364.17,0.117043,633413,483776
1367.49,0.118884,631026,479914
1370.81,0.121164,628050,475149
1374.12,0.123479,625034,470354
1378.54,0.126532,620272,463500
1381.84,0.129615,616892,457714
1385.14,0.133120,613613,451621
1388.43,0.137467,611526,445603
1391.72,0.141735,610663,440622
1395.01,0.146088,610634,436207
1398.29,0.151525,611700,431532
1402.66,0.157849,614051,426929
1405.93,0.163831,616268,422609
1409.2,0.169268,617795,418385
1412.46,0.174071,618872,414505
1415.72,0.178277,619795,411122
1418.98,0.182158,620495,407925
1422.23,0.185897,621087,404814
1426.56,0.189524,621375,401633
1429.8,0.192417,621616,399122
1433.04,0.195242,622129,396861
1436.27,0.197178,621526,394713
1439.5,0.199048,621113,392756
1442.72,0.201622,620921,390314
1445.94,0.203634,620270,388103
1450.23,0.207141,618860,384106
1453.44,0.210050,617697,380825
1456.64,0.212703,616264,377628
1459.85,0.215162,614413,374368
1463.04,0.217474,612307,371104
1466.24,0.220946,610032,366781
1469.43,0.224311,607345,362347
1473.67,0.229394,603789,356034
1476.85,0.234759,601175,350140
1480.02,0.239995,597737,343966
1483.19,0.245680,594479,337642
1486.36,0.251417,591232,331391
1489.52,0.255666,587853,326289
1492.68,0.258658,583875,321856
1496.89,0.259998,578062,317670
1500.03,0.261454,574159,314469
1503.18,0.261217,570285,312518
1506.32,0.260264,565444,310546
1509.45,0.259232,560571,308602
1512.58,0.257640,555821,307111
1515.71,0.255917,550344,305293
1519.87,0.251964,543983,304524
1522.99,0.250246,538764,302798
1526.1,0.247141,533692,302099
1529.21,0.244544,527902,300614
1532.32,0.241756,521886,299102
1535.42,0.238934,515888,297592
1538.51,0.236250,509987,296012
1541.6,0.233584,503936,294301
1545.72,0.229308,494694,291762
1548.8,0.226559,488378,289866
1551.88,0.224120,481832,287591
1554.95,0.222017,474989,284883
1558.02,0.220653,467818,281465
1561.08,0.218935,460730,278299
1564.15,0.218259,454170,274764
1568.22,0.217851,444181,268973
1571.27,0.216541,436947,265392
1574.32,0.216933,429598,260693
1577.36,0.214641,422039,257461
1580.4,0.213686,414375,253342
1583.43,0.211820,406354,249508
1586.46,0.209620,398475,245913
1590.49,0.207785,388982,241071
1593.51,0.206183,380708,236815
1596.53,0.203662,372727,233200
1599.54,0.202208,365060,229169
1602.55,0.199945,357543,225623
1605.55,0.198509,349495,221275
1608.55,0.196299,341154,217096
1612.54,0.194763,330877,211302
1615.53,0.193311,322904,206901
1618.51,0.192084,315116,202482
1621.49,0.190587,307217,198088
1624.47,0.189780,299481,193459
1627.44,0.189205,292112,188949
1630.41,0.187689,284245,184503
1634.36,0.185537,274079,178788
1637.32,0.185309,266916,174207
1640.27,0.184267,259612,169847
1643.22,0.183071,251804,165193
1646.16,0.182910,244348,160361
1649.1,0.182018,236703,155663
1652.04,0.179701,228171,150855
1655.95,0.177422,215408,143166
1658.88,0.174282,204937,137195
1661.8,0.168492,193395,131206
1664.72,0.160634,179728,124160
1667.63,0.148969,163642,116125
1670.54,0.135933,146312,106991
1673.44,0.119274,128451,97603
1677.31,0.101543,105080,83172
1680.21,0.087092,88906,72751
1683.1,0.085742,75033,61590
1685.99,0.085773,63520,52136
1688.87,0.087089,53714,43954
1691.75,0.087900,45653,37288
1694.62,0.092914,39137,31599
1697.49,0.101674,33776,26726
1701.31,0.106652,28175,22040