Folder: textile_sorting_NIRSCAN_/samples/wool/wool-000811 (part 56)

File: Column 1_050561_20150331_120502.csv
Method:,Column 1,,
Host Date-Time:,31/3/15 @ 12:5:2,,
Header Version:,1,,
System Temp (C):,33.72,,
Detector Temp (C):,33.27,,
Humidity (%):,2.05,,
Lamp PD:,3819,,
Shift Vector Coefficients:,-10.5391,0.0761263,-0.000134223,,
Pixel to Wavelength Coefficients:,1775.68,-0.916766,-0.000235065,,
Serial Number:,5510004,,
Scan Config Name:,Column 1,,
Scan Config Type:,Slew,,
Section 1,,
Start wavelength (nm):,900,,
End wavelength (nm):,1700,,
Pattern Pixel Width (nm):,   7.03,,,,
Exposure (ms):,  0.635,,,,
Digital Resolution:,228,,
Num Repeats:,6,,
PGA Gain:,64,,
Total Measurement Time in sec:,  2.677,,
Wavelength (nm),Absorbance (AU),Reference Signal (unitless),Sample Signal (unitless)
901.51,0.034714,108485,100151
905.376,0.039927,121306,110651
909.237,0.040128,131909,120267
913.095,0.041412,143299,130266
916.948,0.044287,156982,141763
922.079,0.046641,179937,161614
925.923,0.046308,200504,180225
929.762,0.047382,222660,199646
933.597,0.047916,244426,218893
937.427,0.046806,263972,237002
941.254,0.046958,281845,252960
945.076,0.045788,297271,267525
950.165,0.046084,315605,283831
953.978,0.045809,328029,295191
957.786,0.046074,340470,306200
961.59,0.045770,352317,317076
965.389,0.046552,363056,326153
969.185,0.046777,373162,335058
972.976,0.047015,382632,343373
976.763,0.047293,391202,350839
981.806,0.048240,400190,358118
985.583,0.048528,406088,363155
989.355,0.049202,410162,366230
993.124,0.050091,412868,367892
996.888,0.050655,414263,368656
1000.65,0.051380,415476,369119
1004.4,0.052106,415479,368505
1009.41,0.053672,414358,366188
1013.15,0.053865,412923,364757
1016.89,0.055126,411526,362469
1020.63,0.054652,409066,360696
1024.36,0.054772,406777,358579
1028.09,0.054106,404427,357054
1031.82,0.053801,401911,355082
1036.78,0.053985,398410,351840
1040.49,0.053272,396204,350467
1044.2,0.053237,394236,348754
1047.91,0.052559,392042,347355
1051.61,0.051823,389823,345975
1055.31,0.051412,388234,344891
1059,0.051365,387599,344364
1063.92,0.049966,386688,344663
1067.61,0.049291,386598,345119
1071.29,0.048982,387377,346060
1074.96,0.048129,388536,347778
1078.63,0.048334,389855,348794
1082.3,0.047061,391215,351038
1085.96,0.046699,393215,353127
1090.84,0.045650,396270,356731
1094.49,0.045680,398760,358948
1098.14,0.044578,400987,361870
1101.79,0.044645,403477,364061
1105.43,0.044175,406116,366839
1109.06,0.044027,407701,368396
1112.7,0.043621,409859,370692
1117.53,0.044001,412494,372749
1121.15,0.045290,414909,373820
1124.77,0.045300,416559,375298
1128.38,0.046774,418532,375798
1131.99,0.047985,419956,376027
1135.6,0.049887,421946,376158
1139.2,0.051241,423881,376706
1143.99,0.054445,426786,376500
1147.58,0.054599,428617,377981
1151.17,0.056548,431169,378529
1154.75,0.058077,433579,379307
1158.33,0.059698,436264,380234
1161.91,0.061484,439132,381163
1165.48,0.064276,442389,381530
1169.04,0.066549,446101,382723
1173.79,0.070391,451929,384308
1177.34,0.072535,456026,385882
1180.9,0.074784,461306,388334
1184.44,0.076535,467657,392096
1187.99,0.077112,473969,396861
1191.52,0.077732,479856,401217
1195.06,0.077639,487372,407588
1199.76,0.076418,497347,417101
1203.29,0.075219,504311,424111
1206.81,0.074359,511507,431015
1210.33,0.073540,519078,438220
1213.84,0.072909,527163,445693
1217.35,0.072377,534208,452203
1220.85,0.071178,540472,458770
1225.51,0.070839,549929,467162
1229.01,0.069870,556888,474131
1232.5,0.069118,562180,479466
1235.98,0.068407,567975,485202
1239.46,0.067322,574815,492273
1242.94,0.066297,582782,500275
1246.41,0.066166,591476,507892
1251.03,0.066068,604016,518777
1254.5,0.066392,612289,525490
1257.96,0.066264,619125,531514
1261.41,0.067093,624551,535149
1264.86,0.067474,629900,539259
1268.31,0.068134,634345,542240
1271.75,0.068819,638574,544995
1276.33,0.069338,642499,547690
1279.76,0.069489,645905,550401
1283.19,0.068687,648307,553469
1286.61,0.068151,650446,555982
1290.03,0.068180,652132,557385
1293.44,0.067468,653907,559819
1296.85,0.067300,655963,561797
1301.39,0.066836,657349,563586
1304.8,0.067004,657558,563547
1308.19,0.067610,658515,563580
1311.58,0.067546,658804,563910
1314.97,0.068073,659011,563404
1318.36,0.068410,658272,562335
1321.73,0.068652,658022,561809
1326.23,0.070023,657870,559908
1329.6,0.070663,656482,557904
1332.97,0.071482,654926,555533
1336.33,0.073313,653727,552184
1339.69,0.074847,652497,549201
1343.04,0.076638,649913,544775
1346.39,0.078713,647671,540308
1349.73,0.081059,645338,535462
1354.18,0.084146,641175,528239
1357.52,0.086518,638376,523069
1360.85,0.088754,635805,518286
1364.17,0.091070,633413,513591
1367.49,0.093266,631026,509074
1370.81,0.095799,628050,503727
1374.12,0.098393,625034,498323
1378.54,0.101771,620272,490694
1381.84,0.105041,616892,484360
1385.14,0.109336,613613,477044
1388.43,0.113778,611526,470584
1391.72,0.118739,610663,464582
1395.01,0.123615,610634,459374
1398.29,0.129017,611700,454487
1402.66,0.136322,614051,448624
1405.93,0.142631,616268,443750
1409.2,0.148231,617795,439151
1412.46,0.153648,618872,434463
1415.72,0.158066,619795,430707
1418.98,0.162227,620495,427082
1422.23,0.166272,621087,423526
1426.56,0.170678,621375,419446
1429.8,0.173677,621616,416721
1433.04,0.175904,622129,414932
1436.27,0.178523,621526,412037
1439.5,0.180622,621113,409778
1442.72,0.183532,620921,406916
1445.94,0.185684,620270,404480
1450.23,0.189567,618860,399968
1453.44,0.191911,617697,397068
1456.64,0.194854,616264,393471
1459.85,0.198235,614413,389247
1463.04,0.200972,612307,385476
1466.24,0.204526,610032,380914
1469.43,0.207891,607345,376309
1473.67,0.213152,603789,369601
1476.85,0.218966,601175,363107
1480.02,0.225176,597737,355905
1483.19,0.231731,594479,348663
1486.36,0.237436,591232,342233
1489.52,0.242424,587853,336391
1492.68,0.245910,583875,331444
1496.89,0.249085,578062,325754
1500.03,0.249085,574159,323554
1503.18,0.249256,570285,321245
1506.32,0.248091,565444,319373
1509.45,0.246794,560571,317568
1512.58,0.245407,555821,315884
1515.71,0.242733,550344,314703
1519.87,0.240020,543983,313015
1522.99,0.237522,538764,311800
1526.1,0.234860,533692,310764
1529.21,0.231208,527902,309988
1532.32,0.228130,521886,308635
1535.42,0.225420,515888,306998
1538.51,0.222000,509987,305886
1541.6,0.219408,503936,304066
1545.72,0.214717,494694,301731
1548.8,0.211033,488378,300416
1551.88,0.208687,481832,297995
1554.95,0.206735,474989,295086
1558.02,0.204583,467818,292075
1561.08,0.203594,460730,288305
1564.15,0.202985,454170,284599
1568.22,0.201539,444181,279268
1571.27,0.201071,436947,275016
1574.32,0.199960,429598,271083
1577.36,0.198477,422039,267224
1580.4,0.196420,414375,263617
1583.43,0.195690,406354,258949
1586.46,0.193759,398475,255060
1590.49,0.191621,388982,250212
1593.51,0.189339,380708,246180
1596.53,0.186710,372727,242483
1599.54,0.184663,365060,238617
1602.55,0.181987,357543,235148
1605.55,0.179782,349495,231025
1608.55,0.177771,341154,226558
1612.54,0.175294,330877,220990
1615.53,0.173632,322904,216492
1618.51,0.172633,315116,211757
1621.49,0.171544,307217,206967
1624.47,0.169946,299481,202499
1627.44,0.168122,292112,198348
1630.41,0.167967,284245,193075
1634.36,0.166027,274079,187003
1637.32,0.164624,266916,182705
1640.27,0.165366,259612,177402
1643.22,0.163838,251804,172673
1646.16,0.162979,244348,167892
1649.1,0.161816,236703,163075
1652.04,0.161413,228171,157343
1655.95,0.158499,215408,149542
1658.88,0.155153,204937,143373
1661.8,0.152820,193395,136027
1664.72,0.145017,179728,128706
1667.63,0.135141,163642,119882
1670.54,0.124496,146312,109846
1673.44,0.112699,128451,99092
1677.31,0.097903,105080,83872
1680.21,0.090695,88906,72150
1683.1,0.090649,75033,60898
1685.99,0.091930,63520,51402
1688.87,0.101157,53714,42553
1691.75,0.101637,45653,36127
1694.62,0.111131,39137,30301
1697.49,0.107729,33776,26356
1701.31,0.119227,28175,21411

File: Column 1_050561_20150331_120505.csv
Method:,Column 1,,
Host Date-Time:,31/3/15 @ 12:5:5,,
Header Version:,1,,
System Temp (C):,33.73,,
Detector Temp (C):,33.27,,
Humidity (%):,2.1,,
Lamp PD:,3819,,
Shift Vector Coefficients:,-10.5391,0.0761263,-0.000134223,,
Pixel to Wavelength Coefficients:,1775.68,-0.916766,-0.000235065,,
Serial Number:,5510004,,
Scan Config Name:,Column 1,,
Scan Config Type:,Slew,,
Section 1,,
Start wavelength (nm):,900,,
End wavelength (nm):,1700,,
Pattern Pixel Width (nm):,   7.03,,,,
Exposure (ms):,  0.635,,,,
Digital Resolution:,228,,
Num Repeats:,6,,
PGA Gain:,64,,
Total Measurement Time in sec:,  2.670,,
Wavelength (nm),Absorbance (AU),Reference Signal (unitless),Sample Signal (unitless)
901.51,0.032841,108485,100584
905.376,0.041311,121306,110299
909.237,0.040999,131909,120026
913.095,0.043578,143299,129618
916.948,0.045035,156982,141519
922.079,0.046129,179937,161805
925.923,0.046347,200504,180209
929.762,0.047734,222660,199484
933.597,0.047047,244426,219331
937.427,0.047303,263972,236731
941.254,0.047723,281845,252515
945.076,0.046892,297271,266846
950.165,0.046294,315605,283694
953.978,0.045981,328029,295074
957.786,0.046535,340470,305875
961.59,0.046541,352317,316514
965.389,0.046299,363056,326343
969.185,0.046851,373162,335001
972.976,0.046839,382632,343512
976.763,0.047905,391202,350345
981.806,0.047892,400190,358405
985.583,0.049611,406088,362251
989.355,0.049566,410162,365923
993.124,0.049986,412868,367981
996.888,0.050953,414263,368403
1000.65,0.051836,415476,368731
1004.4,0.052255,415479,368378
1009.41,0.054253,414358,365698
1013.15,0.054447,412923,364269
1016.89,0.055426,411526,362219
1020.63,0.054829,409066,360549
1024.36,0.054741,406777,358604
1028.09,0.054651,404427,356606
1031.82,0.054581,401911,354445
1036.78,0.053532,398410,352207
1040.49,0.053468,396204,350309
1044.2,0.052862,394236,349055
1047.91,0.053376,392042,346702
1051.61,0.052148,389823,345716
1055.31,0.051689,388234,344671
1059,0.050982,387599,344668
1063.92,0.050349,386688,344359
1067.61,0.049603,386598,344871
1071.29,0.049212,387377,345877
1074.96,0.048219,388536,347706
1078.63,0.047205,389855,349702
1082.3,0.047339,391215,350814
1085.96,0.046291,393215,353459
1090.84,0.045933,396270,356499
1094.49,0.045407,398760,359174
1098.14,0.045178,400987,361370
1101.79,0.044645,403477,364061
1105.43,0.045037,406116,366111
1109.06,0.043921,407701,368486
1112.7,0.044306,409859,370108
1117.53,0.044515,412494,372308
1121.15,0.044829,414909,374217
1124.77,0.045223,416559,375365
1128.38,0.046783,418532,375790
1131.99,0.047853,419956,376141
1135.6,0.049994,421946,376065
1139.2,0.051694,423881,376314
1143.99,0.054114,426786,376787
1147.58,0.055299,428617,377373
1151.17,0.056101,431169,378919
1154.75,0.057767,433579,379578
1158.33,0.059585,436264,380333
1161.91,0.061511,439132,381140
1165.48,0.064785,442389,381083
1169.04,0.066349,446101,382899
1173.79,0.070507,451929,384205
1177.34,0.072933,456026,385529
1180.9,0.075125,461306,388029
1184.44,0.076953,467657,391719
1187.99,0.077563,473969,396449
1191.52,0.077514,479856,401418
1195.06,0.077096,487372,408098
1199.76,0.076378,497347,417140
1203.29,0.075153,504311,424175
1206.81,0.074434,511507,430941
1210.33,0.073711,519078,438048
1213.84,0.072753,527163,445853
1217.35,0.072420,534208,452158
1220.85,0.071776,540472,458139
1225.51,0.070681,549929,467332
1229.01,0.069738,556888,474275
1232.5,0.069532,562180,479009
1235.98,0.068786,567975,484778
1239.46,0.067619,574815,491936
1242.94,0.066534,582782,500002
1246.41,0.066173,591476,507884
1251.03,0.066182,604016,518640
1254.5,0.066147,612289,525786
1257.96,0.066479,619125,531250
1261.41,0.066920,624551,535363
1264.86,0.067660,629900,539028
1268.31,0.068381,634345,541932
1271.75,0.069116,638574,544622
1276.33,0.069610,642499,547347
1279.76,0.069222,645905,550740
1283.19,0.068775,648307,553358
1286.61,0.068264,650446,555837
1290.03,0.068119,652132,557463
1293.44,0.067485,653907,559797
1296.85,0.067342,655963,561743
1301.39,0.067238,657349,563064
1304.8,0.067409,657558,563021
1308.19,0.067408,658515,563842
1311.58,0.067522,658804,563942
1314.97,0.068444,659011,562922
1318.36,0.068536,658272,562172
1321.73,0.068956,658022,561415
1326.23,0.069878,657870,560095
1329.6,0.071088,656482,557359
1332.97,0.071829,654926,555090
1336.33,0.073513,653727,551929
1339.69,0.074665,652497,549431
1343.04,0.076645,649913,544766
1346.39,0.078868,647671,540115
1349.73,0.080948,645338,535598
1354.18,0.084144,641175,528241
1357.52,0.086762,638376,522775
1360.85,0.088975,635805,518023
1364.17,0.091014,633413,513657
1367.49,0.093724,631026,508538
1370.81,0.095743,628050,503792
1374.12,0.098406,625034,498308
1378.54,0.101873,620272,490579
1381.84,0.105263,616892,484112
1385.14,0.109503,613613,476861
1388.43,0.113822,611526,470536
1391.72,0.118814,610663,464502
1395.01,0.123598,610634,459392
1398.29,0.128957,611700,454550
1402.66,0.136817,614051,448113
1405.93,0.142878,616268,443498
1409.2,0.148654,617795,438723
1412.46,0.153516,618872,434595
1415.72,0.158048,619795,430725
1418.98,0.162517,620495,426797
1422.23,0.166296,621087,423503
1426.56,0.170593,621375,419528
1429.8,0.173579,621616,416815
1433.04,0.176240,622129,414611
1436.27,0.178333,621526,412217
1439.5,0.180729,621113,409677
1442.72,0.183556,620921,406893
1445.94,0.185705,620270,404460
1450.23,0.188976,618860,400513
1453.44,0.192397,617697,396624
1456.64,0.194771,616264,393546
1459.85,0.198070,614413,389395
1463.04,0.200694,612307,385723
1466.24,0.204049,610032,381332
1469.43,0.208078,607345,376147
1473.67,0.213596,603789,369223
1476.85,0.219943,601175,362291
1480.02,0.225269,597737,355829
1483.19,0.231585,594479,348780
1486.36,0.237887,591232,341878
1489.52,0.242453,587853,336369
1492.68,0.245802,583875,331526
1496.89,0.249089,578062,325751
1500.03,0.248855,574159,323726
1503.18,0.249499,570285,321065
1506.32,0.248015,565444,319429
1509.45,0.247210,560571,317264
1512.58,0.245775,555821,315617
1515.71,0.243125,550344,314419
1519.87,0.239223,543983,313590
1522.99,0.237918,538764,311516
1526.1,0.234870,533692,310757
1529.21,0.231597,527902,309711
1532.32,0.227889,521886,308807
1535.42,0.225244,515888,307122
1538.51,0.222615,509987,305453
1541.6,0.218734,503936,304538
1545.72,0.215061,494694,301492
1548.8,0.211186,488378,300310
1551.88,0.209009,481832,297774
1554.95,0.207016,474989,294895
1558.02,0.205129,467818,291708
1561.08,0.204111,460730,287962
1564.15,0.202730,454170,284766
1568.22,0.202183,444181,278854
1571.27,0.200735,436947,275229
1574.32,0.199845,429598,271155
1577.36,0.198349,422039,267303
1580.4,0.197253,414375,263112
1583.43,0.195970,406354,258782
1586.46,0.194161,398475,254824
1590.49,0.191477,388982,250295
1593.51,0.189214,380708,246251
1596.53,0.187091,372727,242270
1599.54,0.184898,365060,238488
1602.55,0.183091,357543,234551
1605.55,0.180687,349495,230544
1608.55,0.178323,341154,226270
1612.54,0.176234,330877,220512
1615.53,0.174324,322904,216147
1618.51,0.172557,315116,211794
1621.49,0.172481,307217,206521
1624.47,0.170545,299481,202220
1627.44,0.168214,292112,198306
1630.41,0.167245,284245,193396
1634.36,0.167085,274079,186548
1637.32,0.166337,266916,181986
1640.27,0.164591,259612,177719
1643.22,0.163130,251804,172955
1646.16,0.162250,244348,168174
1649.1,0.162715,236703,162738
1652.04,0.161270,228171,157395
1655.95,0.158284,215408,149616
1658.88,0.154309,204937,143652
1661.8,0.152086,193395,136257
1664.72,0.144936,179728,128730
1667.63,0.135630,163642,119747
1670.54,0.124144,146312,109935
1673.44,0.113875,128451,98824
1677.31,0.097820,105080,83888
1680.21,0.092661,88906,71824
1683.1,0.091506,75033,60778
1685.99,0.090783,63520,51538
1688.87,0.101208,53714,42548
1691.75,0.104641,45653,35878
1694.62,0.110830,39137,30322
1697.49,0.106906,33776,26406
1701.31,0.123671,28175,21193

File: Column 1_050561_20150331_120507.csv
Method:,Column 1,,
Host Date-Time:,31/3/15 @ 12:5:7,,
Header Version:,1,,
System Temp (C):,33.73,,
Detector Temp (C):,33.3,,
Humidity (%):,2.1,,
Lamp PD:,3819,,
Shift Vector Coefficients:,-10.5391,0.0761263,-0.000134223,,
Pixel to Wavelength Coefficients:,1775.68,-0.916766,-0.000235065,,
Serial Number:,5510004,,
Scan Config Name:,Column 1,,
Scan Config Type:,Slew,,
Section 1,,
Start wavelength (nm):,900,,
End wavelength (nm):,1700,,
Pattern Pixel Width (nm):,   7.03,,,,
Exposure (ms):,  0.635,,,,
Digital Resolution:,228,,
Num Repeats:,6,,
PGA Gain:,64,,
Total Measurement Time in sec:,  2.672,,
Wavelength (nm),Absorbance (AU),Reference Signal (unitless),Sample Signal (unitless)
901.51,0.035704,108485,99923
905.376,0.038696,121306,110965
909.237,0.041655,131909,119845
913.095,0.043715,143299,129577
916.948,0.045364,156982,141412
922.079,0.046027,179937,161843
925.923,0.046207,200504,180267
929.762,0.047314,222660,199677
933.597,0.047348,244426,219179
937.427,0.047697,263972,236516
941.254,0.046708,281845,253106
945.076,0.047491,297271,266478
950.165,0.046070,315605,283840
953.978,0.045384,328029,295480
957.786,0.045804,340470,306390
961.59,0.047260,352317,315990
965.389,0.046226,363056,326398
969.185,0.046731,373162,335094
972.976,0.047212,382632,343217
976.763,0.047703,391202,350508
981.806,0.048500,400190,357904
985.583,0.049197,406088,362596
989.355,0.049535,410162,365949
993.124,0.050084,412868,367898
996.888,0.050207,414263,369036
1000.65,0.051387,415476,369113
1004.4,0.052451,415479,368212
1009.41,0.053744,414358,366127
1013.15,0.054610,412923,364132
1016.89,0.054882,411526,362673
1020.63,0.054817,409066,360559
1024.36,0.054889,406777,358482
1028.09,0.054453,404427,356769
1031.82,0.054161,401911,354788
1036.78,0.053494,398410,352238
1040.49,0.053290,396204,350452
1044.2,0.053358,394236,348657
1047.91,0.053222,392042,346825
1051.61,0.052375,389823,345535
1055.31,0.051443,388234,344866
1059,0.050902,387599,344731
1063.92,0.050098,386688,344558
1067.61,0.049373,386598,345054
1071.29,0.048906,387377,346121
1074.96,0.048458,388536,347515
1078.63,0.047705,389855,349300
1082.3,0.047126,391215,350986
1085.96,0.046447,393215,353332
1090.84,0.045521,396270,356837
1094.49,0.045745,398760,358894
1098.14,0.044957,400987,361554
1101.79,0.044529,403477,364158
1105.43,0.044797,406116,366314
1109.06,0.044149,407701,368292
1112.7,0.044231,409859,370172
1117.53,0.044281,412494,372509
1121.15,0.044913,414909,374145
1124.77,0.045183,416559,375399
1128.38,0.046974,418532,375625
1131.99,0.047745,419956,376235
1135.6,0.050143,421946,375936
1139.2,0.051942,423881,376099
1143.99,0.054285,426786,376639
1147.58,0.055349,428617,377329
1151.17,0.056461,431169,378605
1154.75,0.057540,433579,379777
1158.33,0.059923,436264,380037
1161.91,0.061838,439132,380853
1165.48,0.063822,442389,381929
1169.04,0.066647,446101,382636
1173.79,0.070386,451929,384312
1177.34,0.072842,456026,385609
1180.9,0.074715,461306,388395
1184.44,0.076997,467657,391679
1187.99,0.077600,473969,396415
1191.52,0.077473,479856,401456
1195.06,0.077112,487372,408083
1199.76,0.076130,497347,417378
1203.29,0.075111,504311,424216
1206.81,0.074893,511507,430486
1210.33,0.073754,519078,438005
1213.84,0.072901,527163,445701
1217.35,0.072246,534208,452339
1220.85,0.071638,540472,458285
1225.51,0.070558,549929,467464
1229.01,0.070212,556888,473757
1232.5,0.069621,562180,478910
1235.98,0.068581,567975,485007
1239.46,0.067565,574815,491998
1242.94,0.066819,582782,499674
1246.41,0.066115,591476,507951
1251.03,0.065655,604016,519270
1254.5,0.065663,612289,526373
1257.96,0.066569,619125,531141
1261.41,0.067050,624551,535202
1264.86,0.067862,629900,538778
1268.31,0.068179,634345,542184
1271.75,0.069028,638574,544732
1276.33,0.069270,642499,547775
1279.76,0.069213,645905,550752
1283.19,0.068600,648307,553580
1286.61,0.068246,650446,555860
1290.03,0.068262,652132,557280
1293.44,0.067503,653907,559774
1296.85,0.067135,655963,562010
1301.39,0.066926,657349,563469
1304.8,0.067030,657558,563513
1308.19,0.067090,658515,564255
1311.58,0.067215,658804,564341
1314.97,0.068311,659011,563095
1318.36,0.068475,658272,562251
1321.73,0.069141,658022,561177
1326.23,0.069954,657870,559998
1329.6,0.070917,656482,557578
1332.97,0.071689,654926,555269
1336.33,0.073103,653727,552451
1339.69,0.075028,652497,548973
1343.04,0.076676,649913,544728
1346.39,0.078908,647671,540066
1349.73,0.081030,645338,535497
1354.18,0.084260,641175,528100
1357.52,0.086398,638376,523213
1360.85,0.088351,635805,518768
1364.17,0.090919,633413,513769
1367.49,0.093346,631026,508981
1370.81,0.095933,628050,503572
1374.12,0.098459,625034,498247
1378.54,0.101786,620272,490677
1381.84,0.105379,616892,483983
1385.14,0.109287,613613,477098
1388.43,0.113781,611526,470581
1391.72,0.118336,610663,465014
1395.01,0.123832,610634,459144
1398.29,0.128960,611700,454547
1402.66,0.136858,614051,448071
1405.93,0.142427,616268,443959
1409.2,0.147465,617795,439926
1412.46,0.153397,618872,434714
1415.72,0.157932,619795,430840
1418.98,0.161921,620495,427383
1422.23,0.166187,621087,423609
1426.56,0.170394,621375,419720
1429.8,0.173284,621616,417098
1433.04,0.175810,622129,415021
1436.27,0.178249,621526,412297
1439.5,0.181096,621113,409331
1442.72,0.183426,620921,407015
1445.94,0.185468,620270,404681
1450.23,0.189581,618860,399955
1453.44,0.192388,617697,396632
1456.64,0.195456,616264,392926
1459.85,0.198015,614413,389444
1463.04,0.200554,612307,385847
1466.24,0.204094,610032,381293
1469.43,0.207659,607345,376510
1473.67,0.213662,603789,369167
1476.85,0.219479,601175,362679
1480.02,0.225307,597737,355798
1483.19,0.231756,594479,348643
1486.36,0.237554,591232,342140
1489.52,0.242809,587853,336093
1492.68,0.246598,583875,330919
1496.89,0.248689,578062,326051
1500.03,0.248943,574159,323660
1503.18,0.248785,570285,321593
1506.32,0.248119,565444,319353
1509.45,0.246797,560571,317566
1512.58,0.245275,555821,315980
1515.71,0.243438,550344,314193
1519.87,0.240110,543983,312950
1522.99,0.236515,538764,312524
1526.1,0.234660,533692,310907
1529.21,0.231150,527902,310030
1532.32,0.228374,521886,308462
1535.42,0.225027,515888,307276
1538.51,0.222166,509987,305769
1541.6,0.219048,503936,304318
1545.72,0.214663,494694,301768
1548.8,0.211907,488378,299812
1551.88,0.208945,481832,297818
1554.95,0.207105,474989,294835
1558.02,0.204290,467818,292272
1561.08,0.203459,460730,288395
1564.15,0.202700,454170,284786
1568.22,0.201432,444181,279337
1571.27,0.200558,436947,275341
1574.32,0.199965,429598,271080
1577.36,0.197432,422039,267868
1580.4,0.197236,414375,263122
1583.43,0.195372,406354,259139
1586.46,0.193817,398475,255026
1590.49,0.191257,388982,250422
1593.51,0.189623,380708,246019
1596.53,0.187357,372727,242122
1599.54,0.185796,365060,237995
1602.55,0.182898,357543,234655
1605.55,0.180433,349495,230679
1608.55,0.178686,341154,226081
1612.54,0.176295,330877,220481
1615.53,0.173301,322904,216657
1618.51,0.173179,315116,211491
1621.49,0.171066,307217,207195
1624.47,0.170607,299481,202191
1627.44,0.169005,292112,197945
1630.41,0.168286,284245,192933
1634.36,0.166655,274079,186733
1637.32,0.165848,266916,182191
1640.27,0.165011,259612,177547
1643.22,0.162931,251804,173034
1646.16,0.161535,244348,168451
1649.1,0.162472,236703,162829
1652.04,0.161852,228171,157184
1655.95,0.159016,215408,149364
1658.88,0.155605,204937,143224
1661.8,0.152153,193395,136236
1664.72,0.145483,179728,128568
1667.63,0.135866,163642,119682
1670.54,0.125113,146312,109690
1673.44,0.113651,128451,98875
1677.31,0.099194,105080,83623
1680.21,0.092577,88906,71838
1683.1,0.091427,75033,60789
1685.99,0.091956,63520,51399
1688.87,0.095006,53714,43160
1691.75,0.103746,45653,35952
1694.62,0.110615,39137,30337
1697.49,0.113752,33776,25993
1701.31,0.113985,28175,21671