Folder: textile_sorting_NIRSCAN_/samples/wool/wool-000811 (part 6)

File: Column 1_050534_20150331_115213.csv
Method:,Column 1,,
Host Date-Time:,31/3/15 @ 11:52:13,,
Header Version:,1,,
System Temp (C):,31.02,,
Detector Temp (C):,30.41,,
Humidity (%):,4.19,,
Lamp PD:,3828,,
Shift Vector Coefficients:,-10.5391,0.0761263,-0.000134223,,
Pixel to Wavelength Coefficients:,1775.68,-0.916766,-0.000235065,,
Serial Number:,5510004,,
Scan Config Name:,Column 1,,
Scan Config Type:,Slew,,
Section 1,,
Start wavelength (nm):,900,,
End wavelength (nm):,1700,,
Pattern Pixel Width (nm):,   7.03,,,,
Exposure (ms):,  0.635,,,,
Digital Resolution:,228,,
Num Repeats:,6,,
PGA Gain:,64,,
Total Measurement Time in sec:,  2.689,,
Wavelength (nm),Absorbance (AU),Reference Signal (unitless),Sample Signal (unitless)
901.51,0.043860,108485,98064
905.376,0.049828,121306,108157
909.237,0.050155,131909,117522
913.095,0.051292,143299,127336
916.948,0.051157,156982,139538
922.079,0.050591,179937,160151
925.923,0.051286,200504,178171
929.762,0.051767,222660,197640
933.597,0.051736,244426,216976
937.427,0.052175,263972,234090
941.254,0.052519,281845,249742
945.076,0.052791,297271,263246
950.165,0.052625,315605,279588
953.978,0.053365,328029,290100
957.786,0.054435,340470,300361
961.59,0.054279,352317,310924
965.389,0.054322,363056,320370
969.185,0.055096,373162,328701
972.976,0.055182,382632,336976
976.763,0.056042,391202,343842
981.806,0.056864,400190,351077
985.583,0.057588,406088,355658
989.355,0.058706,410162,358302
993.124,0.058542,412868,360802
996.888,0.059546,414263,361185
1000.65,0.059854,415476,361986
1004.4,0.061523,415479,360600
1009.41,0.062479,414358,358837
1013.15,0.063218,412923,356986
1016.89,0.063699,411526,355384
1020.63,0.063309,409066,353577
1024.36,0.063573,406777,351385
1028.09,0.063290,404427,349583
1031.82,0.062447,401911,348083
1036.78,0.062036,398410,345378
1040.49,0.061362,396204,343999
1044.2,0.061353,394236,342297
1047.91,0.060661,392042,340935
1051.61,0.060304,389823,339284
1055.31,0.058948,388234,338958
1059,0.058567,387599,338700
1063.92,0.056622,386688,339421
1067.61,0.056648,386598,339322
1071.29,0.055868,387377,340617
1074.96,0.055089,388536,342249
1078.63,0.053926,389855,344332
1082.3,0.053832,391215,345608
1085.96,0.052754,393215,348238
1090.84,0.052475,396270,351169
1094.49,0.051642,398760,354054
1098.14,0.051712,400987,355974
1101.79,0.050631,403477,359077
1105.43,0.050579,406116,361469
1109.06,0.050914,407701,362600
1112.7,0.050370,409859,364976
1117.53,0.050373,412494,367320
1121.15,0.051052,414909,368893
1124.77,0.052267,416559,369326
1128.38,0.053306,418532,370188
1131.99,0.054810,419956,370164
1135.6,0.057312,421946,369781
1139.2,0.059072,423881,369975
1143.99,0.062378,426786,369685
1147.58,0.063337,428617,370452
1151.17,0.065161,431169,371096
1154.75,0.065834,433579,372593
1158.33,0.068508,436264,372599
1161.91,0.071207,439132,372725
1165.48,0.073594,442389,373431
1169.04,0.076904,446101,373705
1173.79,0.081108,451929,374940
1177.34,0.083716,456026,376074
1180.9,0.086278,461306,378191
1184.44,0.087673,467657,382168
1187.99,0.088329,473969,386742
1191.52,0.088100,479856,391752
1195.06,0.087698,487372,398256
1199.76,0.086121,497347,407886
1203.29,0.084783,504311,414873
1206.81,0.083830,511507,421717
1210.33,0.082433,519078,429338
1213.84,0.081360,527163,437104
1217.35,0.080364,534208,443963
1220.85,0.078944,540472,450639
1225.51,0.077970,549929,459554
1229.01,0.077004,556888,466406
1232.5,0.076013,562180,471914
1235.98,0.075381,567975,477472
1239.46,0.074493,574815,484212
1242.94,0.073494,582782,492053
1246.41,0.072412,591476,500640
1251.03,0.071867,604016,511896
1254.5,0.071929,612289,518833
1257.96,0.072198,619125,524301
1261.41,0.073028,624551,527886
1264.86,0.073497,629900,531832
1268.31,0.074003,634345,534962
1271.75,0.074683,638574,537685
1276.33,0.075466,642499,540016
1279.76,0.075079,645905,543363
1283.19,0.074586,648307,546003
1286.61,0.074074,650446,548450
1290.03,0.073937,652132,550045
1293.44,0.072972,653907,552770
1296.85,0.073178,655963,554244
1301.39,0.073133,657349,555473
1304.8,0.072595,657558,556339
1308.19,0.072977,658515,556658
1311.58,0.073339,658804,556439
1314.97,0.074266,659011,555427
1318.36,0.074504,658272,554500
1321.73,0.074954,658022,553715
1326.23,0.076109,657870,552117
1329.6,0.077284,656482,549463
1332.97,0.078553,654926,546562
1336.33,0.079828,653727,543962
1339.69,0.081953,652497,540288
1343.04,0.084230,649913,535334
1346.39,0.086527,647671,530673
1349.73,0.089069,645338,525676
1354.18,0.092485,641175,518193
1357.52,0.095417,638376,512459
1360.85,0.097389,635805,508083
1364.17,0.099935,633413,503213
1367.49,0.102426,631026,498450
1370.81,0.105280,628050,492849
1374.12,0.107724,625034,487730
1378.54,0.112259,620272,478986
1381.84,0.116395,616892,471861
1385.14,0.121003,613613,464399
1388.43,0.126285,611526,457225
1391.72,0.132461,610663,450133
1395.01,0.138319,610634,444081
1398.29,0.144895,611700,438171
1402.66,0.153753,614051,430974
1405.93,0.161008,616268,425365
1409.2,0.167911,617795,419695
1412.46,0.174124,618872,414454
1415.72,0.179685,619795,409792
1418.98,0.185209,620495,405069
1422.23,0.189852,621087,401144
1426.56,0.194866,621375,396723
1429.8,0.197931,621616,394086
1433.04,0.200724,622129,391883
1436.27,0.203781,621526,388757
1439.5,0.205615,621113,386862
1442.72,0.208255,620921,384398
1445.94,0.210920,620270,381646
1450.23,0.214474,618860,377675
1453.44,0.217791,617697,374097
1456.64,0.220524,616264,370888
1459.85,0.222675,614413,367947
1463.04,0.225704,612307,364137
1466.24,0.228488,610032,360466
1469.43,0.231738,607345,356203
1473.67,0.236270,603789,350441
1476.85,0.241270,601175,344930
1480.02,0.245779,597737,339415
1483.19,0.252428,594479,332436
1486.36,0.257209,591232,327001
1489.52,0.262413,587853,321259
1492.68,0.266258,583875,316273
1496.89,0.268709,578062,311362
1500.03,0.269552,574159,308660
1503.18,0.270412,570285,305971
1506.32,0.269463,565444,304037
1509.45,0.268609,560571,302010
1512.58,0.267060,555821,300521
1515.71,0.264758,550344,299141
1519.87,0.261799,543983,297705
1522.99,0.259431,538764,296461
1526.1,0.256281,533692,295808
1529.21,0.252658,527902,295050
1532.32,0.249882,521886,293558
1535.42,0.247055,515888,292079
1538.51,0.243281,509987,291258
1541.6,0.239775,503936,290135
1545.72,0.235104,494694,287894
1548.8,0.232003,488378,286255
1551.88,0.229183,481832,284258
1554.95,0.225965,474989,282305
1558.02,0.224463,467818,279006
1561.08,0.223778,460730,275213
1564.15,0.223329,454170,271575
1568.22,0.221799,444181,266539
1571.27,0.220453,436947,263012
1574.32,0.219493,429598,259161
1577.36,0.217712,422039,255647
1580.4,0.215976,414375,252010
1583.43,0.213979,406354,248271
1586.46,0.212268,398475,244418
1590.49,0.209628,388982,240050
1593.51,0.207733,380708,235971
1596.53,0.205806,372727,232052
1599.54,0.202804,365060,228855
1602.55,0.199516,357543,225846
1605.55,0.197542,349495,221768
1608.55,0.196039,341154,217226
1612.54,0.193728,330877,211806
1615.53,0.190224,322904,208377
1618.51,0.189175,315116,203843
1621.49,0.187757,307217,199383
1624.47,0.185634,299481,195315
1627.44,0.184837,292112,190859
1630.41,0.183597,284245,186250
1634.36,0.180846,274079,180730
1637.32,0.179760,266916,176447
1640.27,0.179443,259612,171744
1643.22,0.178674,251804,166874
1646.16,0.176354,244348,162800
1649.1,0.177133,236703,157424
1652.04,0.176448,228171,151989
1655.95,0.174107,215408,144263
1658.88,0.174459,204937,137139
1661.8,0.173388,193395,129735
1664.72,0.172779,179728,120736
1667.63,0.168271,163642,111077
1670.54,0.165771,146312,99887
1673.44,0.161657,128451,88528
1677.31,0.159424,105080,72794
1680.21,0.163324,88906,61039
1683.1,0.165677,75033,51236
1685.99,0.172035,63520,42744
1688.87,0.182608,53714,35276
1691.75,0.180153,45653,30152
1694.62,0.183500,39137,25650
1697.49,0.188998,33776,21858
1701.31,0.191826,28175,18115

File: Column 1_050534_20150331_115215.csv
Method:,Column 1,,
Host Date-Time:,31/3/15 @ 11:52:15,,
Header Version:,1,,
System Temp (C):,31.01,,
Detector Temp (C):,30.41,,
Humidity (%):,4.19,,
Lamp PD:,3829,,
Shift Vector Coefficients:,-10.5391,0.0761263,-0.000134223,,
Pixel to Wavelength Coefficients:,1775.68,-0.916766,-0.000235065,,
Serial Number:,5510004,,
Scan Config Name:,Column 1,,
Scan Config Type:,Slew,,
Section 1,,
Start wavelength (nm):,900,,
End wavelength (nm):,1700,,
Pattern Pixel Width (nm):,   7.03,,,,
Exposure (ms):,  0.635,,,,
Digital Resolution:,228,,
Num Repeats:,6,,
PGA Gain:,64,,
Total Measurement Time in sec:,  2.716,,
Wavelength (nm),Absorbance (AU),Reference Signal (unitless),Sample Signal (unitless)
901.51,0.043679,108485,98105
905.376,0.050008,121306,108112
909.237,0.050714,131909,117371
913.095,0.051551,143299,127260
916.948,0.050439,156982,139769
922.079,0.049732,179937,160468
925.923,0.050159,200504,178634
929.762,0.050850,222660,198058
933.597,0.052756,244426,216467
937.427,0.052385,263972,233977
941.254,0.052886,281845,249531
945.076,0.053410,297271,262871
950.165,0.053703,315605,278895
953.978,0.053923,328029,289727
957.786,0.054271,340470,300475
961.59,0.054122,352317,311037
965.389,0.054297,363056,320388
969.185,0.054555,373162,329111
972.976,0.055115,382632,337028
976.763,0.056216,391202,343704
981.806,0.056732,400190,351184
985.583,0.057574,406088,355669
989.355,0.058187,410162,358731
993.124,0.058655,412868,360708
996.888,0.058797,414263,361809
1000.65,0.059987,415476,361875
1004.4,0.061148,415479,360912
1009.41,0.062238,414358,359036
1013.15,0.063007,412923,357159
1016.89,0.063741,411526,355350
1020.63,0.063336,409066,353555
1024.36,0.064017,406777,351026
1028.09,0.062833,404427,349951
1031.82,0.063004,401911,347637
1036.78,0.061950,398410,345446
1040.49,0.061256,396204,344083
1044.2,0.061662,394236,342054
1047.91,0.060994,392042,340674
1051.61,0.059521,389823,339896
1055.31,0.058653,388234,339188
1059,0.058594,387599,338679
1063.92,0.056767,386688,339308
1067.61,0.056677,386598,339299
1071.29,0.055275,387377,341082
1074.96,0.054743,388536,342522
1078.63,0.053761,389855,344463
1082.3,0.053484,391215,345885
1085.96,0.052551,393215,348401
1090.84,0.052021,396270,351536
1094.49,0.051434,398760,354224
1098.14,0.050534,400987,356941
1101.79,0.050968,403477,358799
1105.43,0.050874,406116,361224
1109.06,0.050317,407701,363099
1112.7,0.050085,409859,365216
1117.53,0.050346,412494,367343
1121.15,0.051058,414909,368888
1124.77,0.051730,416559,369783
1128.38,0.053142,418532,370328
1131.99,0.055061,419956,369950
1135.6,0.057168,421946,369904
1139.2,0.059254,423881,369820
1143.99,0.061710,426786,370254
1147.58,0.062896,428617,370829
1151.17,0.064239,431169,371885
1154.75,0.066343,433579,372156
1158.33,0.068476,436264,372626
1161.91,0.070443,439132,373381
1165.48,0.073749,442389,373298
1169.04,0.076325,446101,374204
1173.79,0.081089,451929,374957
1177.34,0.083670,456026,376114
1180.9,0.085930,461306,378494
1184.44,0.087421,467657,382390
1187.99,0.088968,473969,386173
1191.52,0.088833,479856,391091
1195.06,0.087502,487372,398436
1199.76,0.085771,497347,408215
1203.29,0.084640,504311,415010
1206.81,0.083719,511507,421825
1210.33,0.082434,519078,429337
1213.84,0.081467,527163,436996
1217.35,0.080675,534208,443645
1220.85,0.079141,540472,450435
1225.51,0.077918,549929,459609
1229.01,0.077386,556888,465996
1232.5,0.075950,562180,471982
1235.98,0.075339,567975,477519
1239.46,0.074268,574815,484462
1242.94,0.073134,582782,492461
1246.41,0.072381,591476,500675
1251.03,0.071750,604016,512033
1254.5,0.071796,612289,518992
1257.96,0.072379,619125,524082
1261.41,0.072760,624551,528211
1264.86,0.073819,629900,531438
1268.31,0.073954,634345,535022
1271.75,0.074796,638574,537545
1276.33,0.075127,642499,540437
1279.76,0.075090,645905,543349
1283.19,0.074251,648307,546424
1286.61,0.074241,650446,548240
1290.03,0.073521,652132,550572
1293.44,0.073352,653907,552286
1296.85,0.072842,655963,554673
1301.39,0.073241,657349,555335
1304.8,0.072643,657558,556277
1308.19,0.073360,658515,556168
1311.58,0.073430,658804,556322
1314.97,0.074212,659011,555496
1318.36,0.074556,658272,554433
1321.73,0.075497,658022,553023
1326.23,0.076468,657870,551661
1329.6,0.077220,656482,549544
1332.97,0.078625,654926,546471
1336.33,0.080303,653727,543367
1339.69,0.082120,652497,540081
1343.04,0.084379,649913,535151
1346.39,0.086275,647671,530982
1349.73,0.088834,645338,525961
1354.18,0.092808,641175,517808
1357.52,0.094695,638376,513312
1360.85,0.097469,635805,507990
1364.17,0.099998,633413,503140
1367.49,0.102712,631026,498121
1370.81,0.105248,628050,492886
1374.12,0.108115,625034,487291
1378.54,0.111998,620272,479274
1381.84,0.116138,616892,472140
1385.14,0.121053,613613,464346
1388.43,0.126426,611526,457077
1391.72,0.132332,610663,450266
1395.01,0.138692,610634,443700
1398.29,0.145169,611700,437894
1402.66,0.154403,614051,430330
1405.93,0.161481,616268,424902
1409.2,0.168488,617795,419137
1412.46,0.174318,618872,414269
1415.72,0.179998,619795,409496
1418.98,0.184780,620495,405470
1422.23,0.189160,621087,401784
1426.56,0.194411,621375,397139
1429.8,0.197377,621616,394589
1433.04,0.200395,622129,392180
1436.27,0.203087,621526,389379
1439.5,0.206174,621113,386364
1442.72,0.208351,620921,384313
1445.94,0.210908,620270,381657
1450.23,0.214349,618860,377784
1453.44,0.217484,617697,374362
1456.64,0.220892,616264,370574
1459.85,0.222748,614413,367885
1463.04,0.225858,612307,364008
1466.24,0.228688,610032,360300
1469.43,0.231483,607345,356412
1473.67,0.236167,603789,350524
1476.85,0.240996,601175,345148
1480.02,0.245783,597737,339412
1483.19,0.251657,594479,333027
1486.36,0.257285,591232,326944
1489.52,0.262231,587853,321394
1492.68,0.265665,583875,316705
1496.89,0.269410,578062,310860
1500.03,0.269400,574159,308768
1503.18,0.270170,570285,306141
1506.32,0.269405,565444,304078
1509.45,0.268376,560571,302172
1512.58,0.267452,555821,300250
1515.71,0.265095,550344,298909
1519.87,0.261640,543983,297814
1522.99,0.259482,538764,296426
1526.1,0.256043,533692,295970
1529.21,0.253378,527902,294561
1532.32,0.249963,521886,293503
1535.42,0.246412,515888,292512
1538.51,0.243126,509987,291362
1541.6,0.239660,503936,290212
1545.72,0.235421,494694,287684
1548.8,0.232562,488378,285887
1551.88,0.229154,481832,284277
1554.95,0.227065,474989,281591
1558.02,0.225071,467818,278616
1561.08,0.223508,460730,275384
1564.15,0.222860,454170,271868
1568.22,0.221343,444181,266819
1571.27,0.220093,436947,263230
1574.32,0.219664,429598,259059
1577.36,0.218383,422039,255252
1580.4,0.215692,414375,252175
1583.43,0.214089,406354,248208
1586.46,0.212703,398475,244173
1590.49,0.209537,388982,240100
1593.51,0.207809,380708,235930
1596.53,0.205426,372727,232255
1599.54,0.203309,365060,228589
1602.55,0.199566,357543,225820
1605.55,0.198269,349495,221397
1608.55,0.196125,341154,217183
1612.54,0.194059,330877,211645
1615.53,0.190274,322904,208353
1618.51,0.189496,315116,203692
1621.49,0.186963,307217,199748
1624.47,0.186901,299481,194746
1627.44,0.185288,292112,190661
1630.41,0.183792,284245,186166
1634.36,0.182606,274079,179999
1637.32,0.181539,266916,175726
1640.27,0.180491,259612,171330
1643.22,0.176908,251804,167554
1646.16,0.177276,244348,162455
1649.1,0.176766,236703,157557
1652.04,0.176503,228171,151970
1655.95,0.175343,215408,143853
1658.88,0.175065,204937,136948
1661.8,0.174169,193395,129502
1664.72,0.171981,179728,120958
1667.63,0.169061,163642,110875
1670.54,0.165341,146312,99986
1673.44,0.163057,128451,88243
1677.31,0.162977,105080,72201
1680.21,0.161655,88906,61274
1683.1,0.163572,75033,51485
1685.99,0.172737,63520,42675
1688.87,0.179468,53714,35532
1691.75,0.184962,45653,29820
1694.62,0.189896,39137,25275
1697.49,0.184354,33776,22093
1701.31,0.195413,28175,17966

File: Column 1_050534_20150331_115221.csv
Method:,Column 1,,
Host Date-Time:,31/3/15 @ 11:52:21,,
Header Version:,1,,
System Temp (C):,31.06,,
Detector Temp (C):,30.29,,
Humidity (%):,4.1,,
Lamp PD:,3828,,
Shift Vector Coefficients:,-10.5391,0.0761263,-0.000134223,,
Pixel to Wavelength Coefficients:,1775.68,-0.916766,-0.000235065,,
Serial Number:,5510004,,
Scan Config Name:,Column 1,,
Scan Config Type:,Slew,,
Section 1,,
Start wavelength (nm):,900,,
End wavelength (nm):,1700,,
Pattern Pixel Width (nm):,   7.03,,,,
Exposure (ms):,  0.635,,,,
Digital Resolution:,228,,
Num Repeats:,6,,
PGA Gain:,64,,
Total Measurement Time in sec:,  2.682,,
Wavelength (nm),Absorbance (AU),Reference Signal (unitless),Sample Signal (unitless)
901.51,0.043316,108485,98187
905.376,0.049960,121306,108124
909.237,0.052196,131909,116971
913.095,0.049172,143299,127959
916.948,0.050625,156982,139709
922.079,0.050878,179937,160045
925.923,0.049945,200504,178722
929.762,0.051041,222660,197971
933.597,0.051732,244426,216978
937.427,0.052528,263972,233900
941.254,0.052848,281845,249553
945.076,0.052565,297271,263383
950.165,0.052773,315605,279493
953.978,0.052079,328029,290960
957.786,0.053201,340470,301216
961.59,0.054760,352317,310580
965.389,0.054300,363056,320386
969.185,0.055025,373162,328755
972.976,0.055674,382632,336595
976.763,0.056086,391202,343807
981.806,0.056207,400190,351608
985.583,0.057970,406088,355345
989.355,0.058064,410162,358832
993.124,0.058794,412868,360593
996.888,0.058529,414263,362032
1000.65,0.059871,415476,361972
1004.4,0.060863,415479,361149
1009.41,0.062441,414358,358868
1013.15,0.063152,412923,357040
1016.89,0.063643,411526,355430
1020.63,0.063591,409066,353348
1024.36,0.063541,406777,351411
1028.09,0.062355,404427,350336
1031.82,0.062908,401911,347714
1036.78,0.062178,398410,345265
1040.49,0.061412,396204,343959
1044.2,0.061045,394236,342540
1047.91,0.060125,392042,341356
1051.61,0.060245,389823,339330
1055.31,0.058836,388234,339045
1059,0.058097,387599,339067
1063.92,0.057575,386688,338677
1067.61,0.055866,386598,339933
1071.29,0.055430,387377,340960
1074.96,0.054648,388536,342597
1078.63,0.054188,389855,344124
1082.3,0.053803,391215,345631
1085.96,0.052877,393215,348139
1090.84,0.051309,396270,352113
1094.49,0.050937,398760,354629
1098.14,0.050897,400987,356643
1101.79,0.050657,403477,359056
1105.43,0.050821,406116,361268
1109.06,0.049907,407701,363442
1112.7,0.050254,409859,365074
1117.53,0.050495,412494,367217
1121.15,0.050684,414909,369206
1124.77,0.051600,416559,369893
1128.38,0.053019,418532,370433
1131.99,0.055043,419956,369965
1135.6,0.056711,421946,370293
1139.2,0.058599,423881,370378
1143.99,0.061442,426786,370483
1147.58,0.062642,428617,371046
1151.17,0.064598,431169,371578
1154.75,0.066210,433579,372270
1158.33,0.068299,436264,372778
1161.91,0.071010,439132,372894
1165.48,0.073554,442389,373465
1169.04,0.076484,446101,374067
1173.79,0.081088,451929,374958
1177.34,0.083382,456026,376364
1180.9,0.085784,461306,378621
1184.44,0.087494,467657,382326
1187.99,0.088600,473969,386500
1191.52,0.087914,479856,391920
1195.06,0.087379,487372,398549
1199.76,0.086521,497347,407510
1203.29,0.084558,504311,415088
1206.81,0.083316,511507,422217
1210.33,0.082161,519078,429607
1213.84,0.081373,527163,437091
1217.35,0.080483,534208,443841
1220.85,0.079220,540472,450353
1225.51,0.077675,549929,459866
1229.01,0.076913,556888,466503
1232.5,0.076081,562180,471840
1235.98,0.075479,567975,477365
1239.46,0.074324,574815,484400
1242.94,0.072931,582782,492692
1246.41,0.072251,591476,500825
1251.03,0.071756,604016,512027
1254.5,0.071767,612289,519026
1257.96,0.072430,619125,524020
1261.41,0.072637,624551,528361
1264.86,0.073553,629900,531764
1268.31,0.073792,634345,535222
1271.75,0.074637,638574,537742
1276.33,0.075193,642499,540355
1279.76,0.074873,645905,543620
1283.19,0.074932,648307,545568
1286.61,0.074001,650446,548543
1290.03,0.073671,652132,550383
1293.44,0.073414,653907,552207
1296.85,0.073214,655963,554199
1301.39,0.073156,657349,555444
1304.8,0.072783,657558,556098
1308.19,0.072884,658515,556777
1311.58,0.073356,658804,556417
1314.97,0.074263,659011,555430
1318.36,0.074670,658272,554288
1321.73,0.075340,658022,553223
1326.23,0.076104,657870,552123
1329.6,0.077248,656482,549509
1332.97,0.078399,654926,546756
1336.33,0.080237,653727,543450
1339.69,0.081595,652497,540734
1343.04,0.084077,649913,535523
1346.39,0.086355,647671,530884
1349.73,0.089001,645338,525759
1354.18,0.092503,641175,518172
1357.52,0.095035,638376,512910
1360.85,0.097169,635805,508341
1364.17,0.099906,633413,503247
1367.49,0.102451,631026,498421
1370.81,0.105475,628050,492628
1374.12,0.107928,625034,487501
1378.54,0.111817,620272,479474
1381.84,0.115852,616892,472451
1385.14,0.120832,613613,464582
1388.43,0.126142,611526,457376
1391.72,0.132134,610663,450472
1395.01,0.138075,610634,444330
1398.29,0.144981,611700,438084
1402.66,0.153628,614051,431098
1405.93,0.161163,616268,425213
1409.2,0.167718,617795,419881
1412.46,0.174088,618872,414489
1415.72,0.179705,619795,409773
1418.98,0.184393,620495,405831
1422.23,0.188860,621087,402061
1426.56,0.193945,621375,397566
1429.8,0.197385,621616,394582
1433.04,0.200386,622129,392188
1436.27,0.203350,621526,389143
1439.5,0.204822,621113,387569
1442.72,0.208043,620921,384586
1445.94,0.210528,620270,381991
1450.23,0.213986,618860,378100
1453.44,0.217168,617697,374634
1456.64,0.219665,616264,371622
1459.85,0.222446,614413,368141
1463.04,0.225322,612307,364458
1466.24,0.228273,610032,360645
1469.43,0.231303,607345,356560
1473.67,0.236186,603789,350509
1476.85,0.240364,601175,345650
1480.02,0.245700,597737,339477
1483.19,0.251557,594479,333104
1486.36,0.257514,591232,326771
1489.52,0.262296,587853,321346
1492.68,0.265832,583875,316583
1496.89,0.268908,578062,311219
1500.03,0.269310,574159,308832
1503.18,0.269714,570285,306463
1506.32,0.269586,565444,303951
1509.45,0.268273,560571,302244
1512.58,0.267124,555821,300477
1515.71,0.264384,550344,299399
1519.87,0.261502,543983,297909
1522.99,0.258465,538764,297121
1526.1,0.256119,533692,295918
1529.21,0.252989,527902,294825
1532.32,0.249806,521886,293609
1535.42,0.246404,515888,292517
1538.51,0.243281,509987,291258
1541.6,0.240166,503936,289874
1545.72,0.234842,494694,288068
1548.8,0.232480,488378,285941
1551.88,0.228340,481832,284810
1554.95,0.226496,474989,281960
1558.02,0.224466,467818,279004
1561.08,0.222928,460730,275752
1564.15,0.222399,454170,272157
1568.22,0.220399,444181,267400
1571.27,0.220501,436947,262983
1574.32,0.218473,429598,259770
1577.36,0.217464,422039,255793
1580.4,0.215191,414375,252466
1583.43,0.213833,406354,248354
1586.46,0.211668,398475,244756
1590.49,0.209508,388982,240116
1593.51,0.206983,380708,236379
1596.53,0.204318,372727,232848
1599.54,0.201773,365060,229399
1602.55,0.200359,357543,225408
1605.55,0.198577,349495,221240
1608.55,0.195204,341154,217644
1612.54,0.192966,330877,212178
1615.53,0.190505,322904,208242
1618.51,0.188121,315116,204338
1621.49,0.187598,307217,199456
1624.47,0.185867,299481,195210
1627.44,0.184007,292112,191224
1630.41,0.182388,284245,186769
1634.36,0.181485,274079,180464
1637.32,0.180327,266916,176217
1640.27,0.179377,259612,171770
1643.22,0.177777,251804,167219
1646.16,0.177827,244348,162249
1649.1,0.176565,236703,157630
1652.04,0.176094,228171,152113
1655.95,0.175702,215408,143734
1658.88,0.173826,204937,137339
1661.8,0.173716,193395,129637
1664.72,0.170039,179728,121500
1667.63,0.168013,163642,111143
1670.54,0.166524,146312,99714
1673.44,0.164181,128451,88015
1677.31,0.160542,105080,72607
1680.21,0.160176,88906,61483
1683.1,0.164213,75033,51409
1685.99,0.167578,63520,43185
1688.87,0.177176,53714,35720
1691.75,0.181466,45653,30061
1694.62,0.178601,39137,25941
1697.49,0.188263,33776,21895
1701.31,0.190055,28175,18189