Folder: textile_sorting_NIRSCAN_/samples/wool/wool-000811 (part 20)

File: Column 1_050541_20150331_115543.csv
Method:,Column 1,,
Host Date-Time:,31/3/15 @ 11:55:43,,
Header Version:,1,,
System Temp (C):,32.43,,
Detector Temp (C):,30.73,,
Humidity (%):,2.93,,
Lamp PD:,3824,,
Shift Vector Coefficients:,-10.5391,0.0761263,-0.000134223,,
Pixel to Wavelength Coefficients:,1775.68,-0.916766,-0.000235065,,
Serial Number:,5510004,,
Scan Config Name:,Column 1,,
Scan Config Type:,Slew,,
Section 1,,
Start wavelength (nm):,900,,
End wavelength (nm):,1700,,
Pattern Pixel Width (nm):,   7.03,,,,
Exposure (ms):,  0.635,,,,
Digital Resolution:,228,,
Num Repeats:,6,,
PGA Gain:,64,,
Total Measurement Time in sec:,  2.663,,
Wavelength (nm),Absorbance (AU),Reference Signal (unitless),Sample Signal (unitless)
901.51,0.045044,108485,97797
905.376,0.053210,121306,107318
909.237,0.053274,131909,116681
913.095,0.053494,143299,126692
916.948,0.051964,156982,139279
922.079,0.053197,179937,159193
925.923,0.054641,200504,176800
929.762,0.054041,222660,196608
933.597,0.055683,244426,215013
937.427,0.054851,263972,232652
941.254,0.054943,281845,248352
945.076,0.054215,297271,262384
950.165,0.055069,315605,278019
953.978,0.055099,328029,288944
957.786,0.055052,340470,299935
961.59,0.056281,352317,309494
965.389,0.055726,363056,319336
969.185,0.056843,373162,327382
972.976,0.057381,382632,335274
976.763,0.057359,391202,342801
981.806,0.058190,400190,350007
985.583,0.059183,406088,354354
989.355,0.059446,410162,357692
993.124,0.060064,412868,359540
996.888,0.060644,414263,360273
1000.65,0.061341,415476,360749
1004.4,0.062542,415479,359755
1009.41,0.063909,414358,357657
1013.15,0.064107,412923,356256
1016.89,0.064907,411526,354397
1020.63,0.064397,409066,352693
1024.36,0.064538,406777,350605
1028.09,0.064214,404427,348840
1031.82,0.064189,401911,346690
1036.78,0.062893,398410,344697
1040.49,0.062632,396204,342994
1044.2,0.062383,394236,341486
1047.91,0.061974,392042,339906
1051.61,0.060933,389823,338793
1055.31,0.059926,388234,338195
1059,0.059476,387599,337992
1063.92,0.058452,386688,337994
1067.61,0.057542,386598,338624
1071.29,0.056710,387377,339957
1074.96,0.056042,388536,341499
1078.63,0.054954,389855,343518
1082.3,0.054293,391215,345241
1085.96,0.053700,393215,347480
1090.84,0.053115,396270,350652
1094.49,0.052271,398760,353542
1098.14,0.052582,400987,355262
1101.79,0.052375,403477,357638
1105.43,0.051965,406116,360317
1109.06,0.051718,407701,361929
1112.7,0.051025,409859,364426
1117.53,0.050779,412494,366977
1121.15,0.052379,414909,367768
1124.77,0.053061,416559,368651
1128.38,0.054205,418532,369423
1131.99,0.055618,419956,369476
1135.6,0.057681,421946,369467
1139.2,0.060056,423881,369137
1143.99,0.062905,426786,369237
1147.58,0.064128,428617,369778
1151.17,0.065174,431169,371085
1154.75,0.066397,433579,372110
1158.33,0.068793,436264,372354
1161.91,0.071193,439132,372737
1165.48,0.073924,442389,373147
1169.04,0.077050,446101,373580
1173.79,0.081526,451929,374580
1177.34,0.083741,456026,376053
1180.9,0.086091,461306,378354
1184.44,0.088022,467657,381861
1187.99,0.089109,473969,386048
1191.52,0.088647,479856,391259
1195.06,0.087959,487372,398017
1199.76,0.086289,497347,407728
1203.29,0.084856,504311,414804
1206.81,0.084229,511507,421330
1210.33,0.083172,519078,428608
1213.84,0.082135,527163,436325
1217.35,0.080975,534208,443338
1220.85,0.079535,540472,450027
1225.51,0.078440,549929,459057
1229.01,0.077706,556888,465652
1232.5,0.076910,562180,470940
1235.98,0.076282,567975,476483
1239.46,0.074615,574815,484075
1242.94,0.073647,582782,491880
1246.41,0.072602,591476,500421
1251.03,0.072522,604016,511124
1254.5,0.072543,612289,518100
1257.96,0.072725,619125,523665
1261.41,0.073140,624551,527749
1264.86,0.073800,629900,531461
1268.31,0.074715,634345,534085
1271.75,0.075546,638574,536618
1276.33,0.075742,642499,539673
1279.76,0.075366,645905,543004
1283.19,0.074804,648307,545728
1286.61,0.074516,650446,547892
1290.03,0.074362,652132,549507
1293.44,0.073573,653907,552005
1296.85,0.073855,655963,553381
1301.39,0.073045,657349,555586
1304.8,0.072866,657558,555992
1308.19,0.073314,658515,556226
1311.58,0.073571,658804,556141
1314.97,0.074331,659011,555344
1318.36,0.074786,658272,554140
1321.73,0.075520,658022,552994
1326.23,0.076331,657870,551835
1329.6,0.077330,656482,549405
1332.97,0.078519,654926,546604
1336.33,0.079909,653727,543861
1339.69,0.082087,652497,540121
1343.04,0.083750,649913,535927
1346.39,0.086090,647671,531208
1349.73,0.088515,645338,526347
1354.18,0.092193,641175,518541
1357.52,0.094499,638376,513544
1360.85,0.097041,635805,508491
1364.17,0.099139,633413,504136
1367.49,0.102179,631026,498733
1370.81,0.104969,628050,493203
1374.12,0.107743,625034,487709
1378.54,0.111440,620272,479890
1381.84,0.115119,616892,473249
1385.14,0.119971,613613,465504
1388.43,0.125485,611526,458068
1391.72,0.130929,610663,451723
1395.01,0.137015,610634,445416
1398.29,0.143298,611700,439785
1402.66,0.151295,614051,433420
1405.93,0.158672,616268,427659
1409.2,0.165042,617795,422476
1412.46,0.170516,618872,417912
1415.72,0.175887,619795,413391
1418.98,0.180489,620495,409496
1422.23,0.185114,621087,405544
1426.56,0.189663,621375,401505
1429.8,0.192619,621616,398936
1433.04,0.195759,622129,396389
1436.27,0.198208,621526,393778
1439.5,0.200503,621113,391442
1442.72,0.203320,620921,388791
1445.94,0.205843,620270,386134
1450.23,0.209509,618860,382018
1453.44,0.212257,617697,378895
1456.64,0.215483,616264,375218
1459.85,0.218089,614413,371853
1463.04,0.220725,612307,368336
1466.24,0.223364,610032,364744
1469.43,0.226915,607345,360181
1473.67,0.231926,603789,353964
1476.85,0.237232,601175,348152
1480.02,0.242873,597737,341694
1483.19,0.249072,594479,335015
1486.36,0.254755,591232,328854
1489.52,0.260115,587853,322964
1492.68,0.263713,583875,318132
1496.89,0.266584,578062,312889
1500.03,0.267339,574159,310237
1503.18,0.268070,570285,307625
1506.32,0.267528,565444,305395
1509.45,0.266149,560571,303726
1512.58,0.264428,555821,302348
1515.71,0.262167,550344,300931
1519.87,0.259490,543983,299292
1522.99,0.255908,538764,298876
1526.1,0.254197,533692,297231
1529.21,0.250675,527902,296400
1532.32,0.247396,521886,295243
1535.42,0.243203,515888,294681
1538.51,0.241165,509987,292681
1541.6,0.237680,503936,291538
1545.72,0.232550,494694,289592
1548.8,0.229353,488378,288007
1551.88,0.226823,481832,285807
1554.95,0.224475,474989,283275
1558.02,0.222299,467818,280400
1561.08,0.220567,460730,277255
1564.15,0.219349,454170,274075
1568.22,0.218863,444181,268347
1571.27,0.218268,436947,264339
1574.32,0.217115,429598,260584
1577.36,0.215382,422039,257022
1580.4,0.213873,414375,253233
1583.43,0.211710,406354,249571
1586.46,0.210072,398475,245657
1590.49,0.207421,388982,241273
1593.51,0.205560,380708,237155
1596.53,0.203087,372727,233509
1599.54,0.200903,365060,229859
1602.55,0.198847,357543,226194
1605.55,0.195807,349495,222656
1608.55,0.193857,341154,218320
1612.54,0.190476,330877,213398
1615.53,0.187935,322904,209478
1618.51,0.187571,315116,204597
1621.49,0.185582,307217,200384
1624.47,0.184315,299481,195909
1627.44,0.183451,292112,191469
1630.41,0.180939,284245,187393
1634.36,0.179603,274079,181248
1637.32,0.178816,266916,176831
1640.27,0.178678,259612,172047
1643.22,0.176939,251804,167542
1646.16,0.175440,244348,163143
1649.1,0.176383,236703,157696
1652.04,0.173796,228171,152920
1655.95,0.172065,215408,144943
1658.88,0.171496,204937,138078
1661.8,0.168889,193395,131086
1664.72,0.166419,179728,122517
1667.63,0.160643,163642,113045
1670.54,0.155082,146312,102376
1673.44,0.149605,128451,91019
1677.31,0.144985,105080,75255
1680.21,0.141856,88906,64132
1683.1,0.146152,75033,53592
1685.99,0.152720,63520,44688
1688.87,0.159731,53714,37184
1691.75,0.163107,45653,31359
1694.62,0.166776,39137,26657
1697.49,0.164883,33776,23106
1701.31,0.168285,28175,19124

File: Column 1_050542_20150331_115555.csv
Method:,Column 1,,
Host Date-Time:,31/3/15 @ 11:55:55,,
Header Version:,1,,
System Temp (C):,32.46,,
Detector Temp (C):,30.78,,
Humidity (%):,2.83,,
Lamp PD:,3824,,
Shift Vector Coefficients:,-10.5391,0.0761263,-0.000134223,,
Pixel to Wavelength Coefficients:,1775.68,-0.916766,-0.000235065,,
Serial Number:,5510004,,
Scan Config Name:,Column 1,,
Scan Config Type:,Slew,,
Section 1,,
Start wavelength (nm):,900,,
End wavelength (nm):,1700,,
Pattern Pixel Width (nm):,   7.03,,,,
Exposure (ms):,  0.635,,,,
Digital Resolution:,228,,
Num Repeats:,6,,
PGA Gain:,64,,
Total Measurement Time in sec:,  2.677,,
Wavelength (nm),Absorbance (AU),Reference Signal (unitless),Sample Signal (unitless)
901.51,0.044179,108485,97992
905.376,0.050519,121306,107985
909.237,0.052412,131909,116913
913.095,0.052764,143299,126905
916.948,0.053601,156982,138755
922.079,0.053060,179937,159243
925.923,0.054039,200504,177045
929.762,0.054165,222660,196552
933.597,0.054720,244426,215490
937.427,0.055305,263972,232409
941.254,0.055480,281845,248045
945.076,0.054545,297271,262185
950.165,0.054927,315605,278110
953.978,0.054285,328029,289486
957.786,0.055681,340470,299501
961.59,0.056067,352317,309647
965.389,0.056318,363056,318901
969.185,0.056114,373162,327932
972.976,0.056604,382632,335875
976.763,0.057446,391202,342732
981.806,0.057920,400190,350224
985.583,0.058886,406088,354596
989.355,0.059470,410162,357672
993.124,0.059963,412868,359624
996.888,0.060806,414263,360139
1000.65,0.061147,415476,360910
1004.4,0.062262,415479,359987
1009.41,0.063930,414358,357640
1013.15,0.064361,412923,356048
1016.89,0.064804,411526,354481
1020.63,0.064677,409066,352465
1024.36,0.064338,406777,350767
1028.09,0.064118,404427,348917
1031.82,0.063629,401911,347137
1036.78,0.063078,398410,344550
1040.49,0.062517,396204,343085
1044.2,0.061772,394236,341967
1047.91,0.061901,392042,339963
1051.61,0.060700,389823,338975
1055.31,0.060107,388234,338054
1059,0.059804,387599,337737
1063.92,0.058499,386688,337957
1067.61,0.056960,386598,339078
1071.29,0.056558,387377,340076
1074.96,0.056243,388536,341341
1078.63,0.055482,389855,343100
1082.3,0.054584,391215,345010
1085.96,0.053077,393215,347979
1090.84,0.052953,396270,350783
1094.49,0.052794,398760,353116
1098.14,0.052020,400987,355722
1101.79,0.051584,403477,358290
1105.43,0.051610,406116,360612
1109.06,0.050658,407701,362814
1112.7,0.051007,409859,364441
1117.53,0.051103,412494,366703
1121.15,0.052665,414909,367526
1124.77,0.052693,416559,368964
1128.38,0.054107,418532,369506
1131.99,0.055883,419956,369250
1135.6,0.058306,421946,368936
1139.2,0.059829,423881,369330
1143.99,0.062381,426786,369683
1147.58,0.063483,428617,370328
1151.17,0.065360,431169,370926
1154.75,0.066365,433579,372137
1158.33,0.068634,436264,372491
1161.91,0.071005,439132,372898
1165.48,0.074019,442389,373066
1169.04,0.076157,446101,374349
1173.79,0.081107,451929,374941
1177.34,0.083641,456026,376139
1180.9,0.086593,461306,377917
1184.44,0.088278,467657,381636
1187.99,0.089382,473969,385805
1191.52,0.088912,479856,391020
1195.06,0.088250,487372,397750
1199.76,0.087014,497347,407048
1203.29,0.085678,504311,414019
1206.81,0.084597,511507,420973
1210.33,0.083193,519078,428588
1213.84,0.081707,527163,436755
1217.35,0.081166,534208,443144
1220.85,0.079849,540472,449701
1225.51,0.078709,549929,458773
1229.01,0.077972,556888,465367
1232.5,0.076724,562180,471141
1235.98,0.075983,567975,476811
1239.46,0.075080,574815,483558
1242.94,0.073947,582782,491540
1246.41,0.072609,591476,500412
1251.03,0.072263,604016,511429
1254.5,0.072461,612289,518198
1257.96,0.072939,619125,523407
1261.41,0.073652,624551,527128
1264.86,0.074013,629900,531201
1268.31,0.074665,634345,534147
1271.75,0.075375,638574,536829
1276.33,0.075709,642499,539714
1279.76,0.075769,645905,542500
1283.19,0.075319,648307,545082
1286.61,0.074848,650446,547474
1290.03,0.074255,652132,549643
1293.44,0.073719,653907,551819
1296.85,0.073360,655963,554012
1301.39,0.072958,657349,555697
1304.8,0.073622,657558,555024
1308.19,0.073327,658515,556210
1311.58,0.073949,658804,555658
1314.97,0.074216,659011,555491
1318.36,0.074856,658272,554050
1321.73,0.075803,658022,552634
1326.23,0.076755,657870,551296
1329.6,0.077230,656482,549532
1332.97,0.078543,654926,546574
1336.33,0.080024,653727,543717
1339.69,0.082077,652497,540134
1343.04,0.083913,649913,535725
1346.39,0.086433,647671,530789
1349.73,0.088562,645338,526290
1354.18,0.091994,641175,518779
1357.52,0.094743,638376,513256
1360.85,0.096929,635805,508622
1364.17,0.099418,633413,503812
1367.49,0.102240,631026,498663
1370.81,0.105111,628050,493041
1374.12,0.107583,625034,487889
1378.54,0.112043,620272,479225
1381.84,0.115421,616892,472920
1385.14,0.120347,613613,465101
1388.43,0.125338,611526,458223
1391.72,0.130442,610663,452230
1395.01,0.136396,610634,446051
1398.29,0.143145,611700,439940
1402.66,0.151405,614051,433311
1405.93,0.158522,616268,427807
1409.2,0.165065,617795,422454
1412.46,0.170840,618872,417600
1415.72,0.175830,619795,413445
1418.98,0.180733,620495,409266
1422.23,0.184909,621087,405736
1426.56,0.189742,621375,401432
1429.8,0.192312,621616,399218
1433.04,0.195492,622129,396633
1436.27,0.198013,621526,393955
1439.5,0.200157,621113,391754
1442.72,0.202992,620921,389085
1445.94,0.205690,620270,386270
1450.23,0.209173,618860,382313
1453.44,0.212616,617697,378582
1456.64,0.214834,616264,375779
1459.85,0.217880,614413,372032
1463.04,0.220514,612307,368515
1466.24,0.223711,610032,364453
1469.43,0.226536,607345,360495
1473.67,0.231661,603789,354180
1476.85,0.237297,601175,348100
1480.02,0.242474,597737,342008
1483.19,0.249199,594479,334917
1486.36,0.255404,591232,328363
1489.52,0.259558,587853,323378
1492.68,0.263377,583875,318378
1496.89,0.266631,578062,312855
1500.03,0.267656,574159,310010
1503.18,0.267819,570285,307803
1506.32,0.266504,565444,306116
1509.45,0.265419,560571,304237
1512.58,0.264596,555821,302231
1515.71,0.262677,550344,300578
1519.87,0.259042,543983,299601
1522.99,0.256460,538764,298496
1526.1,0.254294,533692,297164
1529.21,0.250901,527902,296246
1532.32,0.247926,521886,294883
1535.42,0.244213,515888,293997
1538.51,0.240865,509987,292883
1541.6,0.238057,503936,291285
1545.72,0.232721,494694,289478
1548.8,0.229073,488378,288193
1551.88,0.226088,481832,286291
1554.95,0.224213,474989,283446
1558.02,0.222782,467818,280088
1561.08,0.220252,460730,277456
1564.15,0.219980,454170,273677
1568.22,0.218247,444181,268728
1571.27,0.218476,436947,264212
1574.32,0.216855,429598,260740
1577.36,0.215475,422039,256967
1580.4,0.214129,414375,253084
1583.43,0.212241,406354,249266
1586.46,0.210300,398475,245528
1590.49,0.207385,388982,241293
1593.51,0.205565,380708,237152
1596.53,0.202710,372727,233712
1599.54,0.200714,365060,229959
1602.55,0.198053,357543,226608
1605.55,0.195578,349495,222773
1608.55,0.193557,341154,218471
1612.54,0.190661,330877,213307
1615.53,0.187585,322904,209647
1618.51,0.187520,315116,204621
1621.49,0.186131,307217,200131
1624.47,0.182852,299481,196570
1627.44,0.182223,292112,192011
1630.41,0.181030,284245,187354
1634.36,0.179504,274079,181289
1637.32,0.179458,266916,176570
1640.27,0.178266,259612,172210
1643.22,0.176973,251804,167529
1646.16,0.175621,244348,163075
1649.1,0.174951,236703,158217
1652.04,0.173830,228171,152908
1655.95,0.172292,215408,144867
1658.88,0.170318,204937,138453
1661.8,0.167589,193395,131479
1664.72,0.165343,179728,122821
1667.63,0.160601,163642,113056
1670.54,0.153862,146312,102664
1673.44,0.147326,128451,91498
1677.31,0.141742,105080,75819
1680.21,0.140666,88906,64308
1683.1,0.144252,75033,53827
1685.99,0.149004,63520,45072
1688.87,0.149756,53714,38048
1691.75,0.162872,45653,31376
1694.62,0.169374,39137,26498
1697.49,0.165711,33776,23062
1701.31,0.171888,28175,18966

File: Column 1_050542_20150331_115558.csv
Method:,Column 1,,
Host Date-Time:,31/3/15 @ 11:55:58,,
Header Version:,1,,
System Temp (C):,32.49,,
Detector Temp (C):,30.83,,
Humidity (%):,2.83,,
Lamp PD:,3824,,
Shift Vector Coefficients:,-10.5391,0.0761263,-0.000134223,,
Pixel to Wavelength Coefficients:,1775.68,-0.916766,-0.000235065,,
Serial Number:,5510004,,
Scan Config Name:,Column 1,,
Scan Config Type:,Slew,,
Section 1,,
Start wavelength (nm):,900,,
End wavelength (nm):,1700,,
Pattern Pixel Width (nm):,   7.03,,,,
Exposure (ms):,  0.635,,,,
Digital Resolution:,228,,
Num Repeats:,6,,
PGA Gain:,64,,
Total Measurement Time in sec:,  2.667,,
Wavelength (nm),Absorbance (AU),Reference Signal (unitless),Sample Signal (unitless)
901.51,0.044951,108485,97818
905.376,0.051396,121306,107767
909.237,0.052564,131909,116872
913.095,0.051811,143299,127184
916.948,0.053955,156982,138642
922.079,0.052733,179937,159363
925.923,0.053270,200504,177359
929.762,0.053169,222660,197003
933.597,0.054024,244426,215836
937.427,0.053686,263972,233277
941.254,0.054132,281845,248816
945.076,0.054396,297271,262275
950.165,0.054231,315605,278556
953.978,0.054376,328029,289425
957.786,0.053814,340470,300791
961.59,0.055317,352317,310182
965.389,0.054514,363056,320228
969.185,0.055525,373162,328377
972.976,0.056138,382632,336235
976.763,0.057248,391202,342889
981.806,0.057202,400190,350804
985.583,0.057335,406088,355865
989.355,0.057906,410162,358963
993.124,0.058910,412868,360497
996.888,0.059284,414263,361403
1000.65,0.060399,415476,361532
1004.4,0.061336,415479,360756
1009.41,0.062509,414358,358812
1013.15,0.063194,412923,357006
1016.89,0.063437,411526,355599
1020.63,0.063512,409066,353412
1024.36,0.063740,406777,351250
1028.09,0.063637,404427,349304
1031.82,0.063179,401911,347497
1036.78,0.061983,398410,345420
1040.49,0.061340,396204,344016
1044.2,0.061176,394236,342437
1047.91,0.060759,392042,340858
1051.61,0.059781,389823,339693
1055.31,0.059167,388234,338787
1059,0.058111,387599,339056
1063.92,0.057083,386688,339061
1067.61,0.056504,386598,339434
1071.29,0.055610,387377,340819
1074.96,0.055342,388536,342050
1078.63,0.054810,389855,343632
1082.3,0.053876,391215,345573
1085.96,0.053051,393215,348000
1090.84,0.052290,396270,351319
1094.49,0.051841,398760,353892
1098.14,0.050865,400987,356669
1101.79,0.051109,403477,358682
1105.43,0.050880,406116,361219
1109.06,0.050477,407701,362965
1112.7,0.049735,409859,365510
1117.53,0.050476,412494,367233
1121.15,0.051289,414909,368692
1124.77,0.051672,416559,369832
1128.38,0.053481,418532,370039
1131.99,0.054638,419956,370310
1135.6,0.057175,421946,369898
1139.2,0.058993,423881,370042
1143.99,0.061861,426786,370126
1147.58,0.062873,428617,370848
1151.17,0.064551,431169,371618
1154.75,0.065583,433579,372808
1158.33,0.067418,436264,373535
1161.91,0.070210,439132,373581
1165.48,0.073052,442389,373897
1169.04,0.075932,446101,374543
1173.79,0.080471,451929,375491
1177.34,0.082719,456026,376939
1180.9,0.085638,461306,378749
1184.44,0.087511,467657,382311
1187.99,0.088851,473969,386277
1191.52,0.088059,479856,391789
1195.06,0.087504,487372,398434
1199.76,0.085623,497347,408354
1203.29,0.084179,504311,415451
1206.81,0.083388,511507,422147
1210.33,0.082348,519078,429422
1213.84,0.081285,527163,437180
1217.35,0.079886,534208,444452
1220.85,0.078866,540472,450720
1225.51,0.077832,549929,459700
1229.01,0.077164,556888,466234
1232.5,0.075807,562180,472137
1235.98,0.075172,567975,477702
1239.46,0.073794,574815,484992
1242.94,0.072437,582782,493252
1246.41,0.072044,591476,501064
1251.03,0.071861,604016,511903
1254.5,0.071695,612289,519113
1257.96,0.072000,619125,524540
1261.41,0.072652,624551,528343
1264.86,0.073415,629900,531933
1268.31,0.073719,634345,535311
1271.75,0.074693,638574,537673
1276.33,0.074728,642499,540934
1279.76,0.074526,645905,544055
1283.19,0.074431,648307,546197
1286.61,0.074015,650446,548525
1290.03,0.073584,652132,550492
1293.44,0.072779,653907,553015
1296.85,0.072871,655963,554636
1301.39,0.072417,657349,556390
1304.8,0.072157,657558,556900
1308.19,0.072499,658515,557271
1311.58,0.073204,658804,556611
1314.97,0.073650,659011,556215
1318.36,0.073961,658272,555194
1321.73,0.074445,658022,554364
1326.23,0.075743,657870,552583
1329.6,0.076491,656482,550468
1332.97,0.077718,654926,547613
1336.33,0.079127,653727,544841
1339.69,0.080885,652497,541619
1343.04,0.083089,649913,536743
1346.39,0.085524,647671,531901
1349.73,0.088179,645338,526755
1354.18,0.091442,641175,519439
1357.52,0.093872,638376,514286
1360.85,0.096197,635805,509480
1364.17,0.098788,633413,504544
1367.49,0.101430,631026,499594
1370.81,0.104222,628050,494051
1374.12,0.106970,625034,488578
1378.54,0.111229,620272,480124
1381.84,0.114970,616892,473412
1385.14,0.119776,613613,465713
1388.43,0.124765,611526,458828
1391.72,0.130038,610663,452651
1395.01,0.136226,610634,446226
1398.29,0.142016,611700,441085
1402.66,0.150881,614051,433834
1405.93,0.157575,616268,428741
1409.2,0.163913,617795,423576
1412.46,0.170097,618872,418315
1415.72,0.175209,619795,414037
1418.98,0.179816,620495,410131
1422.23,0.184422,621087,406191
1426.56,0.188427,621375,402649
1429.8,0.191624,621616,399851
1433.04,0.195092,622129,396998
1436.27,0.197381,621526,394528
1439.5,0.199679,621113,392186
1442.72,0.202403,620921,389613
1445.94,0.204343,620270,387470
1450.23,0.208571,618860,382844
1453.44,0.211624,617697,379447
1456.64,0.214617,616264,375967
1459.85,0.216775,614413,372980
1463.04,0.220054,612307,368906
1466.24,0.223229,610032,364858
1469.43,0.226368,607345,360635
1473.67,0.231396,603789,354396
1476.85,0.236459,601175,348772
1480.02,0.242165,597737,342251
1483.19,0.248073,594479,335787
1486.36,0.254573,591232,328992
1489.52,0.259378,587853,323512
1492.68,0.262776,583875,318819
1496.89,0.266183,578062,313178
1500.03,0.266284,574159,310991
1503.18,0.266837,570285,308500
1506.32,0.266435,565444,306164
1509.45,0.265587,560571,304119
1512.58,0.264098,555821,302578
1515.71,0.262065,550344,301002
1519.87,0.258636,543983,299881
1522.99,0.255974,538764,298830
1526.1,0.252739,533692,298230
1529.21,0.250144,527902,296763
1532.32,0.246973,521886,295531
1535.42,0.243848,515888,294244
1538.51,0.239976,509987,293483
1541.6,0.237298,503936,291795
1545.72,0.232205,494694,289822
1548.8,0.228803,488378,288372
1551.88,0.226218,481832,286205
1554.95,0.223373,474989,283995
1558.02,0.221460,467818,280942
1561.08,0.220609,460730,277228
1564.15,0.219944,454170,273700
1568.22,0.218273,444181,268712
1571.27,0.217680,436947,264697
1574.32,0.216305,429598,261070
1577.36,0.215104,422039,257187
1580.4,0.213376,414375,253523
1583.43,0.212536,406354,249097
1586.46,0.209270,398475,246111
1590.49,0.206903,388982,241561
1593.51,0.204894,380708,237519
1596.53,0.202723,372727,233705
1599.54,0.199844,365060,230420
1602.55,0.196752,357543,227288
1605.55,0.195426,349495,222851
1608.55,0.192869,341154,218817
1612.54,0.190800,330877,213239
1615.53,0.188364,322904,209271
1618.51,0.187051,315116,204842
1621.49,0.185602,307217,200375
1624.47,0.184060,299481,196024
1627.44,0.182364,292112,191949
1630.41,0.181652,284245,187086
1634.36,0.178980,274079,181508
1637.32,0.177830,266916,177233
1640.27,0.177611,259612,172470
1643.22,0.176923,251804,167548
1646.16,0.174568,244348,163471
1649.1,0.173567,236703,158722
1652.04,0.173328,228171,153085
1655.95,0.173947,215408,144316
1658.88,0.170133,204937,138512
1661.8,0.168382,193395,131239
1664.72,0.164188,179728,123148
1667.63,0.158998,163642,113474
1670.54,0.153980,146312,102636
1673.44,0.148409,128451,91270
1677.31,0.141313,105080,75894
1680.21,0.139951,88906,64414
1683.1,0.143889,75033,53872
1685.99,0.146372,63520,45346
1688.87,0.157483,53714,37377
1691.75,0.160924,45653,31517
1694.62,0.164663,39137,26787
1697.49,0.164620,33776,23120
1701.31,0.177280,28175,18732