Folder: textile_sorting_NIRSCAN_/samples/wool/wool-000811 (part 9)

File: Column 1_050536_20150331_115304.csv
Method:,Column 1,,
Host Date-Time:,31/3/15 @ 11:53:4,,
Header Version:,1,,
System Temp (C):,31.47,,
Detector Temp (C):,30.09,,
Humidity (%):,3.75,,
Lamp PD:,3827,,
Shift Vector Coefficients:,-10.5391,0.0761263,-0.000134223,,
Pixel to Wavelength Coefficients:,1775.68,-0.916766,-0.000235065,,
Serial Number:,5510004,,
Scan Config Name:,Column 1,,
Scan Config Type:,Slew,,
Section 1,,
Start wavelength (nm):,900,,
End wavelength (nm):,1700,,
Pattern Pixel Width (nm):,   7.03,,,,
Exposure (ms):,  0.635,,,,
Digital Resolution:,228,,
Num Repeats:,6,,
PGA Gain:,64,,
Total Measurement Time in sec:,  2.674,,
Wavelength (nm),Absorbance (AU),Reference Signal (unitless),Sample Signal (unitless)
901.51,0.045026,108485,97801
905.376,0.048913,121306,108385
909.237,0.050976,131909,117300
913.095,0.052070,143299,127108
916.948,0.051285,156982,139497
922.079,0.049510,179937,160550
925.923,0.049384,200504,178953
929.762,0.049713,222660,198577
933.597,0.051634,244426,217027
937.427,0.051793,263972,234296
941.254,0.052691,281845,249643
945.076,0.052867,297271,263200
950.165,0.052754,315605,279505
953.978,0.052887,328029,290419
957.786,0.053410,340470,301071
961.59,0.054154,352317,311014
965.389,0.054512,363056,320230
969.185,0.054717,373162,328988
972.976,0.054854,382632,337231
976.763,0.055777,391202,344052
981.806,0.056646,400190,351253
985.583,0.056882,406088,356236
989.355,0.057505,410162,359294
993.124,0.058245,412868,361049
996.888,0.058850,414263,361765
1000.65,0.059208,415476,362525
1004.4,0.060953,415479,361074
1009.41,0.062243,414358,359032
1013.15,0.063024,412923,357145
1016.89,0.063199,411526,355794
1020.63,0.062761,409066,354024
1024.36,0.062769,406777,352036
1028.09,0.062662,404427,350089
1031.82,0.062218,401911,348267
1036.78,0.061221,398410,346026
1040.49,0.061066,396204,344233
1044.2,0.060762,394236,342763
1047.91,0.060134,392042,341349
1051.61,0.059760,389823,339709
1055.31,0.058679,388234,339168
1059,0.057771,387599,339322
1063.92,0.056256,386688,339707
1067.61,0.055587,386598,340152
1071.29,0.055478,387377,340923
1074.96,0.054575,388536,342654
1078.63,0.053849,389855,344393
1082.3,0.052597,391215,346592
1085.96,0.052088,393215,348772
1090.84,0.051484,396270,351971
1094.49,0.051138,398760,354465
1098.14,0.050443,400987,357016
1101.79,0.050849,403477,358897
1105.43,0.050411,406116,361609
1109.06,0.049633,407701,363671
1112.7,0.049986,409859,365299
1117.53,0.049932,412494,367693
1121.15,0.051217,414909,368753
1124.77,0.051558,416559,369929
1128.38,0.052766,418532,370649
1131.99,0.055041,419956,369967
1135.6,0.056473,421946,370496
1139.2,0.058771,423881,370231
1143.99,0.061795,426786,370182
1147.58,0.062527,428617,371144
1151.17,0.064409,431169,371739
1154.75,0.065448,433579,372924
1158.33,0.067994,436264,373040
1161.91,0.070409,439132,373410
1165.48,0.073273,442389,373707
1169.04,0.075950,446101,374527
1173.79,0.080631,451929,375352
1177.34,0.082683,456026,376970
1180.9,0.085639,461306,378748
1184.44,0.087381,467657,382425
1187.99,0.088338,473969,386734
1191.52,0.087807,479856,392016
1195.06,0.087285,487372,398635
1199.76,0.085567,497347,408406
1203.29,0.084554,504311,415092
1206.81,0.083449,511507,422088
1210.33,0.081887,519078,429878
1213.84,0.080528,527163,437942
1217.35,0.079368,534208,444982
1220.85,0.078841,540472,450746
1225.51,0.077316,549929,460247
1229.01,0.076220,556888,467248
1232.5,0.075664,562180,472293
1235.98,0.074957,567975,477939
1239.46,0.073481,574815,485341
1242.94,0.072524,582782,493154
1246.41,0.071742,591476,501413
1251.03,0.071028,604016,512885
1254.5,0.071444,612289,519413
1257.96,0.071881,619125,524684
1261.41,0.072478,624551,528555
1264.86,0.072783,629900,532707
1268.31,0.073752,634345,535271
1271.75,0.074001,638574,538530
1276.33,0.074647,642499,541035
1279.76,0.074364,645905,544258
1283.19,0.073968,648307,546780
1286.61,0.073784,650446,548817
1290.03,0.073478,652132,550627
1293.44,0.072637,653907,553196
1296.85,0.072485,655963,555129
1301.39,0.072470,657349,556322
1304.8,0.072257,657558,556771
1308.19,0.072965,658515,556674
1311.58,0.073056,658804,556801
1314.97,0.073715,659011,556132
1318.36,0.074160,658272,554939
1321.73,0.074437,658022,554375
1326.23,0.075665,657870,552682
1329.6,0.076776,656482,550107
1332.97,0.078199,654926,547007
1336.33,0.079554,653727,544305
1339.69,0.081518,652497,540830
1343.04,0.083666,649913,536030
1346.39,0.086009,647671,531307
1349.73,0.088630,645338,526208
1354.18,0.091937,641175,518847
1357.52,0.094303,638376,513776
1360.85,0.096846,635805,508719
1364.17,0.099085,633413,504199
1367.49,0.102126,631026,498794
1370.81,0.104960,628050,493213
1374.12,0.107083,625034,488451
1378.54,0.111372,620272,479966
1381.84,0.115783,616892,472527
1385.14,0.120582,613613,464850
1388.43,0.125959,611526,457568
1391.72,0.131337,610663,451299
1395.01,0.137922,610634,444487
1398.29,0.143840,611700,439237
1402.66,0.153258,614051,431466
1405.93,0.160500,616268,425863
1409.2,0.166752,617795,420816
1412.46,0.172957,618872,415570
1415.72,0.178712,619795,410711
1418.98,0.182931,620495,407200
1422.23,0.187813,621087,403032
1426.56,0.192677,621375,398728
1429.8,0.196020,621616,395824
1433.04,0.199062,622129,393386
1436.27,0.201331,621526,390956
1439.5,0.203906,621113,388387
1442.72,0.206929,620921,385574
1445.94,0.209390,620270,382993
1450.23,0.213023,618860,378939
1453.44,0.215894,617697,375735
1456.64,0.218897,616264,372280
1459.85,0.221469,614413,368970
1463.04,0.223868,612307,365680
1466.24,0.227183,610032,361551
1469.43,0.229525,607345,358023
1473.67,0.234614,603789,351780
1476.85,0.239422,601175,346401
1480.02,0.244814,597737,340170
1483.19,0.250491,594479,333922
1486.36,0.256496,591232,327538
1489.52,0.262004,587853,321562
1492.68,0.264900,583875,317263
1496.89,0.267742,578062,312056
1500.03,0.268343,574159,309520
1503.18,0.268910,570285,307031
1506.32,0.267287,565444,305564
1509.45,0.267757,560571,302603
1512.58,0.266024,555821,301239
1515.71,0.263811,550344,299794
1519.87,0.260514,543983,298587
1522.99,0.257831,538764,297555
1526.1,0.255285,533692,296487
1529.21,0.251819,527902,295620
1532.32,0.248470,521886,294514
1535.42,0.245740,515888,292965
1538.51,0.242065,509987,292075
1541.6,0.239157,503936,290548
1545.72,0.234117,494694,288549
1548.8,0.230640,488378,287155
1551.88,0.228499,481832,284706
1554.95,0.226293,474989,282092
1558.02,0.222958,467818,279975
1561.08,0.222022,460730,276328
1564.15,0.221027,454170,273018
1568.22,0.219694,444181,267834
1571.27,0.219365,436947,263672
1574.32,0.218355,429598,259841
1577.36,0.216919,422039,256114
1580.4,0.214349,414375,252956
1583.43,0.212758,406354,248970
1586.46,0.210875,398475,245203
1590.49,0.208973,388982,240412
1593.51,0.205719,380708,237068
1596.53,0.204076,372727,232978
1599.54,0.201086,365060,229762
1602.55,0.199539,357543,225834
1605.55,0.197086,349495,222001
1608.55,0.194265,341154,218115
1612.54,0.191528,330877,212882
1615.53,0.189470,322904,208739
1618.51,0.188098,315116,204349
1621.49,0.186761,307217,199841
1624.47,0.185274,299481,195477
1627.44,0.184175,292112,191150
1630.41,0.182653,284245,186655
1634.36,0.179483,274079,181298
1637.32,0.180110,266916,176305
1640.27,0.178340,259612,172181
1643.22,0.178221,251804,167048
1646.16,0.176576,244348,162717
1649.1,0.175772,236703,157918
1652.04,0.176737,228171,151888
1655.95,0.174752,215408,144049
1658.88,0.173833,204937,137337
1661.8,0.171998,193395,130151
1664.72,0.173708,179728,120478
1667.63,0.167544,163642,111263
1670.54,0.163767,146312,100349
1673.44,0.160065,128451,88853
1677.31,0.159926,105080,72710
1680.21,0.161563,88906,61287
1683.1,0.162317,75033,51634
1685.99,0.172706,63520,42678
1688.87,0.173339,53714,36037
1691.75,0.175340,45653,30488
1694.62,0.187976,39137,25387
1697.49,0.194798,33776,21568
1701.31,0.192401,28175,18091

File: Column 1_050536_20150331_115310.csv
Method:,Column 1,,
Host Date-Time:,31/3/15 @ 11:53:10,,
Header Version:,1,,
System Temp (C):,31.49,,
Detector Temp (C):,30.16,,
Humidity (%):,3.71,,
Lamp PD:,3827,,
Shift Vector Coefficients:,-10.5391,0.0761263,-0.000134223,,
Pixel to Wavelength Coefficients:,1775.68,-0.916766,-0.000235065,,
Serial Number:,5510004,,
Scan Config Name:,Column 1,,
Scan Config Type:,Slew,,
Section 1,,
Start wavelength (nm):,900,,
End wavelength (nm):,1700,,
Pattern Pixel Width (nm):,   7.03,,,,
Exposure (ms):,  0.635,,,,
Digital Resolution:,228,,
Num Repeats:,6,,
PGA Gain:,64,,
Total Measurement Time in sec:,  2.678,,
Wavelength (nm),Absorbance (AU),Reference Signal (unitless),Sample Signal (unitless)
901.51,0.043466,108485,98153
905.376,0.049567,121306,108222
909.237,0.049332,131909,117745
913.095,0.049947,143299,127731
916.948,0.049750,156982,139991
922.079,0.048964,179937,160752
925.923,0.050456,200504,178512
929.762,0.050335,222660,198293
933.597,0.052489,244426,216600
937.427,0.050586,263972,234948
941.254,0.051286,281845,250452
945.076,0.052428,297271,263466
950.165,0.052129,315605,279908
953.978,0.051980,328029,291026
957.786,0.053016,340470,301344
961.59,0.053218,352317,311685
965.389,0.053853,363056,320716
969.185,0.054095,373162,329460
972.976,0.054228,382632,337717
976.763,0.055313,391202,344420
981.806,0.056149,400190,351655
985.583,0.056875,406088,356242
989.355,0.057391,410162,359389
993.124,0.057606,412868,361581
996.888,0.058673,414263,361912
1000.65,0.059089,415476,362624
1004.4,0.060847,415479,361162
1009.41,0.061933,414358,359288
1013.15,0.062361,412923,357691
1016.89,0.062527,411526,356345
1020.63,0.062506,409066,354232
1024.36,0.062583,406777,352187
1028.09,0.061861,404427,350735
1031.82,0.061971,401911,348465
1036.78,0.061491,398410,345811
1040.49,0.060837,396204,344415
1044.2,0.060329,394236,343105
1047.91,0.060064,392042,341404
1051.61,0.059092,389823,340232
1055.31,0.058088,388234,339630
1059,0.057503,387599,339531
1063.92,0.056424,386688,339576
1067.61,0.055496,386598,340223
1071.29,0.055172,387377,341163
1074.96,0.054634,388536,342608
1078.63,0.053405,389855,344745
1082.3,0.052483,391215,346683
1085.96,0.052309,393215,348595
1090.84,0.051265,396270,352149
1094.49,0.050559,398760,354938
1098.14,0.050291,400987,357141
1101.79,0.050000,403477,359599
1105.43,0.049826,406116,362096
1109.06,0.049835,407701,363502
1112.7,0.049840,409859,365422
1117.53,0.049552,412494,368015
1121.15,0.050510,414909,369354
1124.77,0.050792,416559,370582
1128.38,0.052453,418532,370916
1131.99,0.054132,419956,370742
1135.6,0.056292,421946,370651
1139.2,0.058175,423881,370740
1143.99,0.061402,426786,370517
1147.58,0.062584,428617,371095
1151.17,0.063626,431169,372410
1154.75,0.064878,433579,373414
1158.33,0.067277,436264,373656
1161.91,0.070289,439132,373513
1165.48,0.073106,442389,373851
1169.04,0.076354,446101,374179
1173.79,0.079748,451929,376116
1177.34,0.082699,456026,376956
1180.9,0.085098,461306,379220
1184.44,0.087189,467657,382594
1187.99,0.087916,473969,387110
1191.52,0.087593,479856,392209
1195.06,0.086669,487372,399201
1199.76,0.085817,497347,408171
1203.29,0.084165,504311,415464
1206.81,0.082798,511507,422721
1210.33,0.081953,519078,429813
1213.84,0.080624,527163,437846
1217.35,0.079348,534208,445002
1220.85,0.078043,540472,451575
1225.51,0.076792,549929,460802
1229.01,0.076149,556888,467325
1232.5,0.075345,562180,472640
1235.98,0.074904,567975,477997
1239.46,0.073294,574815,485550
1242.94,0.072347,582782,493355
1246.41,0.071413,591476,501792
1251.03,0.071083,604016,512820
1254.5,0.071359,612289,519514
1257.96,0.071549,619125,525085
1261.41,0.072162,624551,528939
1264.86,0.072793,629900,532695
1268.31,0.073547,634345,535523
1271.75,0.073986,638574,538549
1276.33,0.074266,642499,541510
1279.76,0.074450,645905,544150
1283.19,0.073851,648307,546927
1286.61,0.073477,650446,549205
1290.03,0.073026,652132,551200
1293.44,0.072632,653907,553202
1296.85,0.072413,655963,555222
1301.39,0.072149,657349,556733
1304.8,0.072132,657558,556932
1308.19,0.072420,658515,557373
1311.58,0.073117,658804,556723
1314.97,0.073280,659011,556689
1318.36,0.073913,658272,555255
1321.73,0.074315,658022,554531
1326.23,0.075559,657870,552817
1329.6,0.076570,656482,550368
1332.97,0.077751,654926,547572
1336.33,0.079190,653727,544761
1339.69,0.081070,652497,541388
1343.04,0.083249,649913,536545
1346.39,0.085824,647671,531533
1349.73,0.087926,645338,527062
1354.18,0.091757,641175,519062
1357.52,0.093891,638376,514263
1360.85,0.096855,635805,508708
1364.17,0.098477,633413,504905
1367.49,0.101414,631026,499612
1370.81,0.104419,628050,493828
1374.12,0.107471,625034,488014
1378.54,0.111099,620272,480268
1381.84,0.115477,616892,472860
1385.14,0.120115,613613,465350
1388.43,0.125257,611526,458308
1391.72,0.131160,610663,451483
1395.01,0.137303,610634,445121
1398.29,0.143901,611700,439175
1402.66,0.152302,614051,432417
1405.93,0.160136,616268,426220
1409.2,0.166881,617795,420691
1412.46,0.172740,618872,415777
1415.72,0.178219,619795,411177
1418.98,0.183197,620495,406950
1422.23,0.187482,621087,403339
1426.56,0.192309,621375,399066
1429.8,0.195694,621616,396121
1433.04,0.198652,622129,393757
1436.27,0.201023,621526,391234
1439.5,0.203667,621113,388601
1442.72,0.206342,620921,386095
1445.94,0.208942,620270,383388
1450.23,0.212466,618860,379425
1453.44,0.215643,617697,375952
1456.64,0.218898,616264,372279
1459.85,0.220773,614413,369562
1463.04,0.223566,612307,365934
1466.24,0.226730,610032,361928
1469.43,0.229369,607345,358151
1473.67,0.234468,603789,351898
1476.85,0.239053,601175,346695
1480.02,0.243635,597737,341095
1483.19,0.250260,594479,334100
1486.36,0.256195,591232,327765
1489.52,0.260946,587853,322346
1492.68,0.264755,583875,317369
1496.89,0.267551,578062,312193
1500.03,0.268447,574159,309446
1503.18,0.268548,570285,307287
1506.32,0.267279,565444,305570
1509.45,0.266947,560571,303168
1512.58,0.265829,555821,301374
1515.71,0.262942,550344,300395
1519.87,0.260104,543983,298869
1522.99,0.257200,538764,297988
1526.1,0.255408,533692,296403
1529.21,0.251924,527902,295549
1532.32,0.248364,521886,294586
1535.42,0.245260,515888,293289
1538.51,0.241439,509987,292496
1541.6,0.238762,503936,290813
1545.72,0.233770,494694,288780
1548.8,0.230301,488378,287379
1551.88,0.227885,481832,285109
1554.95,0.225564,474989,282566
1558.02,0.223245,467818,279790
1561.08,0.221960,460730,276367
1564.15,0.221013,454170,273027
1568.22,0.220218,444181,267511
1571.27,0.219747,436947,263440
1574.32,0.218079,429598,260006
1577.36,0.215920,422039,256704
1580.4,0.214821,414375,252681
1583.43,0.212724,406354,248989
1586.46,0.211063,398475,245097
1590.49,0.207637,388982,241153
1593.51,0.205759,380708,237046
1596.53,0.204423,372727,232792
1599.54,0.201733,365060,229420
1602.55,0.198502,357543,226374
1605.55,0.196679,349495,222209
1608.55,0.193970,341154,218263
1612.54,0.191895,330877,212702
1615.53,0.189305,322904,208818
1618.51,0.186924,315116,204902
1621.49,0.185775,307217,200295
1624.47,0.185745,299481,195265
1627.44,0.183696,292112,191361
1630.41,0.181814,284245,187016
1634.36,0.179955,274079,181101
1637.32,0.179254,266916,176653
1640.27,0.177936,259612,172341
1643.22,0.175756,251804,167999
1646.16,0.176101,244348,162895
1649.1,0.176430,236703,157679
1652.04,0.175048,228171,152480
1655.95,0.173821,215408,144358
1658.88,0.171738,204937,138001
1661.8,0.170831,193395,130501
1664.72,0.169172,179728,121743
1667.63,0.166394,163642,111558
1670.54,0.162604,146312,100618
1673.44,0.160413,128451,88782
1677.31,0.158275,105080,72987
1680.21,0.157605,88906,61848
1683.1,0.160763,75033,51819
1685.99,0.167256,63520,43217
1688.87,0.174534,53714,35938
1691.75,0.176996,45653,30372
1694.62,0.177481,39137,26008
1697.49,0.185870,33776,22016
1701.31,0.196817,28175,17908

File: Column 1_050536_20150331_115312.csv
Method:,Column 1,,
Host Date-Time:,31/3/15 @ 11:53:12,,
Header Version:,1,,
System Temp (C):,31.5,,
Detector Temp (C):,30.11,,
Humidity (%):,3.71,,
Lamp PD:,3827,,
Shift Vector Coefficients:,-10.5391,0.0761263,-0.000134223,,
Pixel to Wavelength Coefficients:,1775.68,-0.916766,-0.000235065,,
Serial Number:,5510004,,
Scan Config Name:,Column 1,,
Scan Config Type:,Slew,,
Section 1,,
Start wavelength (nm):,900,,
End wavelength (nm):,1700,,
Pattern Pixel Width (nm):,   7.03,,,,
Exposure (ms):,  0.635,,,,
Digital Resolution:,228,,
Num Repeats:,6,,
PGA Gain:,64,,
Total Measurement Time in sec:,  2.737,,
Wavelength (nm),Absorbance (AU),Reference Signal (unitless),Sample Signal (unitless)
901.51,0.042229,108485,98433
905.376,0.047948,121306,108626
909.237,0.050847,131909,117335
913.095,0.048674,143299,128106
916.948,0.048783,156982,140303
922.079,0.049870,179937,160417
925.923,0.049690,200504,178827
929.762,0.049884,222660,198499
933.597,0.050922,244426,217383
937.427,0.051026,263972,234710
941.254,0.051562,281845,250293
945.076,0.051682,297271,263919
950.165,0.051546,315605,280284
953.978,0.051362,328029,291441
957.786,0.052151,340470,301945
961.59,0.053141,352317,311740
965.389,0.053283,363056,321137
969.185,0.054058,373162,329488
972.976,0.053764,382632,338078
976.763,0.055039,391202,344637
981.806,0.055447,400190,352224
985.583,0.056591,406088,356475
989.355,0.057230,410162,359522
993.124,0.057513,412868,361658
996.888,0.058032,414263,362447
1000.65,0.058521,415476,363099
1004.4,0.059825,415479,362013
1009.41,0.060842,414358,360192
1013.15,0.061604,412923,358315
1016.89,0.062394,411526,356454
1020.63,0.062238,409066,354450
1024.36,0.061638,406777,352954
1028.09,0.061934,404427,350676
1031.82,0.060814,401911,349394
1036.78,0.060319,398410,346746
1040.49,0.060185,396204,344932
1044.2,0.059492,394236,343767
1047.91,0.059218,392042,342070
1051.61,0.058354,389823,340811
1055.31,0.058006,388234,339694
1059,0.057617,387599,339442
1063.92,0.056160,386688,339782
1067.61,0.055074,386598,340554
1071.29,0.053968,387377,342110
1074.96,0.053993,388536,343114
1078.63,0.052878,389855,345164
1082.3,0.052245,391215,346873
1085.96,0.051070,393215,349591
1090.84,0.050715,396270,352595
1094.49,0.050458,398760,355021
1098.14,0.049916,400987,357449
1101.79,0.049563,403477,359961
1105.43,0.049504,406116,362365
1109.06,0.048856,407701,364322
1112.7,0.048815,409859,366285
1117.53,0.049215,412494,368301
1121.15,0.050368,414909,369475
1124.77,0.050489,416559,370841
1128.38,0.051851,418532,371431
1131.99,0.053744,419956,371073
1135.6,0.055695,421946,371161
1139.2,0.058011,423881,370880
1143.99,0.061083,426786,370789
1147.58,0.061933,428617,371652
1151.17,0.063364,431169,372635
1154.75,0.064636,433579,373622
1158.33,0.067167,436264,373751
1161.91,0.069751,439132,373976
1165.48,0.072691,442389,374208
1169.04,0.075425,446101,374980
1173.79,0.079671,451929,376183
1177.34,0.082358,456026,377252
1180.9,0.084563,461306,379687
1184.44,0.087195,467657,382589
1187.99,0.087279,473969,387678
1191.52,0.086714,479856,393004
1195.06,0.086098,487372,399726
1199.76,0.085520,497347,408451
1203.29,0.083588,504311,416016
1206.81,0.082214,511507,423290
1210.33,0.081448,519078,430313
1213.84,0.080398,527163,438073
1217.35,0.078683,534208,445684
1220.85,0.078030,540472,451589
1225.51,0.076998,549929,460584
1229.01,0.075897,556888,467596
1232.5,0.074932,562180,473090
1235.98,0.074056,567975,478931
1239.46,0.072874,574815,486020
1242.94,0.072217,582782,493502
1246.41,0.070912,591476,502372
1251.03,0.070633,604016,513352
1254.5,0.070675,612289,520333
1257.96,0.071161,619125,525554
1261.41,0.071535,624551,529704
1264.86,0.072597,629900,532936
1268.31,0.072998,634345,536201
1271.75,0.073546,638574,539095
1276.33,0.073799,642499,542093
1279.76,0.073945,645905,544783
1283.19,0.073385,648307,547515
1286.61,0.072641,650446,550263
1290.03,0.072777,652132,551516
1293.44,0.071933,653907,554094
1296.85,0.072012,655963,555735
1301.39,0.071611,657349,557423
1304.8,0.071639,657558,557564
1308.19,0.071767,658515,558211
1311.58,0.072690,658804,557271
1314.97,0.073057,659011,556975
1318.36,0.073758,658272,555453
1321.73,0.074062,658022,554853
1326.23,0.075121,657870,553374
1329.6,0.075910,656482,551205
1332.97,0.077716,654926,547616
1336.33,0.078781,653727,545275
1339.69,0.080886,652497,541617
1343.04,0.082972,649913,536887
1346.39,0.085202,647671,532295
1349.73,0.087409,645338,527689
1354.18,0.091099,641175,519850
1357.52,0.094047,638376,514079
1360.85,0.096264,635805,509401
1364.17,0.098493,633413,504887
1367.49,0.101467,631026,499551
1370.81,0.104116,628050,494172
1374.12,0.106926,625034,488627
1378.54,0.111125,620272,480239
1381.84,0.114713,616892,473692
1385.14,0.119683,613613,465813
1388.43,0.124970,611526,458611
1391.72,0.131144,610663,451500
1395.01,0.137156,610634,445272
1398.29,0.143438,611700,439643
1402.66,0.152332,614051,432387
1405.93,0.159564,616268,426782
1409.2,0.166095,617795,421453
1412.46,0.172108,618872,416383
1415.72,0.177427,619795,411928
1418.98,0.183152,620495,406992
1422.23,0.186603,621087,404156
1426.56,0.191729,621375,399599
1429.8,0.194680,621616,397047
1433.04,0.198471,622129,393921
1436.27,0.200984,621526,391269
1439.5,0.202822,621113,389358
1442.72,0.205603,620921,386753
1445.94,0.208038,620270,384187
1450.23,0.211875,618860,379942
1453.44,0.215136,617697,376391
1456.64,0.217810,616264,373213
1459.85,0.220351,614413,369921
1463.04,0.222836,612307,366550
1466.24,0.225719,610032,362772
1469.43,0.229400,607345,358126
1473.67,0.234069,603789,352222
1476.85,0.238844,601175,346862
1480.02,0.243650,597737,341083
1483.19,0.250377,594479,334010
1486.36,0.256092,591232,327843
1489.52,0.260761,587853,322484
1492.68,0.264225,583875,317757
1496.89,0.267273,578062,312393
1500.03,0.267966,574159,309789
1503.18,0.268075,570285,307622
1506.32,0.267297,565444,305557
1509.45,0.266134,560571,303736
1512.58,0.264918,555821,302007
1515.71,0.263073,550344,300304
1519.87,0.259634,543983,299193
1522.99,0.257057,538764,298086
1526.1,0.254571,533692,296975
1529.21,0.251586,527902,295779
1532.32,0.248262,521886,294655
1535.42,0.244977,515888,293480
1538.51,0.241949,509987,292153
1541.6,0.238260,503936,291149
1545.72,0.233015,494694,289282
1548.8,0.229934,488378,287622
1551.88,0.227463,481832,285386
1554.95,0.224959,474989,282960
1558.02,0.222948,467818,279981
1561.08,0.222676,460730,275912
1564.15,0.220793,454170,273165
1568.22,0.219362,444181,268039
1571.27,0.219236,436947,263750
1574.32,0.217546,429598,260325
1577.36,0.215284,422039,257080
1580.4,0.214604,414375,252807
1583.43,0.212833,406354,248927
1586.46,0.210222,398475,245572
1590.49,0.207405,388982,241282
1593.51,0.206051,380708,236887
1596.53,0.203662,372727,233200
1599.54,0.201097,365060,229756
1602.55,0.198465,357543,226393
1605.55,0.196160,349495,222475
1608.55,0.193935,341154,218281
1612.54,0.190092,330877,213587
1615.53,0.188865,322904,209030
1618.51,0.187448,315116,204655
1621.49,0.186107,307217,200142
1624.47,0.184526,299481,195814
1627.44,0.181929,292112,192141
1630.41,0.181181,284245,187289
1634.36,0.180404,274079,180914
1637.32,0.178580,266916,176927
1640.27,0.178900,259612,171959
1643.22,0.178138,251804,167080
1646.16,0.175965,244348,162946
1649.1,0.176122,236703,157791
1652.04,0.176363,228171,152019
1655.95,0.172856,215408,144679
1658.88,0.173330,204937,137496
1661.8,0.171004,193395,130449
1664.72,0.169825,179728,121560
1667.63,0.166655,163642,111491
1670.54,0.161953,146312,100769
1673.44,0.160564,128451,88751
1677.31,0.158233,105080,72994
1680.21,0.157240,88906,61900
1683.1,0.162577,75033,51603
1685.99,0.170787,63520,42867
1688.87,0.175683,53714,35843
1691.75,0.169834,45653,30877
1694.62,0.181490,39137,25769
1697.49,0.185436,33776,22038
1701.31,0.188197,28175,18267