Folder: textile_sorting_NIRSCAN_/samples/wool/wool-000811 (part 12)

File: Column 1_050537_20150331_115347.csv
Method:,Column 1,,
Host Date-Time:,31/3/15 @ 11:53:47,,
Header Version:,1,,
System Temp (C):,31.73,,
Detector Temp (C):,30.15,,
Humidity (%):,3.51,,
Lamp PD:,3826,,
Shift Vector Coefficients:,-10.5391,0.0761263,-0.000134223,,
Pixel to Wavelength Coefficients:,1775.68,-0.916766,-0.000235065,,
Serial Number:,5510004,,
Scan Config Name:,Column 1,,
Scan Config Type:,Slew,,
Section 1,,
Start wavelength (nm):,900,,
End wavelength (nm):,1700,,
Pattern Pixel Width (nm):,   7.03,,,,
Exposure (ms):,  0.635,,,,
Digital Resolution:,228,,
Num Repeats:,6,,
PGA Gain:,64,,
Total Measurement Time in sec:,  2.663,,
Wavelength (nm),Absorbance (AU),Reference Signal (unitless),Sample Signal (unitless)
901.51,0.044188,108485,97990
905.376,0.049330,121306,108281
909.237,0.049889,131909,117594
913.095,0.051756,143299,127200
916.948,0.051980,156982,139274
922.079,0.050735,179937,160098
925.923,0.050222,200504,178608
929.762,0.050940,222660,198017
933.597,0.051962,244426,216863
937.427,0.052331,263972,234006
941.254,0.052995,281845,249468
945.076,0.052614,297271,263353
950.165,0.053186,315605,279227
953.978,0.053155,328029,290240
957.786,0.052964,340470,301380
961.59,0.054457,352317,310797
965.389,0.054539,363056,320210
969.185,0.054794,373162,328930
972.976,0.055389,382632,336816
976.763,0.055916,391202,343942
981.806,0.056715,400190,351197
985.583,0.057202,406088,355974
989.355,0.058293,410162,358643
993.124,0.058423,412868,360901
996.888,0.058956,414263,361676
1000.65,0.059188,415476,362542
1004.4,0.060983,415479,361049
1009.41,0.062801,414358,358571
1013.15,0.063059,412923,357117
1016.89,0.063523,411526,355528
1020.63,0.063373,409066,353525
1024.36,0.063098,406777,351770
1028.09,0.062845,404427,349941
1031.82,0.062432,401911,348095
1036.78,0.061955,398410,345442
1040.49,0.061645,396204,343775
1044.2,0.060987,394236,342586
1047.91,0.060385,392042,341152
1051.61,0.059327,389823,340048
1055.31,0.058793,388234,339079
1059,0.057645,387599,339420
1063.92,0.056872,386688,339226
1067.61,0.056138,386598,339720
1071.29,0.055740,387377,340717
1074.96,0.054526,388536,342693
1078.63,0.053868,389855,344378
1082.3,0.053031,391215,346246
1085.96,0.052188,393215,348692
1090.84,0.051478,396270,351976
1094.49,0.051176,398760,354434
1098.14,0.051106,400987,356471
1101.79,0.050450,403477,359227
1105.43,0.050202,406116,361783
1109.06,0.050038,407701,363332
1112.7,0.049692,409859,365546
1117.53,0.050141,412494,367516
1121.15,0.051631,414909,368402
1124.77,0.051814,416559,369711
1128.38,0.053195,418532,370283
1131.99,0.054684,419956,370271
1135.6,0.056967,421946,370075
1139.2,0.058637,423881,370345
1143.99,0.061760,426786,370212
1147.58,0.063080,428617,370672
1151.17,0.064442,431169,371711
1154.75,0.066098,433579,372366
1158.33,0.068208,436264,372856
1161.91,0.070421,439132,373400
1165.48,0.072607,442389,374281
1169.04,0.076408,446101,374132
1173.79,0.080276,451929,375659
1177.34,0.083467,456026,376290
1180.9,0.085618,461306,378766
1184.44,0.087094,467657,382678
1187.99,0.088552,473969,386543
1191.52,0.087618,479856,392187
1195.06,0.087222,487372,398693
1199.76,0.085769,497347,408216
1203.29,0.084525,504311,415120
1206.81,0.083453,511507,422084
1210.33,0.081815,519078,429950
1213.84,0.080814,527163,437654
1217.35,0.080018,534208,444316
1220.85,0.078757,540472,450834
1225.51,0.077593,549929,459953
1229.01,0.076981,556888,466430
1232.5,0.075737,562180,472213
1235.98,0.075223,567975,477646
1239.46,0.073867,574815,484910
1242.94,0.072615,582782,493050
1246.41,0.071723,591476,501434
1251.03,0.071769,604016,512011
1254.5,0.071347,612289,519529
1257.96,0.071929,619125,524625
1261.41,0.072599,624551,528408
1264.86,0.073137,629900,532273
1268.31,0.073625,634345,535427
1271.75,0.074405,638574,538030
1276.33,0.074903,642499,540716
1279.76,0.074661,645905,543886
1283.19,0.074143,648307,546560
1286.61,0.073719,650446,548899
1290.03,0.073221,652132,550953
1293.44,0.073216,653907,552459
1296.85,0.072900,655963,554599
1301.39,0.072691,657349,556039
1304.8,0.072530,657558,556422
1308.19,0.073037,658515,556581
1311.58,0.072937,658804,556954
1314.97,0.073826,659011,555989
1318.36,0.074247,658272,554828
1321.73,0.074651,658022,554102
1326.23,0.075745,657870,552580
1329.6,0.076875,656482,549981
1332.97,0.078164,654926,547051
1336.33,0.079492,653727,544383
1339.69,0.081424,652497,540947
1343.04,0.083599,649913,536113
1346.39,0.085997,647671,531321
1349.73,0.088467,645338,526405
1354.18,0.091767,641175,519051
1357.52,0.093937,638376,514209
1360.85,0.096556,635805,509059
1364.17,0.099182,633413,504086
1367.49,0.101768,631026,499205
1370.81,0.104646,628050,493569
1374.12,0.107336,625034,488166
1378.54,0.111532,620272,479789
1381.84,0.115848,616892,472456
1385.14,0.120273,613613,465181
1388.43,0.125318,611526,458244
1391.72,0.131421,610663,451212
1395.01,0.137194,610634,445233
1398.29,0.143588,611700,439492
1402.66,0.152776,614051,431945
1405.93,0.159648,616268,426699
1409.2,0.166165,617795,421385
1412.46,0.172551,618872,415958
1415.72,0.177510,619795,411849
1418.98,0.183099,620495,407042
1422.23,0.187024,621087,403765
1426.56,0.191942,621375,399403
1429.8,0.195217,621616,396557
1433.04,0.197970,622129,394376
1436.27,0.201013,621526,391243
1439.5,0.202711,621113,389457
1442.72,0.205696,620921,386670
1445.94,0.208495,620270,383783
1450.23,0.211847,618860,379967
1453.44,0.215090,617697,376431
1456.64,0.217637,616264,373362
1459.85,0.220073,614413,370158
1463.04,0.223005,612307,366407
1466.24,0.226091,610032,362461
1469.43,0.229115,607345,358361
1473.67,0.233756,603789,352476
1476.85,0.238531,601175,347112
1480.02,0.244035,597737,340781
1483.19,0.250475,594479,333935
1486.36,0.255944,591232,327955
1489.52,0.260548,587853,322642
1492.68,0.264969,583875,317213
1496.89,0.267575,578062,312176
1500.03,0.268843,574159,309164
1503.18,0.268315,570285,307452
1506.32,0.267758,565444,305233
1509.45,0.266669,560571,303362
1512.58,0.265557,555821,301563
1515.71,0.263331,550344,300126
1519.87,0.260498,543983,298598
1522.99,0.257767,538764,297599
1526.1,0.254021,533692,297351
1529.21,0.251554,527902,295801
1532.32,0.248539,521886,294467
1535.42,0.245580,515888,293073
1538.51,0.241466,509987,292478
1541.6,0.238796,503936,290790
1545.72,0.233341,494694,289065
1548.8,0.230158,488378,287474
1551.88,0.227635,481832,285273
1554.95,0.225863,474989,282371
1558.02,0.223096,467818,279886
1561.08,0.222044,460730,276314
1564.15,0.221189,454170,272916
1568.22,0.219215,444181,268130
1571.27,0.219304,436947,263709
1574.32,0.218244,429598,259907
1577.36,0.215998,422039,256658
1580.4,0.214917,414375,252625
1583.43,0.213007,406354,248827
1586.46,0.211118,398475,245066
1590.49,0.208082,388982,240906
1593.51,0.205327,380708,237282
1596.53,0.203873,372727,233087
1599.54,0.201275,365060,229662
1602.55,0.199118,357543,226053
1605.55,0.196568,349495,222266
1608.55,0.193706,341154,218396
1612.54,0.191564,330877,212864
1615.53,0.189295,322904,208823
1618.51,0.187922,315116,204432
1621.49,0.186413,307217,200001
1624.47,0.184071,299481,196019
1627.44,0.183778,292112,191325
1630.41,0.181977,284245,186946
1634.36,0.180012,274079,181077
1637.32,0.179170,266916,176687
1640.27,0.178721,259612,172030
1643.22,0.176799,251804,167596
1646.16,0.176896,244348,162597
1649.1,0.174986,236703,158204
1652.04,0.174202,228171,152777
1655.95,0.172793,215408,144700
1658.88,0.172132,204937,137876
1661.8,0.172729,193395,129932
1664.72,0.169529,179728,121643
1667.63,0.164956,163642,111928
1670.54,0.162967,146312,100534
1673.44,0.158996,128451,89072
1677.31,0.155132,105080,73517
1680.21,0.154352,88906,62313
1683.1,0.159140,75033,52013
1685.99,0.161436,63520,43800
1688.87,0.169559,53714,36352
1691.75,0.175241,45653,30495
1694.62,0.178065,39137,25973
1697.49,0.183784,33776,22122
1701.31,0.189816,28175,18199

File: Column 1_050537_20150331_115350.csv
Method:,Column 1,,
Host Date-Time:,31/3/15 @ 11:53:50,,
Header Version:,1,,
System Temp (C):,31.76,,
Detector Temp (C):,30.17,,
Humidity (%):,3.51,,
Lamp PD:,3826,,
Shift Vector Coefficients:,-10.5391,0.0761263,-0.000134223,,
Pixel to Wavelength Coefficients:,1775.68,-0.916766,-0.000235065,,
Serial Number:,5510004,,
Scan Config Name:,Column 1,,
Scan Config Type:,Slew,,
Section 1,,
Start wavelength (nm):,900,,
End wavelength (nm):,1700,,
Pattern Pixel Width (nm):,   7.03,,,,
Exposure (ms):,  0.635,,,,
Digital Resolution:,228,,
Num Repeats:,6,,
PGA Gain:,64,,
Total Measurement Time in sec:,  2.676,,
Wavelength (nm),Absorbance (AU),Reference Signal (unitless),Sample Signal (unitless)
901.51,0.043448,108485,98157
905.376,0.049755,121306,108175
909.237,0.051803,131909,117077
913.095,0.051947,143299,127144
916.948,0.051020,156982,139582
922.079,0.050990,179937,160004
925.923,0.051825,200504,177950
929.762,0.053000,222660,197080
933.597,0.052950,244426,216370
937.427,0.052609,263972,233856
941.254,0.053797,281845,249008
945.076,0.053866,297271,262595
950.165,0.053311,315605,279147
953.978,0.053838,328029,289784
957.786,0.054427,340470,300367
961.59,0.054817,352317,310539
965.389,0.055189,363056,319731
969.185,0.055115,373162,328687
972.976,0.056119,382632,336250
976.763,0.056176,391202,343736
981.806,0.057439,400190,350612
985.583,0.057877,406088,355421
989.355,0.058159,410162,358754
993.124,0.058517,412868,360823
996.888,0.059621,414263,361123
1000.65,0.060345,415476,361577
1004.4,0.061841,415479,360336
1009.41,0.063000,414358,358406
1013.15,0.063309,412923,356911
1016.89,0.063907,411526,355214
1020.63,0.063933,409066,353070
1024.36,0.064250,406777,350838
1028.09,0.063358,404427,349528
1031.82,0.064030,401911,346817
1036.78,0.062243,398410,345213
1040.49,0.061925,396204,343553
1044.2,0.061872,394236,341888
1047.91,0.060262,392042,341248
1051.61,0.059740,389823,339725
1055.31,0.059441,388234,338573
1059,0.058616,387599,338662
1063.92,0.057529,386688,338713
1067.61,0.056911,386598,339116
1071.29,0.056154,387377,340392
1074.96,0.055568,388536,341872
1078.63,0.054640,389855,343766
1082.3,0.053985,391215,345486
1085.96,0.053081,393215,347976
1090.84,0.051963,396270,351583
1094.49,0.051576,398760,354108
1098.14,0.051705,400987,355980
1101.79,0.050666,403477,359048
1105.43,0.051092,406116,361042
1109.06,0.050103,407701,363278
1112.7,0.050226,409859,365097
1117.53,0.050275,412494,367403
1121.15,0.052008,414909,368082
1124.77,0.052050,416559,369510
1128.38,0.053779,418532,369785
1131.99,0.055344,419956,369709
1135.6,0.057379,421946,369724
1139.2,0.059454,423881,369649
1143.99,0.062304,426786,369748
1147.58,0.062904,428617,370822
1151.17,0.064731,431169,371464
1154.75,0.066122,433579,372346
1158.33,0.068066,436264,372978
1161.91,0.071147,439132,372776
1165.48,0.073859,442389,373203
1169.04,0.076451,446101,374095
1173.79,0.080583,451929,375394
1177.34,0.083633,456026,376146
1180.9,0.086069,461306,378373
1184.44,0.087905,467657,381964
1187.99,0.088687,473969,386423
1191.52,0.088477,479856,391412
1195.06,0.087896,487372,398075
1199.76,0.085930,497347,408065
1203.29,0.084837,504311,414822
1206.81,0.084005,511507,421548
1210.33,0.082205,519078,429564
1213.84,0.081705,527163,436757
1217.35,0.080299,534208,444029
1220.85,0.078997,540472,450584
1225.51,0.078053,549929,459466
1229.01,0.077125,556888,466276
1232.5,0.076210,562180,471700
1235.98,0.075855,567975,476952
1239.46,0.074319,574815,484405
1242.94,0.073546,582782,491994
1246.41,0.072574,591476,500453
1251.03,0.071915,604016,511839
1254.5,0.072090,612289,518641
1257.96,0.072695,619125,523701
1261.41,0.073139,624551,527751
1264.86,0.073592,629900,531716
1268.31,0.074385,634345,534491
1271.75,0.075359,638574,536849
1276.33,0.075611,642499,539835
1279.76,0.075155,645905,543268
1283.19,0.074734,648307,545816
1286.61,0.074309,650446,548154
1290.03,0.073839,652132,550170
1293.44,0.072964,653907,552779
1296.85,0.073124,655963,554313
1301.39,0.073010,657349,555630
1304.8,0.072787,657558,556093
1308.19,0.073605,658515,555854
1311.58,0.073437,658804,556313
1314.97,0.074573,659011,555034
1318.36,0.075125,658272,553708
1321.73,0.075244,658022,553345
1326.23,0.075985,657870,552275
1329.6,0.077275,656482,549475
1332.97,0.078500,654926,546628
1336.33,0.079885,653727,543890
1339.69,0.081935,652497,540311
1343.04,0.083951,649913,535678
1346.39,0.086511,647671,530693
1349.73,0.088674,645338,526154
1354.18,0.092269,641175,518451
1357.52,0.095053,638376,512889
1360.85,0.097088,635805,508436
1364.17,0.099591,633413,503612
1367.49,0.102278,631026,498620
1370.81,0.104988,628050,493181
1374.12,0.107693,625034,487765
1378.54,0.111885,620272,479399
1381.84,0.115929,616892,472368
1385.14,0.120321,613613,465129
1388.43,0.125882,611526,457649
1391.72,0.131859,610663,450757
1395.01,0.138024,610634,444383
1398.29,0.144300,611700,438772
1402.66,0.153310,614051,431414
1405.93,0.160065,616268,426289
1409.2,0.166778,617795,420791
1412.46,0.172824,618872,415697
1415.72,0.178586,619795,410830
1418.98,0.182940,620495,407191
1422.23,0.187200,621087,403601
1426.56,0.192370,621375,399010
1429.8,0.195717,621616,396100
1433.04,0.198761,622129,393658
1436.27,0.201056,621526,391204
1439.5,0.203004,621113,389194
1442.72,0.205819,620921,386560
1445.94,0.208943,620270,383387
1450.23,0.212355,618860,379522
1453.44,0.215377,617697,376182
1456.64,0.218156,616264,372916
1459.85,0.220686,614413,369636
1463.04,0.223645,612307,365868
1466.24,0.226571,610032,362061
1469.43,0.229451,607345,358084
1473.67,0.234333,603789,352008
1476.85,0.239568,601175,346284
1480.02,0.244369,597737,340519
1483.19,0.250551,594479,333876
1486.36,0.256837,591232,327281
1489.52,0.261991,587853,321572
1492.68,0.265217,583875,317032
1496.89,0.267458,578062,312260
1500.03,0.268307,574159,309546
1503.18,0.269493,570285,306619
1506.32,0.269158,565444,304251
1509.45,0.267555,560571,302744
1512.58,0.266317,555821,301036
1515.71,0.263808,550344,299796
1519.87,0.260594,543983,298532
1522.99,0.258004,538764,297437
1526.1,0.255081,533692,296626
1529.21,0.251900,527902,295565
1532.32,0.248226,521886,294679
1535.42,0.245931,515888,292836
1538.51,0.242417,509987,291838
1541.6,0.238899,503936,290721
1545.72,0.234171,494694,288513
1548.8,0.231315,488378,286709
1551.88,0.227825,481832,285148
1554.95,0.225355,474989,282702
1558.02,0.223113,467818,279875
1561.08,0.222309,460730,276145
1564.15,0.221118,454170,272961
1568.22,0.220454,444181,267366
1571.27,0.219851,436947,263377
1574.32,0.218589,429598,259701
1577.36,0.216970,422039,256084
1580.4,0.215321,414375,252390
1583.43,0.213382,406354,248612
1586.46,0.210627,398475,245343
1590.49,0.208961,388982,240419
1593.51,0.206308,380708,236747
1596.53,0.204492,372727,232755
1599.54,0.201565,365060,229509
1602.55,0.199037,357543,226095
1605.55,0.196992,349495,222049
1608.55,0.195074,341154,217709
1612.54,0.192114,330877,212595
1615.53,0.189947,322904,208510
1618.51,0.187696,315116,204538
1621.49,0.186789,307217,199828
1624.47,0.184240,299481,195943
1627.44,0.183941,292112,191253
1630.41,0.181703,284245,187064
1634.36,0.180711,274079,180786
1637.32,0.180117,266916,176302
1640.27,0.179357,259612,171778
1643.22,0.177785,251804,167216
1646.16,0.176704,244348,162669
1649.1,0.175783,236703,157914
1652.04,0.174843,228171,152552
1655.95,0.174577,215408,144107
1658.88,0.172371,204937,137800
1661.8,0.171294,193395,130362
1664.72,0.169550,179728,121637
1667.63,0.164553,163642,112032
1670.54,0.160714,146312,101057
1673.44,0.158884,128451,89095
1677.31,0.156849,105080,73227
1680.21,0.156736,88906,61972
1683.1,0.162544,75033,51607
1685.99,0.167085,63520,43234
1688.87,0.172737,53714,36087
1691.75,0.175369,45653,30486
1694.62,0.179338,39137,25897
1697.49,0.176522,33776,22495
1701.31,0.181380,28175,18556

File: Column 1_050537_20150331_115355.csv
Method:,Column 1,,
Host Date-Time:,31/3/15 @ 11:53:55,,
Header Version:,1,,
System Temp (C):,31.8,,
Detector Temp (C):,30.17,,
Humidity (%):,3.46,,
Lamp PD:,3826,,
Shift Vector Coefficients:,-10.5391,0.0761263,-0.000134223,,
Pixel to Wavelength Coefficients:,1775.68,-0.916766,-0.000235065,,
Serial Number:,5510004,,
Scan Config Name:,Column 1,,
Scan Config Type:,Slew,,
Section 1,,
Start wavelength (nm):,900,,
End wavelength (nm):,1700,,
Pattern Pixel Width (nm):,   7.03,,,,
Exposure (ms):,  0.635,,,,
Digital Resolution:,228,,
Num Repeats:,6,,
PGA Gain:,64,,
Total Measurement Time in sec:,  2.672,,
Wavelength (nm),Absorbance (AU),Reference Signal (unitless),Sample Signal (unitless)
901.51,0.043958,108485,98042
905.376,0.053129,121306,107338
909.237,0.051384,131909,117190
913.095,0.051763,143299,127198
916.948,0.051509,156982,139425
922.079,0.051715,179937,159737
925.923,0.052120,200504,177829
929.762,0.052544,222660,197287
933.597,0.054205,244426,215746
937.427,0.053660,263972,233291
941.254,0.053926,281845,248934
945.076,0.053896,297271,262577
950.165,0.055113,315605,277991
953.978,0.054253,328029,289507
957.786,0.054917,340470,300028
961.59,0.055152,352317,310300
965.389,0.055230,363056,319701
969.185,0.055619,373162,328306
972.976,0.056666,382632,335827
976.763,0.056915,391202,343152
981.806,0.057949,400190,350201
985.583,0.058654,406088,354786
989.355,0.058654,410162,358345
993.124,0.059978,412868,359611
996.888,0.060206,414263,360637
1000.65,0.061399,415476,360701
1004.4,0.062627,415479,359685
1009.41,0.063595,414358,357916
1013.15,0.063931,412923,356400
1016.89,0.064763,411526,354515
1020.63,0.064578,409066,352546
1024.36,0.064282,406777,350812
1028.09,0.064033,404427,348985
1031.82,0.063344,401911,347365
1036.78,0.063258,398410,344407
1040.49,0.062258,396204,343290
1044.2,0.061994,394236,341792
1047.91,0.061075,392042,340610
1051.61,0.060869,389823,338843
1055.31,0.059739,388234,338341
1059,0.058679,387599,338613
1063.92,0.057855,386688,338459
1067.61,0.057157,386598,338924
1071.29,0.055432,387377,340959
1074.96,0.055804,388536,341686
1078.63,0.055215,389855,343311
1082.3,0.053758,391215,345667
1085.96,0.053764,393215,347429
1090.84,0.052369,396270,351255
1094.49,0.051857,398760,353879
1098.14,0.051887,400987,355831
1101.79,0.051579,403477,358294
1105.43,0.051533,406116,360676
1109.06,0.051160,407701,362395
1112.7,0.050994,409859,364452
1117.53,0.050360,412494,367331
1121.15,0.052092,414909,368011
1124.77,0.052144,416559,369430
1128.38,0.053931,418532,369656
1131.99,0.055576,419956,369511
1135.6,0.058564,421946,368717
1139.2,0.059544,423881,369573
1143.99,0.062887,426786,369252
1147.58,0.063686,428617,370155
1151.17,0.065719,431169,370620
1154.75,0.067188,433579,371433
1158.33,0.068300,436264,372777
1161.91,0.070650,439132,373203
1165.48,0.074095,442389,373000
1169.04,0.076910,446101,373700
1173.79,0.081393,451929,374694
1177.34,0.083716,456026,376074
1180.9,0.086526,461306,377975
1184.44,0.088394,467657,381534
1187.99,0.089028,473969,386120
1191.52,0.088669,479856,391239
1195.06,0.088063,487372,397922
1199.76,0.086559,497347,407475
1203.29,0.085307,504311,414373
1206.81,0.083976,511507,421576
1210.33,0.082575,519078,429198
1213.84,0.082021,527163,436439
1217.35,0.080829,534208,443488
1220.85,0.079834,540472,449717
1225.51,0.078087,549929,459430
1229.01,0.077424,556888,465955
1232.5,0.076828,562180,471029
1235.98,0.076170,567975,476606
1239.46,0.074646,574815,484041
1242.94,0.073732,582782,491784
1246.41,0.072393,591476,500661
1251.03,0.072156,604016,511555
1254.5,0.072439,612289,518224
1257.96,0.072928,619125,523420
1261.41,0.073118,624551,527776
1264.86,0.074114,629900,531077
1268.31,0.074380,634345,534497
1271.75,0.075156,638574,537100
1276.33,0.075658,642499,539777
1279.76,0.075348,645905,543026
1283.19,0.074987,648307,545499
1286.61,0.074242,650446,548238
1290.03,0.074213,652132,549696
1293.44,0.073759,653907,551769
1296.85,0.073546,655963,553775
1301.39,0.073530,657349,554965
1304.8,0.073373,657558,555343
1308.19,0.073648,658515,555799
1311.58,0.073628,658804,556068
1314.97,0.074288,659011,555398
1318.36,0.074614,658272,554359
1321.73,0.075278,658022,553302
1326.23,0.076599,657870,551495
1329.6,0.077329,656482,549406
1332.97,0.079124,654926,545843
1336.33,0.080085,653727,543640
1339.69,0.082454,652497,539665
1343.04,0.084440,649913,535076
1346.39,0.086571,647671,530620
1349.73,0.089166,645338,525559
1354.18,0.092426,641175,518264
1357.52,0.095302,638376,512595
1360.85,0.097540,635805,507907
1364.17,0.099781,633413,503392
1367.49,0.102782,631026,498041
1370.81,0.105817,628050,492240
1374.12,0.108299,625034,487085
1378.54,0.111998,620272,479274
1381.84,0.116194,616892,472080
1385.14,0.120760,613613,464659
1388.43,0.126567,611526,456928
1391.72,0.132248,610663,450354
1395.01,0.138213,610634,444189
1398.29,0.144611,611700,438457
1402.66,0.153244,614051,431480
1405.93,0.160603,616268,425762
1409.2,0.167009,617795,420567
1412.46,0.173139,618872,415396
1415.72,0.178311,619795,411090
1418.98,0.183388,620495,406771
1422.23,0.187789,621087,403054
1426.56,0.192603,621375,398796
1429.8,0.195877,621616,395954
1433.04,0.198507,622129,393889
1436.27,0.201109,621526,391156
1439.5,0.203457,621113,388789
1442.72,0.206593,620921,385872
1445.94,0.208502,620270,383777
1450.23,0.212185,618860,379671
1453.44,0.215158,617697,376372
1456.64,0.218273,616264,372815
1459.85,0.221142,614413,369248
1463.04,0.223335,612307,366129
1466.24,0.226589,610032,362046
1469.43,0.229761,607345,357828
1473.67,0.234712,603789,351701
1476.85,0.239083,601175,346671
1480.02,0.245133,597737,339920
1483.19,0.250853,594479,333644
1486.36,0.256846,591232,327274
1489.52,0.261630,587853,321839
1492.68,0.265070,583875,317139
1496.89,0.268422,578062,311568
1500.03,0.269152,574159,308944
1503.18,0.269136,570285,306871
1506.32,0.268370,565444,304803
1509.45,0.267148,560571,303028
1512.58,0.265969,555821,301277
1515.71,0.263743,550344,299841
1519.87,0.261223,543983,298100
1522.99,0.257983,538764,297451
1526.1,0.255804,533692,296133
1529.21,0.252618,527902,295077
1532.32,0.249409,521886,293878
1535.42,0.245532,515888,293105
1538.51,0.242459,509987,291810
1541.6,0.238995,503936,290657
1545.72,0.234619,494694,288216
1548.8,0.231436,488378,286629
1551.88,0.228601,481832,284639
1554.95,0.225736,474989,282454
1558.02,0.223366,467818,279712
1561.08,0.222184,460730,276225
1564.15,0.221825,454170,272517
1568.22,0.221290,444181,266852
1571.27,0.219770,436947,263426
1574.32,0.218595,429598,259697
1577.36,0.217588,422039,255720
1580.4,0.215872,414375,252070
1583.43,0.213269,406354,248677
1586.46,0.211281,398475,244974
1590.49,0.208692,388982,240568
1593.51,0.206979,380708,236381
1596.53,0.204944,372727,232513
1599.54,0.202299,365060,229121
1602.55,0.199326,357543,225945
1605.55,0.197777,349495,221648
1608.55,0.195481,341154,217505
1612.54,0.192553,330877,212380
1615.53,0.189853,322904,208555
1618.51,0.188813,315116,204013
1621.49,0.187677,307217,199420
1624.47,0.185503,299481,195374
1627.44,0.184057,292112,191202
1630.41,0.183368,284245,186348
1634.36,0.181163,274079,180598
1637.32,0.180679,266916,176074
1640.27,0.180190,259612,171449
1643.22,0.178992,251804,166752
1646.16,0.176253,244348,162838
1649.1,0.176386,236703,157695
1652.04,0.175484,228171,152327
1655.95,0.175129,215408,143924
1658.88,0.172396,204937,137792
1661.8,0.172525,193395,129993
1664.72,0.169718,179728,121590
1667.63,0.165224,163642,111859
1670.54,0.161040,146312,100981
1673.44,0.158319,128451,89211
1677.31,0.156333,105080,73314
1680.21,0.156708,88906,61976
1683.1,0.160127,75033,51895
1685.99,0.161506,63520,43793
1688.87,0.171403,53714,36198
1691.75,0.179031,45653,30230
1694.62,0.171741,39137,26354
1697.49,0.182138,33776,22206
1701.31,0.177883,28175,18706