Folder: textile_sorting_NIRSCAN_/samples/wool/wool-000811 (part 163)

File: Column 1_050621_20150331_123337.csv
Method:,Column 1,,
Host Date-Time:,31/3/15 @ 12:33:37,,
Header Version:,1,,
System Temp (C):,34.16,,
Detector Temp (C):,34.98,,
Humidity (%):,1.56,,
Lamp PD:,3818,,
Shift Vector Coefficients:,-10.5391,0.0761263,-0.000134223,,
Pixel to Wavelength Coefficients:,1775.68,-0.916766,-0.000235065,,
Serial Number:,5510004,,
Scan Config Name:,Column 1,,
Scan Config Type:,Slew,,
Section 1,,
Start wavelength (nm):,900,,
End wavelength (nm):,1700,,
Pattern Pixel Width (nm):,   7.03,,,,
Exposure (ms):,  0.635,,,,
Digital Resolution:,228,,
Num Repeats:,6,,
PGA Gain:,64,,
Total Measurement Time in sec:,  2.728,,
Wavelength (nm),Absorbance (AU),Reference Signal (unitless),Sample Signal (unitless)
901.51,0.069139,108485,92519
905.376,0.074007,121306,102300
909.237,0.077085,131909,110456
913.095,0.078251,143299,119672
916.948,0.079737,156982,130651
922.079,0.079736,179937,149756
925.923,0.081923,200504,166035
929.762,0.082437,222660,184164
933.597,0.083342,244426,201746
937.427,0.080482,263972,219319
941.254,0.080444,281845,234189
945.076,0.079260,297271,247681
950.165,0.078095,315605,263663
953.978,0.077237,328029,274584
957.786,0.077809,340470,284623
961.59,0.077268,352317,294894
965.389,0.077695,363056,303584
969.185,0.077953,373162,311849
972.976,0.077553,382632,320058
976.763,0.078380,391202,326604
981.806,0.078275,400190,334188
985.583,0.079227,406088,338371
989.355,0.079256,410162,341743
993.124,0.080230,412868,343227
996.888,0.080705,414263,344010
1000.65,0.081826,415476,344128
1004.4,0.082858,415479,343314
1009.41,0.083910,414358,341559
1013.15,0.084109,412923,340220
1016.89,0.085152,411526,338256
1020.63,0.084659,409066,336616
1024.36,0.085271,406777,334261
1028.09,0.084466,404427,332946
1031.82,0.084495,401911,330853
1036.78,0.084030,398410,328322
1040.49,0.083229,396204,327107
1044.2,0.084278,394236,324697
1047.91,0.083889,392042,323179
1051.61,0.083348,389823,321751
1055.31,0.082751,388234,320880
1059,0.082670,387599,320415
1063.92,0.081116,386688,320808
1067.61,0.080494,386598,321193
1071.29,0.080259,387377,322014
1074.96,0.079646,388536,323434
1078.63,0.079405,389855,324712
1082.3,0.078492,391215,326530
1085.96,0.077688,393215,328808
1090.84,0.076928,396270,331943
1094.49,0.076393,398760,334440
1098.14,0.075860,400987,336721
1101.79,0.075017,403477,339470
1105.43,0.074639,406116,341988
1109.06,0.074128,407701,343727
1112.7,0.073939,409859,345697
1117.53,0.073342,412494,348398
1121.15,0.074155,414909,349782
1124.77,0.073773,416559,351482
1128.38,0.075253,418532,351946
1131.99,0.076130,419956,352431
1135.6,0.076823,421946,353536
1139.2,0.078914,423881,353452
1143.99,0.080774,426786,354353
1147.58,0.081104,428617,355603
1151.17,0.081926,431169,357044
1154.75,0.083251,433579,357946
1158.33,0.084408,436264,359204
1161.91,0.086512,439132,359818
1165.48,0.088310,442389,360989
1169.04,0.090372,446101,362294
1173.79,0.093978,451929,363992
1177.34,0.095920,456026,365653
1180.9,0.098046,461306,368081
1184.44,0.099728,467657,371706
1187.99,0.100861,473969,375741
1191.52,0.101129,479856,380174
1195.06,0.100838,487372,386387
1199.76,0.100759,497347,394367
1203.29,0.099058,504311,401458
1206.81,0.099052,511507,407192
1210.33,0.098553,519078,413694
1213.84,0.097976,527163,420697
1217.35,0.097027,534208,427251
1220.85,0.096535,540472,432751
1225.51,0.095958,549929,440909
1229.01,0.095580,556888,446877
1232.5,0.094607,562180,452135
1235.98,0.094007,567975,457427
1239.46,0.092862,574815,464158
1242.94,0.092422,582782,471069
1246.41,0.091299,591476,479334
1251.03,0.091439,604016,489339
1254.5,0.091924,612289,495487
1257.96,0.092052,619125,500871
1261.41,0.092260,624551,505019
1264.86,0.092841,629900,508664
1268.31,0.093362,634345,511639
1271.75,0.094073,638574,514207
1276.33,0.094302,642499,517095
1279.76,0.094474,645905,519630
1283.19,0.093630,648307,522577
1286.61,0.093519,650446,524436
1290.03,0.092784,652132,526686
1293.44,0.092343,653907,528656
1296.85,0.092000,655963,530737
1301.39,0.092139,657349,531688
1304.8,0.091977,657558,532056
1308.19,0.092165,658515,532600
1311.58,0.092220,658804,532766
1314.97,0.092340,659011,532786
1318.36,0.092876,658272,531532
1321.73,0.093022,658022,531152
1326.23,0.094034,657870,529793
1329.6,0.094507,656482,528100
1332.97,0.095468,654926,525683
1336.33,0.096321,653727,523691
1339.69,0.097859,652497,520858
1343.04,0.099570,649913,516756
1346.39,0.101413,647671,512792
1349.73,0.103202,645338,508845
1354.18,0.105787,641175,502562
1357.52,0.107930,638376,497905
1360.85,0.109790,635805,493780
1364.17,0.112153,633413,489254
1367.49,0.113971,631026,485374
1370.81,0.116289,628050,480513
1374.12,0.118197,625034,476109
1378.54,0.121130,620272,469302
1381.84,0.123710,616892,463980
1385.14,0.127166,613613,457856
1388.43,0.130272,611526,453047
1391.72,0.134219,610663,448314
1395.01,0.138094,610634,444311
1398.29,0.142417,611700,440678
1402.66,0.148237,614051,436483
1405.93,0.153133,616268,433148
1409.2,0.157470,617795,429907
1412.46,0.161996,618872,426192
1415.72,0.164980,619795,423905
1418.98,0.168602,620495,420859
1422.23,0.171947,621087,418028
1426.56,0.175826,621375,414503
1429.8,0.178510,621616,412109
1433.04,0.180479,622129,410583
1436.27,0.183067,621526,407748
1439.5,0.185195,621113,405486
1442.72,0.187402,620921,403306
1445.94,0.190470,620270,400047
1450.23,0.193553,618860,396314
1453.44,0.196269,617697,393103
1456.64,0.199486,616264,389297
1459.85,0.201829,614413,386039
1463.04,0.205046,612307,381877
1466.24,0.207853,610032,378007
1469.43,0.211941,607345,372816
1473.67,0.218760,603789,364859
1476.85,0.224535,601175,358481
1480.02,0.231144,597737,351048
1483.19,0.237827,594479,343803
1486.36,0.243590,591232,337418
1489.52,0.248492,587853,331724
1492.68,0.252083,583875,326766
1496.89,0.254449,578062,321755
1500.03,0.254522,574159,319529
1503.18,0.254355,570285,317495
1506.32,0.254173,565444,314932
1509.45,0.252515,560571,313412
1512.58,0.251050,555821,311806
1515.71,0.248766,550344,310362
1519.87,0.245422,543983,309146
1522.99,0.242880,538764,307977
1526.1,0.240581,533692,306697
1529.21,0.237627,527902,305440
1532.32,0.234701,521886,304001
1535.42,0.231648,515888,302627
1538.51,0.229023,509987,300979
1541.6,0.225512,503936,299822
1545.72,0.221636,494694,296962
1548.8,0.218984,488378,294966
1551.88,0.216823,481832,292464
1554.95,0.215461,474989,289216
1558.02,0.213921,467818,285862
1561.08,0.212214,460730,282639
1564.15,0.210976,454170,279410
1568.22,0.210652,444181,273469
1571.27,0.210515,436947,269100
1574.32,0.208872,429598,265577
1577.36,0.208364,422039,261209
1580.4,0.207094,414375,257217
1583.43,0.204555,406354,253717
1586.46,0.204301,398475,248943
1590.49,0.203261,388982,243595
1593.51,0.199972,380708,240226
1596.53,0.198648,372727,235908
1599.54,0.196753,365060,232066
1602.55,0.194535,357543,228451
1605.55,0.192321,349495,224450
1608.55,0.190380,341154,220075
1612.54,0.188989,330877,214130
1615.53,0.187954,322904,209469
1618.51,0.186604,315116,205053
1621.49,0.185114,307217,200600
1624.47,0.183847,299481,196120
1627.44,0.182857,292112,191731
1630.41,0.182542,284245,186703
1634.36,0.179773,274079,181177
1637.32,0.179514,266916,176547
1640.27,0.179929,259612,171552
1643.22,0.178110,251804,167091
1646.16,0.179060,244348,161789
1649.1,0.178199,236703,157038
1652.04,0.176820,228171,151859
1655.95,0.172451,215408,144814
1658.88,0.169503,204937,138713
1661.8,0.164226,193395,132501
1664.72,0.157636,179728,125020
1667.63,0.143111,163642,117702
1670.54,0.129418,146312,108608
1673.44,0.113133,128451,98993
1677.31,0.091769,105080,85065
1680.21,0.081316,88906,73725
1683.1,0.075127,75033,63114
1685.99,0.072209,63520,53790
1688.87,0.078073,53714,44876
1691.75,0.076951,45653,38240
1694.62,0.090106,39137,31804
1697.49,0.088802,33776,27530
1701.31,0.094049,28175,22689

File: Column 1_050621_20150331_123340.csv
Method:,Column 1,,
Host Date-Time:,31/3/15 @ 12:33:40,,
Header Version:,1,,
System Temp (C):,34.15,,
Detector Temp (C):,34.98,,
Humidity (%):,1.56,,
Lamp PD:,3818,,
Shift Vector Coefficients:,-10.5391,0.0761263,-0.000134223,,
Pixel to Wavelength Coefficients:,1775.68,-0.916766,-0.000235065,,
Serial Number:,5510004,,
Scan Config Name:,Column 1,,
Scan Config Type:,Slew,,
Section 1,,
Start wavelength (nm):,900,,
End wavelength (nm):,1700,,
Pattern Pixel Width (nm):,   7.03,,,,
Exposure (ms):,  0.635,,,,
Digital Resolution:,228,,
Num Repeats:,6,,
PGA Gain:,64,,
Total Measurement Time in sec:,  2.673,,
Wavelength (nm),Absorbance (AU),Reference Signal (unitless),Sample Signal (unitless)
901.51,0.069050,108485,92538
905.376,0.075725,121306,101896
909.237,0.076731,131909,110546
913.095,0.078581,143299,119581
916.948,0.080036,156982,130561
922.079,0.080395,179937,149529
925.923,0.082007,200504,166003
929.762,0.081375,222660,184615
933.597,0.082175,244426,202289
937.427,0.080482,263972,219319
941.254,0.080018,281845,234419
945.076,0.078985,297271,247838
950.165,0.078388,315605,263485
953.978,0.077655,328029,274320
957.786,0.077833,340470,284607
961.59,0.077950,352317,294431
965.389,0.077834,363056,303487
969.185,0.077801,373162,311958
972.976,0.077616,382632,320011
976.763,0.078409,391202,326582
981.806,0.079196,400190,333480
985.583,0.079386,406088,338247
989.355,0.079743,410162,341360
993.124,0.080250,412868,343211
996.888,0.080825,414263,343915
1000.65,0.081666,415476,344255
1004.4,0.082558,415479,343551
1009.41,0.084181,414358,341346
1013.15,0.084105,412923,340223
1016.89,0.084944,411526,338418
1020.63,0.084501,409066,336738
1024.36,0.084792,406777,334630
1028.09,0.084556,404427,332877
1031.82,0.084324,401911,330983
1036.78,0.083850,398410,328458
1040.49,0.084085,396204,326463
1044.2,0.083496,394236,325282
1047.91,0.083363,392042,323571
1051.61,0.083033,389823,321984
1055.31,0.082931,388234,320747
1059,0.082895,387599,320249
1063.92,0.081432,386688,320574
1067.61,0.080602,386598,321113
1071.29,0.080264,387377,322010
1074.96,0.080199,388536,323022
1078.63,0.079135,389855,324914
1082.3,0.077893,391215,326981
1085.96,0.077197,393215,329180
1090.84,0.076226,396270,332480
1094.49,0.076275,398760,334531
1098.14,0.075735,400987,336818
1101.79,0.074841,403477,339608
1105.43,0.075264,406116,341496
1109.06,0.073655,407701,344102
1112.7,0.074131,409859,345544
1117.53,0.073237,412494,348482
1121.15,0.073870,414909,350012
1124.77,0.073723,416559,351523
1128.38,0.075186,418532,352000
1131.99,0.076164,419956,352403
1135.6,0.077335,421946,353120
1139.2,0.078395,423881,353874
1143.99,0.080094,426786,354908
1147.58,0.080662,428617,355965
1151.17,0.081871,431169,357089
1154.75,0.083049,433579,358112
1158.33,0.084372,436264,359234
1161.91,0.085739,439132,360459
1165.48,0.087869,442389,361356
1169.04,0.089995,446101,362609
1173.79,0.093343,451929,364525
1177.34,0.096191,456026,365425
1180.9,0.098252,461306,367906
1184.44,0.100006,467657,371468
1187.99,0.100629,473969,375942
1191.52,0.100784,479856,380476
1195.06,0.101200,487372,386065
1199.76,0.099973,497347,395081
1203.29,0.099498,504311,401052
1206.81,0.098943,511507,407295
1210.33,0.098702,519078,413552
1213.84,0.097824,527163,420844
1217.35,0.097206,534208,427075
1220.85,0.096459,540472,432827
1225.51,0.095578,549929,441295
1229.01,0.095672,556888,446782
1232.5,0.094531,562180,452214
1235.98,0.094001,567975,457434
1239.46,0.092903,574815,464114
1242.94,0.092066,582782,471455
1246.41,0.091473,591476,479142
1251.03,0.091420,604016,489360
1254.5,0.091641,612289,495810
1257.96,0.091889,619125,501059
1261.41,0.092385,624551,504874
1264.86,0.092637,629900,508903
1268.31,0.093366,634345,511634
1271.75,0.093974,638574,514325
1276.33,0.094497,642499,516863
1279.76,0.094243,645905,519907
1283.19,0.093403,648307,522851
1286.61,0.093313,650446,524684
1290.03,0.092894,652132,526552
1293.44,0.092321,653907,528683
1296.85,0.092250,655963,530432
1301.39,0.091576,657349,532378
1304.8,0.091698,657558,532397
1308.19,0.091508,658515,533406
1311.58,0.092287,658804,532683
1314.97,0.092645,659011,532412
1318.36,0.093021,658272,531354
1321.73,0.093287,658022,530828
1326.23,0.093685,657870,530219
1329.6,0.094396,656482,528235
1332.97,0.094961,654926,526298
1336.33,0.096137,653727,523913
1339.69,0.097958,652497,520739
1343.04,0.099275,649913,517107
1346.39,0.100855,647671,513451
1349.73,0.102954,645338,509135
1354.18,0.105593,641175,502786
1357.52,0.107568,638376,498320
1360.85,0.109721,635805,493859
1364.17,0.112035,633413,489386
1367.49,0.114010,631026,485330
1370.81,0.116048,628050,480780
1374.12,0.118177,625034,476131
1378.54,0.121136,620272,469295
1381.84,0.123726,616892,463963
1385.14,0.127081,613613,457945
1388.43,0.130361,611526,452954
1391.72,0.134544,610663,447979
1395.01,0.138326,610634,444074
1398.29,0.142201,611700,440897
1402.66,0.148217,614051,436503
1405.93,0.152909,616268,433372
1409.2,0.157223,617795,430151
1412.46,0.161674,618872,426508
1415.72,0.165697,619795,423205
1418.98,0.168746,620495,420719
1422.23,0.172330,621087,417660
1426.56,0.175648,621375,414673
1429.8,0.178290,621616,412318
1433.04,0.181047,622129,410047
1436.27,0.182803,621526,407996
1439.5,0.184532,621113,406105
1442.72,0.187425,620921,403284
1445.94,0.190298,620270,400205
1450.23,0.193126,618860,396704
1453.44,0.196286,617697,393088
1456.64,0.198912,616264,389812
1459.85,0.202183,614413,385725
1463.04,0.204532,612307,382329
1466.24,0.208566,610032,377387
1469.43,0.212537,607345,372305
1473.67,0.219175,603789,364511
1476.85,0.224806,601175,358257
1480.02,0.231048,597737,351125
1483.19,0.237904,594479,343742
1486.36,0.243685,591232,337344
1489.52,0.247963,587853,332128
1492.68,0.251765,583875,327005
1496.89,0.253609,578062,322378
1500.03,0.255107,574159,319099
1503.18,0.254317,570285,317523
1506.32,0.253503,565444,315418
1509.45,0.252138,560571,313684
1512.58,0.251000,555821,311842
1515.71,0.248278,550344,310711
1519.87,0.245033,543983,309423
1522.99,0.242143,538764,308500
1526.1,0.240332,533692,306873
1529.21,0.237374,527902,305618
1532.32,0.234028,521886,304472
1535.42,0.231220,515888,302925
1538.51,0.228822,509987,301118
1541.6,0.226028,503936,299466
1545.72,0.221433,494694,297101
1548.8,0.219027,488378,294937
1551.88,0.216317,481832,292805
1554.95,0.214981,474989,289536
1558.02,0.212695,467818,286670
1561.08,0.211771,460730,282928
1564.15,0.211927,454170,278799
1568.22,0.210711,444181,273432
1571.27,0.209844,436947,269516
1574.32,0.209682,429598,265082
1577.36,0.207547,422039,261701
1580.4,0.206505,414375,257566
1583.43,0.205084,406354,253408
1586.46,0.204027,398475,249100
1590.49,0.201812,388982,244409
1593.51,0.200044,380708,240186
1596.53,0.197688,372727,236430
1599.54,0.195840,365060,232554
1602.55,0.194758,357543,228334
1605.55,0.191983,349495,224625
1608.55,0.189900,341154,220318
1612.54,0.188444,330877,214399
1615.53,0.186683,322904,210083
1618.51,0.184947,315116,205837
1621.49,0.185242,307217,200541
1624.47,0.183672,299481,196199
1627.44,0.183467,292112,191462
1630.41,0.181522,284245,187142
1634.36,0.180423,274079,180906
1637.32,0.180002,266916,176349
1640.27,0.180562,259612,171302
1643.22,0.178065,251804,167108
1646.16,0.177508,244348,162368
1649.1,0.177105,236703,157434
1652.04,0.175085,228171,152467
1655.95,0.172029,215408,144955
1658.88,0.167622,204937,139315
1661.8,0.161573,193395,133313
1664.72,0.154235,179728,126003
1667.63,0.142665,163642,117823
1670.54,0.128919,146312,108733
1673.44,0.110326,128451,99635
1677.31,0.090877,105080,85240
1680.21,0.078802,88906,74153
1683.1,0.075719,75033,63028
1685.99,0.075548,63520,53378
1688.87,0.076238,53714,45066
1691.75,0.080109,45653,37963
1694.62,0.089042,39137,31882
1697.49,0.087762,33776,27596
1701.31,0.092596,28175,22765

File: Column 1_050621_20150331_123343.csv
Method:,Column 1,,
Host Date-Time:,31/3/15 @ 12:33:43,,
Header Version:,1,,
System Temp (C):,34.13,,
Detector Temp (C):,35.03,,
Humidity (%):,1.56,,
Lamp PD:,3818,,
Shift Vector Coefficients:,-10.5391,0.0761263,-0.000134223,,
Pixel to Wavelength Coefficients:,1775.68,-0.916766,-0.000235065,,
Serial Number:,5510004,,
Scan Config Name:,Column 1,,
Scan Config Type:,Slew,,
Section 1,,
Start wavelength (nm):,900,,
End wavelength (nm):,1700,,
Pattern Pixel Width (nm):,   7.03,,,,
Exposure (ms):,  0.635,,,,
Digital Resolution:,228,,
Num Repeats:,6,,
PGA Gain:,64,,
Total Measurement Time in sec:,  2.722,,
Wavelength (nm),Absorbance (AU),Reference Signal (unitless),Sample Signal (unitless)
901.51,0.070083,108485,92318
905.376,0.077763,121306,101419
909.237,0.077400,131909,110376
913.095,0.077192,143299,119964
916.948,0.079501,156982,130722
922.079,0.080453,179937,149509
925.923,0.083060,200504,165601
929.762,0.082409,222660,184176
933.597,0.082854,244426,201973
937.427,0.081120,263972,218997
941.254,0.080090,281845,234380
945.076,0.079848,297271,247346
950.165,0.079111,315605,263047
953.978,0.077555,328029,274383
957.786,0.078223,340470,284352
961.59,0.078157,352317,294291
965.389,0.077024,363056,304053
969.185,0.077733,373162,312007
972.976,0.077953,382632,319763
976.763,0.078981,391202,326152
981.806,0.079306,400190,333396
985.583,0.079959,406088,337801
989.355,0.079937,410162,341207
993.124,0.080398,412868,343094
996.888,0.081116,414263,343685
1000.65,0.081658,415476,344261
1004.4,0.083402,415479,342884
1009.41,0.084560,414358,341048
1013.15,0.084209,412923,340142
1016.89,0.085306,411526,338136
1020.63,0.085158,409066,336229
1024.36,0.084475,406777,334874
1028.09,0.084489,404427,332929
1031.82,0.085234,401911,330290
1036.78,0.083729,398410,328550
1040.49,0.083374,396204,326998
1044.2,0.084783,394236,324320
1047.91,0.083519,392042,323455
1051.61,0.083275,389823,321805
1055.31,0.083287,388234,320484
1059,0.082713,387599,320383
1063.92,0.080875,386688,320986
1067.61,0.080611,386598,321106
1071.29,0.080858,387377,321570
1074.96,0.079777,388536,323336
1078.63,0.079403,389855,324713
1082.3,0.078200,391215,326750
1085.96,0.077449,393215,328989
1090.84,0.076981,396270,331902
1094.49,0.076388,398760,334444
1098.14,0.075727,400987,336824
1101.79,0.075125,403477,339386
1105.43,0.074520,406116,342082
1109.06,0.073994,407701,343833
1112.7,0.073379,409859,346143
1117.53,0.072900,412494,348753
1121.15,0.073422,414909,350373
1124.77,0.074042,416559,351265
1128.38,0.074722,418532,352376
1131.99,0.076024,419956,352517
1135.6,0.077786,421946,352753
1139.2,0.078901,423881,353462
1143.99,0.080313,426786,354729
1147.58,0.081615,428617,355185
1151.17,0.082622,431169,356472
1154.75,0.083286,433579,357917
1158.33,0.084613,436264,359035
1161.91,0.085940,439132,360292
1165.48,0.088545,442389,360794
1169.04,0.090711,446101,362011
1173.79,0.094018,451929,363959
1177.34,0.095863,456026,365701
1180.9,0.098480,461306,367713
1184.44,0.099910,467657,371550
1187.99,0.100869,473969,375734
1191.52,0.101050,479856,380243
1195.06,0.100971,487372,386269
1199.76,0.100123,497347,394945
1203.29,0.099722,504311,400845
1206.81,0.099267,511507,406991
1210.33,0.097948,519078,414271
1213.84,0.097931,527163,420740
1217.35,0.097422,534208,426863
1220.85,0.096600,540472,432686
1225.51,0.095662,549929,441209
1229.01,0.095619,556888,446837
1232.5,0.094307,562180,452448
1235.98,0.093872,567975,457570
1239.46,0.092944,574815,464071
1242.94,0.092253,582782,471252
1246.41,0.091590,591476,479013
1251.03,0.091274,604016,489525
1254.5,0.091295,612289,496205
1257.96,0.091790,619125,501174
1261.41,0.092323,624551,504946
1264.86,0.092865,629900,508635
1268.31,0.093406,634345,511587
1271.75,0.093939,638574,514366
1276.33,0.094157,642499,517268
1279.76,0.093904,645905,520313
1283.19,0.093754,648307,522428
1286.61,0.093469,650446,524496
1290.03,0.093087,652132,526318
1293.44,0.092446,653907,528531
1296.85,0.092416,655963,530229
1301.39,0.092028,657349,531824
1304.8,0.091712,657558,532380
1308.19,0.092392,658515,532321
1311.58,0.091943,658804,533106
1314.97,0.092807,659011,532213
1318.36,0.093197,658272,531139
1321.73,0.093405,658022,530683
1326.23,0.094058,657870,529764
1329.6,0.094521,656482,528083
1332.97,0.095499,654926,525646
1336.33,0.096769,653727,523151
1339.69,0.097656,652497,521102
1343.04,0.099174,649913,517227
1346.39,0.101177,647671,513071
1349.73,0.102907,645338,509191
1354.18,0.105868,641175,502468
1357.52,0.107741,638376,498122
1360.85,0.110001,635805,493541
1364.17,0.111980,633413,489449
1367.49,0.114016,631026,485323
1370.81,0.116438,628050,480348
1374.12,0.118080,625034,476238
1378.54,0.121382,620272,469029
1381.84,0.123481,616892,464225
1385.14,0.127255,613613,457762
1388.43,0.130021,611526,453309
1391.72,0.134102,610663,448435
1395.01,0.138140,610634,444264
1398.29,0.142604,611700,440488
1402.66,0.148301,614051,436419
1405.93,0.152991,616268,433290
1409.2,0.157688,617795,429691
1412.46,0.161756,618872,426427
1415.72,0.165400,619795,423495
1418.98,0.168851,620495,420617
1422.23,0.172170,621087,417813
1426.56,0.176095,621375,414246
1429.8,0.178402,621616,412212
1433.04,0.181094,622129,410002
1436.27,0.183246,621526,407580
1439.5,0.185111,621113,405564
1442.72,0.187365,620921,403340
1445.94,0.190019,620270,400462
1450.23,0.193769,618860,396117
1453.44,0.196323,617697,393054
1456.64,0.199554,616264,389236
1459.85,0.202361,614413,385567
1463.04,0.205038,612307,381884
1466.24,0.208364,610032,377562
1469.43,0.212399,607345,372423
1473.67,0.219277,603789,364425
1476.85,0.225043,601175,358062
1480.02,0.230957,597737,351199
1483.19,0.238420,594479,343334
1486.36,0.244051,591232,337060
1489.52,0.248957,587853,331369
1492.68,0.251858,583875,326935
1496.89,0.254668,578062,321593
1500.03,0.254334,574159,319667
1503.18,0.255103,570285,316949
1506.32,0.253677,565444,315292
1509.45,0.252658,560571,313309
1512.58,0.250523,555821,312185
1515.71,0.248178,550344,310782
1519.87,0.246035,543983,308710
1522.99,0.243145,538764,307789
1526.1,0.240024,533692,307091
1529.21,0.237492,527902,305535
1532.32,0.234808,521886,303926
1535.42,0.231715,515888,302580
1538.51,0.228440,509987,301383
1541.6,0.225476,503936,299847
1545.72,0.221541,494694,297027
1548.8,0.219545,488378,294585
1551.88,0.216664,481832,292571
1554.95,0.214092,474989,290129
1558.02,0.213583,467818,286084
1561.08,0.211970,460730,282798
1564.15,0.211603,454170,279007
1568.22,0.210574,444181,273518
1571.27,0.210426,436947,269155
1574.32,0.209451,429598,265223
1577.36,0.208478,422039,261141
1580.4,0.206478,414375,257582
1583.43,0.205204,406354,253338
1586.46,0.204237,398475,248980
1590.49,0.202141,388982,244224
1593.51,0.200171,380708,240116
1596.53,0.197890,372727,236320
1599.54,0.196599,365060,232148
1602.55,0.194028,357543,228718
1605.55,0.192832,349495,224186
1608.55,0.190937,341154,219793
1612.54,0.189799,330877,213731
1615.53,0.186695,322904,210077
1618.51,0.185857,315116,205406
1621.49,0.185489,307217,200427
1624.47,0.183159,299481,196431
1627.44,0.183201,292112,191579
1630.41,0.181111,284245,187319
1634.36,0.180598,274079,180833
1637.32,0.180066,266916,176323
1640.27,0.179780,259612,171611
1643.22,0.178346,251804,167000
1646.16,0.177209,244348,162480
1649.1,0.175987,236703,157840
1652.04,0.175523,228171,152313
1655.95,0.173881,215408,144338
1658.88,0.167835,204937,139247
1661.8,0.163889,193395,132604
1664.72,0.156014,179728,125488
1667.63,0.143133,163642,117696
1670.54,0.129042,146312,108702
1673.44,0.109620,128451,99797
1677.31,0.092495,105080,84923
1680.21,0.082148,88906,73584
1683.1,0.072342,75033,63520
1685.99,0.073689,63520,53607
1688.87,0.079586,53714,44720
1691.75,0.086609,45653,37399
1694.62,0.083654,39137,32280
1697.49,0.094918,33776,27145
1701.31,0.099131,28175,22425