Folder: textile_sorting_NIRSCAN_/samples/wool/wool-000811 (part 139)

File: Column 1_050609_20150331_122740.csv
Method:,Column 1,,
Host Date-Time:,31/3/15 @ 12:27:40,,
Header Version:,1,,
System Temp (C):,34.04,,
Detector Temp (C):,34.9,,
Humidity (%):,1.66,,
Lamp PD:,3818,,
Shift Vector Coefficients:,-10.5391,0.0761263,-0.000134223,,
Pixel to Wavelength Coefficients:,1775.68,-0.916766,-0.000235065,,
Serial Number:,5510004,,
Scan Config Name:,Column 1,,
Scan Config Type:,Slew,,
Section 1,,
Start wavelength (nm):,900,,
End wavelength (nm):,1700,,
Pattern Pixel Width (nm):,   7.03,,,,
Exposure (ms):,  0.635,,,,
Digital Resolution:,228,,
Num Repeats:,6,,
PGA Gain:,64,,
Total Measurement Time in sec:,  2.672,,
Wavelength (nm),Absorbance (AU),Reference Signal (unitless),Sample Signal (unitless)
901.51,0.068210,108485,92717
905.376,0.074572,121306,102167
909.237,0.075656,131909,110820
913.095,0.077993,143299,119743
916.948,0.078671,156982,130972
922.079,0.079861,179937,149713
925.923,0.081385,200504,166241
929.762,0.081196,222660,184691
933.597,0.081429,244426,202637
937.427,0.081266,263972,218923
941.254,0.079771,281845,234552
945.076,0.078500,297271,248115
950.165,0.078822,315605,263222
953.978,0.077204,328029,274605
957.786,0.076693,340470,285355
961.59,0.077769,352317,294554
965.389,0.077775,363056,303528
969.185,0.077092,373162,312468
972.976,0.077926,382632,319783
976.763,0.077933,391202,326940
981.806,0.078446,400190,334057
985.583,0.079802,406088,337923
989.355,0.079897,410162,341239
993.124,0.080177,412868,343269
996.888,0.080280,414263,344347
1000.65,0.081159,415476,344657
1004.4,0.082560,415479,343549
1009.41,0.084009,414358,341481
1013.15,0.083757,412923,340496
1016.89,0.084313,411526,338910
1020.63,0.084641,409066,336630
1024.36,0.084558,406777,334810
1028.09,0.083958,404427,333336
1031.82,0.084054,401911,331189
1036.78,0.083424,398410,328781
1040.49,0.083419,396204,326964
1044.2,0.083496,394236,325282
1047.91,0.083454,392042,323503
1051.61,0.082646,389823,322271
1055.31,0.082838,388234,320816
1059,0.081983,387599,320922
1063.92,0.081577,386688,320467
1067.61,0.080682,386598,321054
1071.29,0.079984,387377,322218
1074.96,0.079519,388536,323528
1078.63,0.078751,389855,325201
1082.3,0.078084,391215,326837
1085.96,0.077752,393215,328759
1090.84,0.076822,396270,332024
1094.49,0.076284,398760,334524
1098.14,0.075790,400987,336775
1101.79,0.075456,403477,339127
1105.43,0.075257,406116,341502
1109.06,0.074036,407701,343800
1112.7,0.074147,409859,345531
1117.53,0.073267,412494,348458
1121.15,0.073781,414909,350084
1124.77,0.074376,416559,350995
1128.38,0.075346,418532,351870
1131.99,0.075499,419956,352943
1135.6,0.077149,421946,353271
1139.2,0.078941,423881,353430
1143.99,0.080480,426786,354593
1147.58,0.081897,428617,354954
1151.17,0.082483,431169,356586
1154.75,0.083203,433579,357985
1158.33,0.084501,436264,359127
1161.91,0.086494,439132,359833
1165.48,0.088082,442389,361179
1169.04,0.091089,446101,361696
1173.79,0.094350,451929,363681
1177.34,0.096269,456026,365360
1180.9,0.097848,461306,368249
1184.44,0.100104,467657,371384
1187.99,0.101320,473969,375344
1191.52,0.101484,479856,379863
1195.06,0.100671,487372,386536
1199.76,0.100592,497347,394519
1203.29,0.099660,504311,400902
1206.81,0.099150,511507,407100
1210.33,0.098860,519078,413402
1213.84,0.097993,527163,420680
1217.35,0.097199,534208,427082
1220.85,0.096624,540472,432662
1225.51,0.096046,549929,440819
1229.01,0.094901,556888,447576
1232.5,0.094637,562180,452104
1235.98,0.094432,567975,456980
1239.46,0.092976,574815,464036
1242.94,0.092199,582782,471311
1246.41,0.091550,591476,479057
1251.03,0.091539,604016,489226
1254.5,0.091533,612289,495934
1257.96,0.092300,619125,500586
1261.41,0.092755,624551,504444
1264.86,0.093045,629900,508425
1268.31,0.093715,634345,511223
1271.75,0.094616,638574,513565
1276.33,0.094634,642499,516700
1279.76,0.094611,645905,519467
1283.19,0.093825,648307,522343
1286.61,0.093789,650446,524110
1290.03,0.092846,652132,526610
1293.44,0.092506,653907,528458
1296.85,0.092344,655963,530317
1301.39,0.092097,657349,531740
1304.8,0.092457,657558,531468
1308.19,0.092337,658515,532388
1311.58,0.092159,658804,532841
1314.97,0.092490,659011,532602
1318.36,0.093390,658272,530903
1321.73,0.093384,658022,530709
1326.23,0.094091,657870,529723
1329.6,0.095002,656482,527498
1332.97,0.096216,654926,524779
1336.33,0.096737,653727,523190
1339.69,0.098594,652497,519977
1343.04,0.099910,649913,516351
1346.39,0.101955,647671,512153
1349.73,0.103996,645338,507915
1354.18,0.106780,641175,501414
1357.52,0.108810,638376,496897
1360.85,0.110813,635805,492619
1364.17,0.112832,633413,488489
1367.49,0.114958,631026,484272
1370.81,0.117097,628050,479620
1374.12,0.119025,625034,475202
1378.54,0.121441,620272,468966
1381.84,0.124408,616892,463235
1385.14,0.127950,613613,457030
1388.43,0.131432,611526,451838
1391.72,0.135515,610663,446978
1395.01,0.139511,610634,442864
1398.29,0.143656,611700,439423
1402.66,0.150403,614051,434312
1405.93,0.155443,616268,430851
1409.2,0.159665,617795,427740
1412.46,0.164208,618872,424026
1415.72,0.168168,619795,420804
1418.98,0.171531,620495,418030
1422.23,0.175111,621087,414994
1426.56,0.178913,621375,411567
1429.8,0.181031,621616,409724
1433.04,0.183166,622129,408051
1436.27,0.185746,621526,405241
1439.5,0.188023,621113,402854
1442.72,0.190075,620921,400831
1445.94,0.192596,620270,398093
1450.23,0.196265,618860,393847
1453.44,0.199203,617697,390456
1456.64,0.201682,616264,387333
1459.85,0.204126,614413,384003
1463.04,0.207604,612307,379634
1466.24,0.211131,610032,375164
1469.43,0.214568,607345,370568
1473.67,0.220882,603789,363081
1476.85,0.226821,601175,356599
1480.02,0.231525,597737,350740
1483.19,0.238991,594479,342883
1486.36,0.244386,591232,336800
1489.52,0.249863,587853,330678
1492.68,0.252942,583875,326120
1496.89,0.255302,578062,321124
1500.03,0.255645,574159,318704
1503.18,0.255299,570285,316806
1506.32,0.254465,565444,314720
1509.45,0.252618,560571,313338
1512.58,0.252302,555821,310909
1515.71,0.249773,550344,309643
1519.87,0.246302,543983,308520
1522.99,0.243929,538764,307234
1526.1,0.241774,533692,305856
1529.21,0.238952,527902,304510
1532.32,0.235408,521886,303506
1535.42,0.232641,515888,301936
1538.51,0.229959,509987,300331
1541.6,0.227005,503936,298793
1545.72,0.223610,494694,295615
1548.8,0.220212,488378,294133
1551.88,0.218339,481832,291445
1554.95,0.216310,474989,288651
1558.02,0.214908,467818,285213
1561.08,0.213359,460730,281895
1564.15,0.212328,454170,278542
1568.22,0.211429,444181,272980
1571.27,0.211983,436947,268192
1574.32,0.209846,429598,264982
1577.36,0.209250,422039,260677
1580.4,0.208100,414375,256622
1583.43,0.207263,406354,252140
1586.46,0.205082,398475,248496
1590.49,0.202602,388982,243965
1593.51,0.201301,380708,239492
1596.53,0.199784,372727,235292
1599.54,0.196526,365060,232187
1602.55,0.194775,357543,228325
1605.55,0.193026,349495,224086
1608.55,0.190984,341154,219769
1612.54,0.189996,330877,213634
1615.53,0.186809,322904,210022
1618.51,0.187126,315116,204807
1621.49,0.185747,307217,200308
1624.47,0.184719,299481,195727
1627.44,0.184536,292112,190991
1630.41,0.182325,284245,186796
1634.36,0.182408,274079,180081
1637.32,0.180827,266916,176014
1640.27,0.180758,259612,171225
1643.22,0.179570,251804,166530
1646.16,0.177902,244348,162221
1649.1,0.178099,236703,157074
1652.04,0.175504,228171,152320
1655.95,0.172862,215408,144677
1658.88,0.169309,204937,138775
1661.8,0.163712,193395,132658
1664.72,0.155823,179728,125543
1667.63,0.144253,163642,117393
1670.54,0.129250,146312,108650
1673.44,0.111552,128451,99354
1677.31,0.095461,105080,84345
1680.21,0.079693,88906,74001
1683.1,0.074604,75033,63190
1685.99,0.076876,63520,53215
1688.87,0.078509,53714,44831
1691.75,0.083013,45653,37710
1694.62,0.089546,39137,31845
1697.49,0.094167,33776,27192
1701.31,0.106830,28175,22031

File: Column 1_050609_20150331_122746.csv
Method:,Column 1,,
Host Date-Time:,31/3/15 @ 12:27:46,,
Header Version:,1,,
System Temp (C):,34.07,,
Detector Temp (C):,34.87,,
Humidity (%):,1.66,,
Lamp PD:,3818,,
Shift Vector Coefficients:,-10.5391,0.0761263,-0.000134223,,
Pixel to Wavelength Coefficients:,1775.68,-0.916766,-0.000235065,,
Serial Number:,5510004,,
Scan Config Name:,Column 1,,
Scan Config Type:,Slew,,
Section 1,,
Start wavelength (nm):,900,,
End wavelength (nm):,1700,,
Pattern Pixel Width (nm):,   7.03,,,,
Exposure (ms):,  0.635,,,,
Digital Resolution:,228,,
Num Repeats:,6,,
PGA Gain:,64,,
Total Measurement Time in sec:,  2.680,,
Wavelength (nm),Absorbance (AU),Reference Signal (unitless),Sample Signal (unitless)
901.51,0.068585,108485,92637
905.376,0.074236,121306,102246
909.237,0.074971,131909,110995
913.095,0.076823,143299,120066
916.948,0.078509,156982,131021
922.079,0.080354,179937,149543
925.923,0.080542,200504,166564
929.762,0.081215,222660,184683
933.597,0.081532,244426,202589
937.427,0.080179,263972,219472
941.254,0.079553,281845,234670
945.076,0.078108,297271,248339
950.165,0.077981,315605,263732
953.978,0.077103,328029,274669
957.786,0.077388,340470,284899
961.59,0.077823,352317,294517
965.389,0.077376,363056,303807
969.185,0.077046,373162,312501
972.976,0.078158,382632,319612
976.763,0.077940,391202,326935
981.806,0.078665,400190,333888
985.583,0.079266,406088,338341
989.355,0.079640,410162,341441
993.124,0.079394,412868,343888
996.888,0.080382,414263,344266
1000.65,0.081185,415476,344636
1004.4,0.082509,415479,343590
1009.41,0.083824,414358,341627
1013.15,0.083668,412923,340566
1016.89,0.084717,411526,338595
1020.63,0.084794,409066,336511
1024.36,0.084697,406777,334703
1028.09,0.084554,404427,332879
1031.82,0.084307,401911,330996
1036.78,0.083997,398410,328347
1040.49,0.083585,396204,326839
1044.2,0.083896,394236,324983
1047.91,0.082986,392042,323852
1051.61,0.082423,389823,322437
1055.31,0.082800,388234,320844
1059,0.082381,387599,320628
1063.92,0.081884,386688,320241
1067.61,0.079988,386598,321567
1071.29,0.080231,387377,322035
1074.96,0.079811,388536,323311
1078.63,0.079278,389855,324807
1082.3,0.077799,391215,327052
1085.96,0.077598,393215,328876
1090.84,0.076487,396270,332280
1094.49,0.076065,398760,334693
1098.14,0.075312,400987,337146
1101.79,0.074585,403477,339808
1105.43,0.075038,406116,341674
1109.06,0.073600,407701,344145
1112.7,0.073830,409859,345784
1117.53,0.073382,412494,348366
1121.15,0.073200,414909,350552
1124.77,0.073963,416559,351329
1128.38,0.074997,418532,352153
1131.99,0.076027,419956,352514
1135.6,0.076866,421946,353501
1139.2,0.078548,423881,353750
1143.99,0.080413,426786,354648
1147.58,0.080959,428617,355722
1151.17,0.082187,431169,356829
1154.75,0.083252,433579,357945
1158.33,0.084048,436264,359502
1161.91,0.086028,439132,360219
1165.48,0.088292,442389,361004
1169.04,0.090503,446101,362185
1173.79,0.094148,451929,363850
1177.34,0.095710,456026,365830
1180.9,0.098014,461306,368108
1184.44,0.099816,467657,371631
1187.99,0.100769,473969,375821
1191.52,0.100697,479856,380552
1195.06,0.100648,487372,386556
1199.76,0.099935,497347,395116
1203.29,0.099175,504311,401350
1206.81,0.098891,511507,407343
1210.33,0.097973,519078,414247
1213.84,0.098182,527163,420497
1217.35,0.097570,534208,426717
1220.85,0.096331,540472,432954
1225.51,0.095764,549929,441106
1229.01,0.095343,556888,447121
1232.5,0.094877,562180,451854
1235.98,0.093942,567975,457496
1239.46,0.093545,574815,463429
1242.94,0.091979,582782,471549
1246.41,0.092075,591476,478478
1251.03,0.091559,604016,489203
1254.5,0.091357,612289,496134
1257.96,0.092186,619125,500717
1261.41,0.092765,624551,504432
1264.86,0.093413,629900,507994
1268.31,0.093651,634345,511299
1271.75,0.094040,638574,514246
1276.33,0.094161,642499,517263
1279.76,0.094573,645905,519512
1283.19,0.095829,648307,519938
1286.61,0.093766,650446,524137
1290.03,0.093152,652132,526239
1293.44,0.092672,653907,528256
1296.85,0.092862,655963,529684
1301.39,0.091913,657349,531965
1304.8,0.092326,657558,531628
1308.19,0.092333,658515,532394
1311.58,0.092356,658804,532599
1314.97,0.093095,659011,531860
1318.36,0.092887,658272,531518
1321.73,0.093591,658022,530456
1326.23,0.094421,657870,529321
1329.6,0.094916,656482,527602
1332.97,0.095908,654926,525151
1336.33,0.097257,653727,522564
1339.69,0.098487,652497,520105
1343.04,0.099718,649913,516579
1346.39,0.101936,647671,512175
1349.73,0.103744,645338,508210
1354.18,0.106457,641175,501787
1357.52,0.108397,638376,497370
1360.85,0.110781,635805,492655
1364.17,0.112288,633413,489102
1367.49,0.114935,631026,484297
1370.81,0.117177,628050,479532
1374.12,0.118999,625034,475231
1378.54,0.121650,620272,468740
1381.84,0.124823,616892,462792
1385.14,0.127535,613613,457467
1388.43,0.131376,611526,451896
1391.72,0.135421,610663,447075
1395.01,0.139287,610634,443092
1398.29,0.144033,611700,439041
1402.66,0.150021,614051,434694
1405.93,0.154890,616268,431399
1409.2,0.159928,617795,427481
1412.46,0.163921,618872,424307
1415.72,0.167742,619795,421217
1418.98,0.171277,620495,418274
1422.23,0.174741,621087,415347
1426.56,0.178420,621375,412035
1429.8,0.181213,621616,409552
1433.04,0.183435,622129,407798
1436.27,0.185475,621526,405494
1439.5,0.187546,621113,403297
1442.72,0.190267,620921,400654
1445.94,0.192984,620270,397738
1450.23,0.195837,618860,394235
1453.44,0.199128,617697,390524
1456.64,0.202131,616264,386933
1459.85,0.204255,614413,383889
1463.04,0.207708,612307,379543
1466.24,0.210419,610032,375780
1469.43,0.214959,607345,370234
1473.67,0.220907,603789,363060
1476.85,0.226338,601175,356996
1480.02,0.232643,597737,349838
1483.19,0.238750,594479,343073
1486.36,0.244624,591232,336615
1489.52,0.249450,587853,330993
1492.68,0.252855,583875,326186
1496.89,0.255407,578062,321046
1500.03,0.256116,574159,318358
1503.18,0.255893,570285,316373
1506.32,0.254660,565444,314579
1509.45,0.253009,560571,313056
1512.58,0.251581,555821,311425
1515.71,0.249041,550344,310165
1519.87,0.246178,543983,308608
1522.99,0.243955,538764,307216
1526.1,0.241652,533692,305942
1529.21,0.238259,527902,304996
1532.32,0.235506,521886,303438
1535.42,0.232202,515888,302241
1538.51,0.229997,509987,300305
1541.6,0.226778,503936,298949
1545.72,0.223402,494694,295757
1548.8,0.220388,488378,294014
1551.88,0.218391,481832,291410
1554.95,0.216153,474989,288756
1558.02,0.214433,467818,285525
1561.08,0.213140,460730,282037
1564.15,0.212063,454170,278712
1568.22,0.211741,444181,272784
1571.27,0.210744,436947,268958
1574.32,0.210070,429598,264845
1577.36,0.210057,422039,260193
1580.4,0.208487,414375,256393
1583.43,0.206095,406354,252819
1586.46,0.204952,398475,248570
1590.49,0.202962,388982,243763
1593.51,0.201165,380708,239567
1596.53,0.199463,372727,235466
1599.54,0.197588,365060,231620
1602.55,0.195015,357543,228199
1605.55,0.193185,349495,224004
1608.55,0.191652,341154,219431
1612.54,0.189178,330877,214037
1615.53,0.187009,322904,209925
1618.51,0.186791,315116,204965
1621.49,0.186378,307217,200017
1624.47,0.183954,299481,196072
1627.44,0.184014,292112,191221
1630.41,0.182400,284245,186764
1634.36,0.180922,274079,180698
1637.32,0.180751,266916,176045
1640.27,0.179716,259612,171636
1643.22,0.178468,251804,166953
1646.16,0.178387,244348,162040
1649.1,0.177795,236703,157184
1652.04,0.175199,228171,152427
1655.95,0.173175,215408,144573
1658.88,0.169597,204937,138683
1661.8,0.164069,193395,132549
1664.72,0.155028,179728,125773
1667.63,0.143406,163642,117622
1670.54,0.131069,146312,108196
1673.44,0.113638,128451,98878
1677.31,0.094057,105080,84618
1680.21,0.080057,88906,73939
1683.1,0.073952,75033,63285
1685.99,0.075540,63520,53379
1688.87,0.078064,53714,44877
1691.75,0.083381,45653,37678
1694.62,0.084260,39137,32235
1697.49,0.094694,33776,27159
1701.31,0.099829,28175,22389

File: Column 1_050609_20150331_122749.csv
Method:,Column 1,,
Host Date-Time:,31/3/15 @ 12:27:49,,
Header Version:,1,,
System Temp (C):,34.07,,
Detector Temp (C):,34.9,,
Humidity (%):,1.66,,
Lamp PD:,3818,,
Shift Vector Coefficients:,-10.5391,0.0761263,-0.000134223,,
Pixel to Wavelength Coefficients:,1775.68,-0.916766,-0.000235065,,
Serial Number:,5510004,,
Scan Config Name:,Column 1,,
Scan Config Type:,Slew,,
Section 1,,
Start wavelength (nm):,900,,
End wavelength (nm):,1700,,
Pattern Pixel Width (nm):,   7.03,,,,
Exposure (ms):,  0.635,,,,
Digital Resolution:,228,,
Num Repeats:,6,,
PGA Gain:,64,,
Total Measurement Time in sec:,  2.732,,
Wavelength (nm),Absorbance (AU),Reference Signal (unitless),Sample Signal (unitless)
901.51,0.071039,108485,92115
905.376,0.075627,121306,101919
909.237,0.077376,131909,110382
913.095,0.078741,143299,119537
916.948,0.078681,156982,130969
922.079,0.081011,179937,149317
925.923,0.082316,200504,165885
929.762,0.083082,222660,183891
933.597,0.081787,244426,202470
937.427,0.081421,263972,218845
941.254,0.080486,281845,234166
945.076,0.078508,297271,248110
950.165,0.078779,315605,263248
953.978,0.077715,328029,274282
957.786,0.077534,340470,284803
961.59,0.077611,352317,294661
965.389,0.076956,363056,304101
969.185,0.077908,373162,311881
972.976,0.077580,382632,320038
976.763,0.078426,391202,326569
981.806,0.079434,400190,333298
985.583,0.079439,406088,338206
989.355,0.079939,410162,341206
993.124,0.080127,412868,343308
996.888,0.080969,414263,343801
1000.65,0.081770,415476,344172
1004.4,0.082495,415479,343601
1009.41,0.083996,414358,341491
1013.15,0.084549,412923,339876
1016.89,0.084682,411526,338622
1020.63,0.085377,409066,336060
1024.36,0.084939,406777,334516
1028.09,0.084602,404427,332842
1031.82,0.084739,401911,330667
1036.78,0.083931,398410,328397
1040.49,0.084017,396204,326514
1044.2,0.083359,394236,325385
1047.91,0.083641,392042,323364
1051.61,0.083195,389823,321864
1055.31,0.082905,388234,320766
1059,0.082380,387599,320629
1063.92,0.081182,386688,320759
1067.61,0.081274,386598,320616
1071.29,0.080443,387377,321878
1074.96,0.079595,388536,323472
1078.63,0.079619,389855,324552
1082.3,0.078334,391215,326649
1085.96,0.077739,393215,328769
1090.84,0.076815,396270,332029
1094.49,0.076335,398760,334485
1098.14,0.076223,400987,336440
1101.79,0.075517,403477,339080
1105.43,0.074938,406116,341753
1109.06,0.074368,407701,343537
1112.7,0.074063,409859,345598
1117.53,0.073225,412494,348492
1121.15,0.073546,414909,350273
1124.77,0.073898,416559,351381
1128.38,0.075407,418532,351821
1131.99,0.075573,419956,352883
1135.6,0.077741,421946,352790
1139.2,0.078678,423881,353644
1143.99,0.080636,426786,354466
1147.58,0.081715,428617,355103
1151.17,0.082623,431169,356471
1154.75,0.084077,433579,357266
1158.33,0.084348,436264,359254
1161.91,0.086981,439132,359430
1165.48,0.088585,442389,360761
1169.04,0.090364,446101,362301
1173.79,0.094922,451929,363202
1177.34,0.096320,456026,365317
1180.9,0.098517,461306,367682
1184.44,0.099953,467657,371513
1187.99,0.100933,473969,375679
1191.52,0.101158,479856,380148
1195.06,0.101398,487372,385889
1199.76,0.100609,497347,394503
1203.29,0.099551,504311,401003
1206.81,0.099153,511507,407098
1210.33,0.098610,519078,413640
1213.84,0.097786,527163,420881
1217.35,0.097686,534208,426603
1220.85,0.096723,540472,432564
1225.51,0.096465,549929,440394
1229.01,0.096000,556888,446445
1232.5,0.095229,562180,451488
1235.98,0.094380,567975,457035
1239.46,0.093225,574815,463770
1242.94,0.092755,582782,470708
1246.41,0.092142,591476,478404
1251.03,0.091769,604016,488967
1254.5,0.091972,612289,495432
1257.96,0.092229,619125,500668
1261.41,0.092664,624551,504550
1264.86,0.093451,629900,507949
1268.31,0.093760,634345,511170
1271.75,0.094524,638574,513674
1276.33,0.094482,642499,516881
1279.76,0.094687,645905,519376
1283.19,0.093724,648307,522464
1286.61,0.093802,650446,524094
1290.03,0.093774,652132,525487
1293.44,0.093278,653907,527519
1296.85,0.092521,655963,530101
1301.39,0.092742,657349,530950
1304.8,0.092414,657558,531521
1308.19,0.092355,658515,532367
1311.58,0.092517,658804,532401
1314.97,0.092970,659011,532013
1318.36,0.093260,658272,531062
1321.73,0.093701,658022,530322
1326.23,0.094602,657870,529100
1329.6,0.095187,656482,527273
1332.97,0.096526,654926,524404
1336.33,0.097625,653727,522121
1339.69,0.098473,652497,520122
1343.04,0.099862,649913,516408
1346.39,0.102118,647671,511961
1349.73,0.103779,645338,508169
1354.18,0.106730,641175,501472
1357.52,0.108630,638376,497103
1360.85,0.110660,635805,492792
1364.17,0.112436,633413,488935
1367.49,0.114831,631026,484414
1370.81,0.117349,628050,479342
1374.12,0.119381,625034,474813
1378.54,0.122240,620272,468104
1381.84,0.124290,616892,463361
1385.14,0.128129,613613,456842
1388.43,0.131568,611526,451697
1391.72,0.135759,610663,446727
1395.01,0.140198,610634,442164
1398.29,0.143866,611700,439210
1402.66,0.150333,614051,434382
1405.93,0.155874,616268,430423
1409.2,0.160152,617795,427260
1412.46,0.164264,618872,423972
1415.72,0.167700,619795,421258
1418.98,0.171590,620495,417973
1422.23,0.174944,621087,415153
1426.56,0.178908,621375,411572
1429.8,0.181428,621616,409349
1433.04,0.184008,622129,407261
1436.27,0.186298,621526,404726
1439.5,0.188207,621113,402683
1442.72,0.190438,620921,400496
1445.94,0.193069,620270,397660
1450.23,0.196645,618860,393502
1453.44,0.199070,617697,390576
1456.64,0.202052,616264,387003
1459.85,0.204650,614413,383540
1463.04,0.207985,612307,379301
1466.24,0.210691,610032,375545
1469.43,0.215092,607345,370121
1473.67,0.220797,603789,363152
1476.85,0.226824,601175,356596
1480.02,0.232669,597737,349817
1483.19,0.239378,594479,342577
1486.36,0.245004,591232,336321
1489.52,0.249631,587853,330855
1492.68,0.252827,583875,326207
1496.89,0.255689,578062,320838
1500.03,0.255660,574159,318693
1503.18,0.256093,570285,316227
1506.32,0.255048,565444,314298
1509.45,0.253174,560571,312937
1512.58,0.251971,555821,311146
1515.71,0.250006,550344,309477
1519.87,0.246997,543983,308027
1522.99,0.243597,538764,307469
1526.1,0.242201,533692,305555
1529.21,0.239320,527902,304252
1532.32,0.236220,521886,302939
1535.42,0.233680,515888,301214
1538.51,0.230054,509987,300265
1541.6,0.227465,503936,298477
1545.72,0.223134,494694,295939
1548.8,0.220483,488378,293950
1551.88,0.218979,481832,291016
1554.95,0.216735,474989,288369
1558.02,0.214383,467818,285558
1561.08,0.213945,460730,281515
1564.15,0.212958,454170,278138
1568.22,0.211537,444181,272912
1571.27,0.211964,436947,268204
1574.32,0.210722,429598,264448
1577.36,0.208938,422039,260864
1580.4,0.207995,414375,256684
1583.43,0.206760,406354,252432
1586.46,0.204930,398475,248583
1590.49,0.203390,388982,243523
1593.51,0.201782,380708,239227
1596.53,0.199193,372727,235612
1599.54,0.197860,365060,231475
1602.55,0.194862,357543,228279
1605.55,0.193323,349495,223933
1608.55,0.191561,341154,219477
1612.54,0.190275,330877,213497
1615.53,0.188881,322904,209022
1618.51,0.186829,315116,204947
1621.49,0.185402,307217,200467
1624.47,0.185407,299481,195417
1627.44,0.184439,292112,191034
1630.41,0.183324,284245,186367
1634.36,0.182763,274079,179934
1637.32,0.182038,266916,175524
1640.27,0.181374,259612,170982
1643.22,0.179669,251804,166492
1646.16,0.179826,244348,161504
1649.1,0.178091,236703,157077
1652.04,0.175455,228171,152337
1655.95,0.173755,215408,144380
1658.88,0.170381,204937,138433
1661.8,0.165312,193395,132170
1664.72,0.156526,179728,125340
1667.63,0.144286,163642,117384
1670.54,0.130896,146312,108239
1673.44,0.114407,128451,98703
1677.31,0.095425,105080,84352
1680.21,0.081405,88906,73710
1683.1,0.076084,75033,62975
1685.99,0.077227,63520,53172
1688.87,0.082665,53714,44404
1691.75,0.085206,45653,37520
1694.62,0.090912,39137,31745
1697.49,0.094950,33776,27143
1701.31,0.099616,28175,22400