Folder: textile_sorting_NIRSCAN_/samples/wool/wool-000811 (part 24)

File: Column 1_050544_20150331_115649.csv
Method:,Column 1,,
Host Date-Time:,31/3/15 @ 11:56:49,,
Header Version:,1,,
System Temp (C):,32.69,,
Detector Temp (C):,31.07,,
Humidity (%):,2.74,,
Lamp PD:,3824,,
Shift Vector Coefficients:,-10.5391,0.0761263,-0.000134223,,
Pixel to Wavelength Coefficients:,1775.68,-0.916766,-0.000235065,,
Serial Number:,5510004,,
Scan Config Name:,Column 1,,
Scan Config Type:,Slew,,
Section 1,,
Start wavelength (nm):,900,,
End wavelength (nm):,1700,,
Pattern Pixel Width (nm):,   7.03,,,,
Exposure (ms):,  0.635,,,,
Digital Resolution:,228,,
Num Repeats:,6,,
PGA Gain:,64,,
Total Measurement Time in sec:,  2.685,,
Wavelength (nm),Absorbance (AU),Reference Signal (unitless),Sample Signal (unitless)
901.51,0.046196,108485,97538
905.376,0.051832,121306,107659
909.237,0.052467,131909,116898
913.095,0.053374,143299,126727
916.948,0.053717,156982,138718
922.079,0.053854,179937,158952
925.923,0.053603,200504,177223
929.762,0.054912,222660,196214
933.597,0.055154,244426,215275
937.427,0.054580,263972,232797
941.254,0.055398,281845,248092
945.076,0.054652,297271,262120
950.165,0.054311,315605,278505
953.978,0.053249,328029,290177
957.786,0.054321,340470,300440
961.59,0.055650,352317,309944
965.389,0.055477,363056,319519
969.185,0.055930,373162,328071
972.976,0.056482,382632,335969
976.763,0.056717,391202,343308
981.806,0.057208,400190,350799
985.583,0.058252,406088,355114
989.355,0.058894,410162,358147
993.124,0.059366,412868,360118
996.888,0.059931,414263,360865
1000.65,0.060100,415476,361781
1004.4,0.062261,415479,359988
1009.41,0.063561,414358,357944
1013.15,0.063725,412923,356569
1016.89,0.064579,411526,354665
1020.63,0.064079,409066,352951
1024.36,0.064059,406777,350992
1028.09,0.064006,404427,349007
1031.82,0.062960,401911,347672
1036.78,0.062648,398410,344891
1040.49,0.062511,396204,343090
1044.2,0.062022,394236,341770
1047.91,0.061011,392042,340660
1051.61,0.060148,389823,339406
1055.31,0.060000,388234,338138
1059,0.058680,387599,338612
1063.92,0.058179,386688,338206
1067.61,0.056791,386598,339210
1071.29,0.055590,387377,340835
1074.96,0.055453,388536,341962
1078.63,0.055062,389855,343432
1082.3,0.054198,391215,345317
1085.96,0.053168,393215,347906
1090.84,0.052454,396270,351186
1094.49,0.052177,398760,353618
1098.14,0.051944,400987,355784
1101.79,0.051756,403477,358148
1105.43,0.051441,406116,360752
1109.06,0.051224,407701,362341
1112.7,0.050927,409859,364508
1117.53,0.050860,412494,366908
1121.15,0.051926,414909,368152
1124.77,0.052026,416559,369531
1128.38,0.053606,418532,369933
1131.99,0.055341,419956,369711
1135.6,0.057404,421946,369703
1139.2,0.059360,423881,369729
1143.99,0.062435,426786,369637
1147.58,0.063791,428617,370065
1151.17,0.064999,431169,371235
1154.75,0.066271,433579,372218
1158.33,0.068184,436264,372877
1161.91,0.070724,439132,373139
1165.48,0.073399,442389,373599
1169.04,0.076867,446101,373737
1173.79,0.080748,451929,375251
1177.34,0.083180,456026,376539
1180.9,0.086164,461306,378290
1184.44,0.088187,467657,381716
1187.99,0.088547,473969,386548
1191.52,0.087600,479856,392203
1195.06,0.087712,487372,398243
1199.76,0.086300,497347,407718
1203.29,0.084769,504311,414887
1206.81,0.083429,511507,422107
1210.33,0.082699,519078,429075
1213.84,0.081348,527163,437116
1217.35,0.080689,534208,443630
1220.85,0.078860,540472,450727
1225.51,0.078117,549929,459399
1229.01,0.077066,556888,466339
1232.5,0.075780,562180,472167
1235.98,0.074929,567975,477970
1239.46,0.074027,574815,484731
1242.94,0.072711,582782,492941
1246.41,0.072239,591476,500839
1251.03,0.071691,604016,512103
1254.5,0.071824,612289,518958
1257.96,0.072529,619125,523901
1261.41,0.072870,624551,528078
1264.86,0.073402,629900,531948
1268.31,0.074035,634345,534922
1271.75,0.074820,638574,537516
1276.33,0.075108,642499,540461
1279.76,0.075604,645905,542706
1283.19,0.074825,648307,545702
1286.61,0.074891,650446,547420
1290.03,0.073743,652132,550291
1293.44,0.073504,653907,552093
1296.85,0.073331,655963,554049
1301.39,0.072735,657349,555982
1304.8,0.072734,657558,556160
1308.19,0.073310,658515,556232
1311.58,0.073326,658804,556455
1314.97,0.074356,659011,555312
1318.36,0.074094,658272,555024
1321.73,0.074834,658022,553868
1326.23,0.075582,657870,552787
1329.6,0.077067,656482,549738
1332.97,0.078255,654926,546937
1336.33,0.079302,653727,544621
1339.69,0.081453,652497,540911
1343.04,0.083418,649913,536336
1346.39,0.085930,647671,531404
1349.73,0.088265,645338,526650
1354.18,0.091723,641175,519103
1357.52,0.094361,638376,513707
1360.85,0.096279,635805,509383
1364.17,0.099072,633413,504214
1367.49,0.101928,631026,499022
1370.81,0.104571,628050,493655
1374.12,0.107229,625034,488286
1378.54,0.111155,620272,480206
1381.84,0.115052,616892,473322
1385.14,0.119681,613613,465815
1388.43,0.124911,611526,458674
1391.72,0.130341,610663,452335
1395.01,0.135640,610634,446829
1398.29,0.141937,611700,441165
1402.66,0.150216,614051,434499
1405.93,0.156965,616268,429343
1409.2,0.163386,617795,424090
1412.46,0.168941,618872,419430
1415.72,0.174209,619795,414991
1418.98,0.179063,620495,410842
1422.23,0.183478,621087,407075
1426.56,0.188094,621375,402958
1429.8,0.190584,621616,400810
1433.04,0.193763,622129,398215
1436.27,0.196763,621526,395090
1439.5,0.198492,621113,393259
1442.72,0.201541,620921,390387
1445.94,0.203920,620270,387847
1450.23,0.207821,618860,383505
1453.44,0.210663,617697,380288
1456.64,0.213787,616264,376686
1459.85,0.216404,614413,373299
1463.04,0.218772,612307,369996
1466.24,0.222095,610032,365812
1469.43,0.225322,607345,361504
1473.67,0.230981,603789,354735
1476.85,0.235959,601175,349174
1480.02,0.241241,597737,342980
1483.19,0.247757,594479,336031
1486.36,0.254334,591232,329173
1489.52,0.259847,587853,323163
1492.68,0.262471,583875,319043
1496.89,0.266058,578062,313268
1500.03,0.267042,574159,310449
1503.18,0.267000,570285,308384
1506.32,0.266277,565444,306276
1509.45,0.265687,560571,304049
1512.58,0.263890,555821,302723
1515.71,0.261233,550344,301579
1519.87,0.259146,543983,299529
1522.99,0.255648,538764,299055
1526.1,0.252894,533692,298124
1529.21,0.249575,527902,297152
1532.32,0.245881,521886,296275
1535.42,0.242956,515888,294849
1538.51,0.239595,509987,293741
1541.6,0.237189,503936,291868
1545.72,0.231191,494694,290500
1548.8,0.228731,488378,288420
1551.88,0.225435,481832,286722
1554.95,0.223275,474989,284059
1558.02,0.221074,467818,281192
1561.08,0.220266,460730,277447
1564.15,0.218885,454170,274368
1568.22,0.218431,444181,268614
1571.27,0.217987,436947,264510
1574.32,0.215938,429598,261291
1577.36,0.214935,422039,257287
1580.4,0.212875,414375,253816
1583.43,0.210871,406354,250054
1586.46,0.209240,398475,246128
1590.49,0.206561,388982,241751
1593.51,0.204513,380708,237727
1596.53,0.201670,372727,234272
1599.54,0.199486,365060,230610
1602.55,0.197992,357543,226640
1605.55,0.194924,349495,223109
1608.55,0.192263,341154,219123
1612.54,0.190348,330877,213461
1615.53,0.187701,322904,209591
1618.51,0.186772,315116,204974
1621.49,0.185028,307217,200640
1624.47,0.183958,299481,196070
1627.44,0.182434,292112,191918
1630.41,0.181308,284245,187234
1634.36,0.180104,274079,181039
1637.32,0.177840,266916,177229
1640.27,0.177966,259612,172329
1643.22,0.176423,251804,167741
1646.16,0.173721,244348,163790
1649.1,0.174358,236703,158433
1652.04,0.173958,228171,152863
1655.95,0.170730,215408,145389
1658.88,0.169550,204937,138698
1661.8,0.166141,193395,131918
1664.72,0.162801,179728,123542
1667.63,0.158230,163642,113675
1670.54,0.151887,146312,103132
1673.44,0.143978,128451,92206
1677.31,0.137382,105080,76584
1680.21,0.135797,88906,65033
1683.1,0.136757,75033,54764
1685.99,0.143251,63520,45673
1688.87,0.153205,53714,37747
1691.75,0.154795,45653,31965
1694.62,0.158578,39137,27165
1697.49,0.162615,33776,23227
1701.31,0.165320,28175,19255

File: Column 1_050544_20150331_115652.csv
Method:,Column 1,,
Host Date-Time:,31/3/15 @ 11:56:52,,
Header Version:,1,,
System Temp (C):,32.75,,
Detector Temp (C):,31.07,,
Humidity (%):,2.69,,
Lamp PD:,3824,,
Shift Vector Coefficients:,-10.5391,0.0761263,-0.000134223,,
Pixel to Wavelength Coefficients:,1775.68,-0.916766,-0.000235065,,
Serial Number:,5510004,,
Scan Config Name:,Column 1,,
Scan Config Type:,Slew,,
Section 1,,
Start wavelength (nm):,900,,
End wavelength (nm):,1700,,
Pattern Pixel Width (nm):,   7.03,,,,
Exposure (ms):,  0.635,,,,
Digital Resolution:,228,,
Num Repeats:,6,,
PGA Gain:,64,,
Total Measurement Time in sec:,  2.665,,
Wavelength (nm),Absorbance (AU),Reference Signal (unitless),Sample Signal (unitless)
901.51,0.044618,108485,97893
905.376,0.050813,121306,107912
909.237,0.052374,131909,116923
913.095,0.054871,143299,126291
916.948,0.054090,156982,138599
922.079,0.053822,179937,158964
925.923,0.053917,200504,177095
929.762,0.055255,222660,196059
933.597,0.055630,244426,215039
937.427,0.054702,263972,232732
941.254,0.056497,281845,247465
945.076,0.054666,297271,262112
950.165,0.054668,315605,278276
953.978,0.054771,328029,289162
957.786,0.054790,340470,300116
961.59,0.055648,352317,309946
965.389,0.055599,363056,319429
969.185,0.055885,373162,328105
972.976,0.056738,382632,335771
976.763,0.057141,391202,342973
981.806,0.057599,400190,350483
985.583,0.058351,406088,355033
989.355,0.059242,410162,357860
993.124,0.059608,412868,359918
996.888,0.059827,414263,360952
1000.65,0.060685,415476,361294
1004.4,0.062083,415479,360136
1009.41,0.063632,414358,357885
1013.15,0.063769,412923,356533
1016.89,0.064305,411526,354889
1020.63,0.064361,409066,352722
1024.36,0.064540,406777,350604
1028.09,0.063756,404427,349208
1031.82,0.063376,401911,347339
1036.78,0.062569,398410,344954
1040.49,0.062000,396204,343494
1044.2,0.061955,394236,341823
1047.91,0.061759,392042,340074
1051.61,0.060600,389823,339053
1055.31,0.059853,388234,338252
1059,0.058877,387599,338459
1063.92,0.057528,386688,338714
1067.61,0.056625,386598,339340
1071.29,0.056101,387377,340434
1074.96,0.055433,388536,341978
1078.63,0.054519,389855,343862
1082.3,0.054247,391215,345278
1085.96,0.053305,393215,347796
1090.84,0.052392,396270,351236
1094.49,0.052293,398760,353524
1098.14,0.051805,400987,355898
1101.79,0.051823,403477,358093
1105.43,0.052103,406116,360203
1109.06,0.051048,407701,362488
1112.7,0.050475,409859,364888
1117.53,0.050686,412494,367055
1121.15,0.051855,414909,368212
1124.77,0.052676,416559,368978
1128.38,0.053790,418532,369776
1131.99,0.055497,419956,369579
1135.6,0.057274,421946,369814
1139.2,0.059613,423881,369514
1143.99,0.062188,426786,369847
1147.58,0.063158,428617,370605
1151.17,0.064460,431169,371696
1154.75,0.066008,433579,372443
1158.33,0.067788,436264,373217
1161.91,0.070439,439132,373384
1165.48,0.073368,442389,373625
1169.04,0.076495,446101,374057
1173.79,0.081002,451929,375032
1177.34,0.083720,456026,376071
1180.9,0.086051,461306,378389
1184.44,0.088012,467657,381870
1187.99,0.089201,473969,385966
1191.52,0.088358,479856,391519
1195.06,0.087584,487372,398361
1199.76,0.086698,497347,407344
1203.29,0.085562,504311,414130
1206.81,0.083929,511507,421621
1210.33,0.082239,519078,429530
1213.84,0.081414,527163,437050
1217.35,0.080142,534208,444190
1220.85,0.078931,540472,450653
1225.51,0.078070,549929,459448
1229.01,0.077419,556888,465960
1232.5,0.075999,562180,471929
1235.98,0.075594,567975,477238
1239.46,0.074571,574815,484124
1242.94,0.073103,582782,492496
1246.41,0.072775,591476,500221
1251.03,0.072259,604016,511434
1254.5,0.071995,612289,518754
1257.96,0.072253,619125,524234
1261.41,0.072570,624551,528443
1264.86,0.073697,629900,531587
1268.31,0.074414,634345,534455
1271.75,0.074930,638574,537380
1276.33,0.075335,642499,540179
1279.76,0.075213,645905,543195
1283.19,0.074623,648307,545956
1286.61,0.074035,650446,548499
1290.03,0.073714,652132,550328
1293.44,0.073294,653907,552360
1296.85,0.072936,655963,554554
1301.39,0.072877,657349,555801
1304.8,0.073170,657558,555602
1308.19,0.072977,658515,556658
1311.58,0.073200,658804,556617
1314.97,0.073834,659011,555979
1318.36,0.074283,658272,554782
1321.73,0.074964,658022,553703
1326.23,0.076027,657870,552221
1329.6,0.076919,656482,549926
1332.97,0.078149,654926,547070
1336.33,0.079124,653727,544844
1339.69,0.081187,652497,541242
1343.04,0.083389,649913,536372
1346.39,0.085543,647671,531877
1349.73,0.088021,645338,526946
1354.18,0.091368,641175,519528
1357.52,0.093886,638376,514269
1360.85,0.096401,635805,509241
1364.17,0.098881,633413,504436
1367.49,0.101587,631026,499413
1370.81,0.104453,628050,493789
1374.12,0.107199,625034,488320
1378.54,0.111067,620272,480303
1381.84,0.114753,616892,473649
1385.14,0.119987,613613,465487
1388.43,0.124542,611526,459064
1391.72,0.130257,610663,452423
1395.01,0.136167,610634,446287
1398.29,0.142062,611700,441038
1402.66,0.150380,614051,434335
1405.93,0.156819,616268,429488
1409.2,0.163160,617795,424311
1412.46,0.168834,618872,419534
1415.72,0.174674,619795,414547
1418.98,0.178940,620495,410959
1422.23,0.183045,621087,407481
1426.56,0.187650,621375,403370
1429.8,0.191262,621616,400184
1433.04,0.194398,622129,397633
1436.27,0.195915,621526,395862
1439.5,0.198370,621113,393369
1442.72,0.201371,620921,390540
1445.94,0.203245,620270,388451
1450.23,0.207448,618860,383835
1453.44,0.210846,617697,380128
1456.64,0.213339,616264,377075
1459.85,0.216308,614413,373381
1463.04,0.218746,612307,370018
1466.24,0.221787,610032,366071
1469.43,0.224933,607345,361828
1473.67,0.230703,603789,354962
1476.85,0.235543,601175,349509
1480.02,0.241521,597737,342759
1483.19,0.247101,594479,336539
1486.36,0.254119,591232,329336
1489.52,0.258869,587853,323892
1492.68,0.263524,583875,318270
1496.89,0.265471,578062,313692
1500.03,0.266705,574159,310690
1503.18,0.266564,570285,308694
1506.32,0.265785,565444,306623
1509.45,0.264868,560571,304623
1512.58,0.263392,555821,303070
1515.71,0.261673,550344,301274
1519.87,0.257706,543983,300524
1522.99,0.254980,538764,299515
1526.1,0.252865,533692,298144
1529.21,0.249864,527902,296954
1532.32,0.246224,521886,296041
1535.42,0.243234,515888,294660
1538.51,0.239855,509987,293565
1541.6,0.236536,503936,292307
1545.72,0.231985,494694,289969
1548.8,0.227758,488378,289067
1551.88,0.224850,481832,287108
1554.95,0.223182,474989,284120
1558.02,0.220304,467818,281691
1561.08,0.219731,460730,277789
1564.15,0.218697,454170,274487
1568.22,0.217761,444181,269029
1571.27,0.216716,436947,265285
1574.32,0.215722,429598,261421
1577.36,0.214028,422039,257825
1580.4,0.213003,414375,253741
1583.43,0.210852,406354,250065
1586.46,0.208220,398475,246707
1590.49,0.206416,388982,241832
1593.51,0.204680,380708,237636
1596.53,0.201993,372727,234098
1599.54,0.199780,365060,230454
1602.55,0.196939,357543,227190
1605.55,0.194788,349495,223179
1608.55,0.191922,341154,219295
1612.54,0.190157,330877,213555
1615.53,0.187123,322904,209870
1618.51,0.186048,315116,205316
1621.49,0.184126,307217,201057
1624.47,0.183217,299481,196405
1627.44,0.181821,292112,192189
1630.41,0.180474,284245,187594
1634.36,0.178294,274079,181795
1637.32,0.177428,266916,177397
1640.27,0.175697,259612,173232
1643.22,0.175505,251804,168096
1646.16,0.173992,244348,163688
1649.1,0.173547,236703,158729
1652.04,0.172135,228171,153506
1655.95,0.171041,215408,145285
1658.88,0.167785,204937,139263
1661.8,0.167358,193395,131549
1664.72,0.162826,179728,123535
1667.63,0.157409,163642,113890
1670.54,0.151718,146312,103172
1673.44,0.143536,128451,92300
1677.31,0.136929,105080,76664
1680.21,0.134257,88906,65264
1683.1,0.136614,75033,54782
1685.99,0.142728,63520,45728
1688.87,0.145643,53714,38410
1691.75,0.148965,45653,32397
1694.62,0.150767,39137,27658
1697.49,0.158447,33776,23451
1701.31,0.169878,28175,19054

File: Column 1_050544_20150331_115655.csv
Method:,Column 1,,
Host Date-Time:,31/3/15 @ 11:56:55,,
Header Version:,1,,
System Temp (C):,32.75,,
Detector Temp (C):,31.12,,
Humidity (%):,2.64,,
Lamp PD:,3823,,
Shift Vector Coefficients:,-10.5391,0.0761263,-0.000134223,,
Pixel to Wavelength Coefficients:,1775.68,-0.916766,-0.000235065,,
Serial Number:,5510004,,
Scan Config Name:,Column 1,,
Scan Config Type:,Slew,,
Section 1,,
Start wavelength (nm):,900,,
End wavelength (nm):,1700,,
Pattern Pixel Width (nm):,   7.03,,,,
Exposure (ms):,  0.635,,,,
Digital Resolution:,228,,
Num Repeats:,6,,
PGA Gain:,64,,
Total Measurement Time in sec:,  2.667,,
Wavelength (nm),Absorbance (AU),Reference Signal (unitless),Sample Signal (unitless)
901.51,0.044259,108485,97974
905.376,0.050611,121306,107962
909.237,0.053077,131909,116734
913.095,0.053031,143299,126827
916.948,0.053101,156982,138915
922.079,0.053729,179937,158998
925.923,0.053904,200504,177100
929.762,0.054474,222660,196412
933.597,0.054420,244426,215639
937.427,0.053988,263972,233115
941.254,0.054906,281845,248373
945.076,0.054744,297271,262065
950.165,0.055277,315605,277886
953.978,0.054634,328029,289253
957.786,0.054730,340470,300157
961.59,0.055571,352317,310001
965.389,0.055394,363056,319580
969.185,0.055813,373162,328159
972.976,0.056237,382632,336159
976.763,0.056941,391202,343131
981.806,0.057780,400190,350337
985.583,0.058584,406088,354843
989.355,0.058695,410162,358311
993.124,0.059386,412868,360102
996.888,0.059729,414263,361033
1000.65,0.060183,415476,361712
1004.4,0.062068,415479,360148
1009.41,0.063059,414358,358358
1013.15,0.063660,412923,356623
1016.89,0.064417,411526,354797
1020.63,0.063043,409066,353794
1024.36,0.063503,406777,351442
1028.09,0.063428,404427,349472
1031.82,0.062881,401911,347735
1036.78,0.062546,398410,344972
1040.49,0.061213,396204,344117
1044.2,0.061759,394236,341977
1047.91,0.060745,392042,340869
1051.61,0.060019,389823,339507
1055.31,0.059978,388234,338155
1059,0.058725,387599,338577
1063.92,0.057619,386688,338643
1067.61,0.056836,386598,339175
1071.29,0.055836,387377,340642
1074.96,0.055536,388536,341897
1078.63,0.054548,389855,343839
1082.3,0.053203,391215,346109
1085.96,0.052685,393215,348293
1090.84,0.052304,396270,351307
1094.49,0.051689,398760,354016
1098.14,0.051683,400987,355998
1101.79,0.051326,403477,358503
1105.43,0.051250,406116,360911
1109.06,0.050719,407701,362763
1112.7,0.050651,409859,364740
1117.53,0.050001,412494,367635
1121.15,0.051762,414909,368291
1124.77,0.051902,416559,369636
1128.38,0.053298,418532,370195
1131.99,0.055462,419956,369608
1135.6,0.057117,421946,369947
1139.2,0.058940,423881,370087
1143.99,0.061863,426786,370124
1147.58,0.063226,428617,370547
1151.17,0.064755,431169,371443
1154.75,0.066279,433579,372211
1158.33,0.067403,436264,373548
1161.91,0.069864,439132,373879
1165.48,0.073397,442389,373600
1169.04,0.075470,446101,374941
1173.79,0.080316,451929,375625
1177.34,0.083328,456026,376410
1180.9,0.085701,461306,378694
1184.44,0.087460,467657,382356
1187.99,0.088363,473969,386711
1191.52,0.087628,479856,392178
1195.06,0.087525,487372,398415
1199.76,0.085596,497347,408379
1203.29,0.084401,504311,415238
1206.81,0.083522,511507,422017
1210.33,0.081807,519078,429958
1213.84,0.081070,527163,437396
1217.35,0.080151,534208,444180
1220.85,0.078711,540472,450881
1225.51,0.077613,549929,459932
1229.01,0.076768,556888,466659
1232.5,0.076233,562180,471675
1235.98,0.075142,567975,477735
1239.46,0.074272,574815,484458
1242.94,0.072574,582782,493097
1246.41,0.072074,591476,501029
1251.03,0.071450,604016,512387
1254.5,0.071764,612289,519030
1257.96,0.072338,619125,524131
1261.41,0.073031,624551,527882
1264.86,0.073103,629900,532315
1268.31,0.074050,634345,534903
1271.75,0.074621,638574,537762
1276.33,0.075141,642499,540420
1279.76,0.074703,645905,543833
1283.19,0.074028,648307,546704
1286.61,0.073703,650446,548919
1290.03,0.073424,652132,550696
1293.44,0.072983,653907,552755
1296.85,0.072835,655963,554682
1301.39,0.072397,657349,556415
1304.8,0.072393,657558,556597
1308.19,0.072821,658515,556858
1311.58,0.073031,658804,556833
1314.97,0.073666,659011,556194
1318.36,0.074059,658272,555068
1321.73,0.074219,658022,554653
1326.23,0.075898,657870,552385
1329.6,0.076605,656482,550323
1332.97,0.077702,654926,547634
1336.33,0.079320,653727,544598
1339.69,0.080825,652497,541693
1343.04,0.082694,649913,537231
1346.39,0.085088,647671,532435
1349.73,0.087891,645338,527104
1354.18,0.091443,641175,519438
1357.52,0.093432,638376,514807
1360.85,0.096358,635805,509291
1364.17,0.098632,633413,504725
1367.49,0.101462,631026,499557
1370.81,0.104048,628050,494249
1374.12,0.106589,625034,489006
1378.54,0.111092,620272,480275
1381.84,0.114327,616892,474113
1385.14,0.119499,613613,466010
1388.43,0.124551,611526,459054
1391.72,0.129771,610663,452929
1395.01,0.135304,610634,447174
1398.29,0.141378,611700,441734
1402.66,0.149887,614051,434828
1405.93,0.156743,616268,429563
1409.2,0.163265,617795,424209
1412.46,0.168890,618872,419480
1415.72,0.174199,619795,415001
1418.98,0.178820,620495,411072
1422.23,0.183335,621087,407209
1426.56,0.187825,621375,403208
1429.8,0.190238,621616,401129
1433.04,0.194128,622129,397880
1436.27,0.196024,621526,395763
1439.5,0.198250,621113,393478
1442.72,0.201184,620921,390708
1445.94,0.203258,620270,388439
1450.23,0.207365,618860,383908
1453.44,0.210161,617697,380728
1456.64,0.212490,616264,377813
1459.85,0.215787,614413,373829
1463.04,0.218487,612307,370239
1466.24,0.221727,610032,366122
1469.43,0.225118,607345,361674
1473.67,0.230191,603789,355381
1476.85,0.235222,601175,349767
1480.02,0.241320,597737,342918
1483.19,0.247553,594479,336189
1486.36,0.253599,591232,329730
1489.52,0.258768,587853,323967
1492.68,0.262904,583875,318725
1496.89,0.265204,578062,313885
1500.03,0.265895,574159,311270
1503.18,0.266403,570285,308808
1506.32,0.266680,565444,305992
1509.45,0.264560,560571,304839
1512.58,0.263521,555821,302980
1515.71,0.260787,550344,301889
1519.87,0.257789,543983,300467
1522.99,0.254854,538764,299602
1526.1,0.252668,533692,298279
1529.21,0.249382,527902,297284
1532.32,0.246234,521886,296034
1535.42,0.243217,515888,294672
1538.51,0.239754,509987,293633
1541.6,0.236089,503936,292608
1545.72,0.231265,494694,290450
1548.8,0.228024,488378,288890
1551.88,0.225238,481832,286852
1554.95,0.222754,474989,284400
1558.02,0.221077,467818,281190
1561.08,0.219294,460730,278069
1564.15,0.219078,454170,274246
1568.22,0.217745,444181,269039
1571.27,0.217324,436947,264914
1574.32,0.215833,429598,261354
1577.36,0.214449,422039,257575
1580.4,0.212497,414375,254037
1583.43,0.211050,406354,249951
1586.46,0.208704,398475,246432
1590.49,0.206374,388982,241855
1593.51,0.203997,380708,238010
1596.53,0.201204,372727,234524
1599.54,0.198626,365060,231067
1602.55,0.196824,357543,227250
1605.55,0.193750,349495,223713
1608.55,0.192590,341154,218958
1612.54,0.189765,330877,213748
1615.53,0.187131,322904,209866
1618.51,0.185251,315116,205693
1621.49,0.184199,307217,201023
1624.47,0.183053,299481,196479
1627.44,0.181518,292112,192323
1630.41,0.179782,284245,187893
1634.36,0.177974,274079,181929
1637.32,0.177032,266916,177559
1640.27,0.177312,259612,172589
1643.22,0.175149,251804,168234
1646.16,0.175491,244348,163124
1649.1,0.174007,236703,158561
1652.04,0.171561,228171,153709
1655.95,0.170590,215408,145436
1658.88,0.168037,204937,139182
1661.8,0.166329,193395,131861
1664.72,0.163892,179728,123232
1667.63,0.156240,163642,114197
1670.54,0.150222,146312,103528
1673.44,0.143842,128451,92235
1677.31,0.136430,105080,76752
1680.21,0.135017,88906,65150
1683.1,0.134250,75033,55081
1685.99,0.142586,63520,45743
1688.87,0.145508,53714,38422
1691.75,0.149045,45653,32391
1694.62,0.153618,39137,27477
1697.49,0.153548,33776,23717
1701.31,0.157187,28175,19619