Folder: textile_sorting_NIRSCAN_/samples/wool/wool-000811 (part 110)

File: Column 1_050592_20150331_121944.csv
Method:,Column 1,,
Host Date-Time:,31/3/15 @ 12:19:44,,
Header Version:,1,,
System Temp (C):,33.91,,
Detector Temp (C):,34.62,,
Humidity (%):,1.81,,
Lamp PD:,3819,,
Shift Vector Coefficients:,-10.5391,0.0761263,-0.000134223,,
Pixel to Wavelength Coefficients:,1775.68,-0.916766,-0.000235065,,
Serial Number:,5510004,,
Scan Config Name:,Column 1,,
Scan Config Type:,Slew,,
Section 1,,
Start wavelength (nm):,900,,
End wavelength (nm):,1700,,
Pattern Pixel Width (nm):,   7.03,,,,
Exposure (ms):,  0.635,,,,
Digital Resolution:,228,,
Num Repeats:,6,,
PGA Gain:,64,,
Total Measurement Time in sec:,  2.691,,
Wavelength (nm),Absorbance (AU),Reference Signal (unitless),Sample Signal (unitless)
901.51,0.069890,108485,92359
905.376,0.075325,121306,101990
909.237,0.078724,131909,110040
913.095,0.080339,143299,119098
916.948,0.080536,156982,130411
922.079,0.082153,179937,148925
925.923,0.083089,200504,165590
929.762,0.084160,222660,183435
933.597,0.083198,244426,201813
937.427,0.081386,263972,218863
941.254,0.081322,281845,233716
945.076,0.080057,297271,247227
950.165,0.079041,315605,263089
953.978,0.079266,328029,273304
957.786,0.079780,340470,283334
961.59,0.080053,352317,293009
965.389,0.079379,363056,302409
969.185,0.079580,373162,310683
972.976,0.079567,382632,318577
976.763,0.080307,391202,325158
981.806,0.080354,400190,332592
985.583,0.081006,406088,336988
989.355,0.081514,410162,339971
993.124,0.081845,412868,341953
996.888,0.082912,414263,342266
1000.65,0.083308,415476,342956
1004.4,0.084327,415479,342154
1009.41,0.085971,414358,339942
1013.15,0.086142,412923,338631
1016.89,0.086432,411526,337260
1020.63,0.085700,409066,335810
1024.36,0.085878,406777,333794
1028.09,0.086498,404427,331392
1031.82,0.085463,401911,330116
1036.78,0.085971,398410,326858
1040.49,0.085128,396204,325680
1044.2,0.085501,394236,323784
1047.91,0.085749,392042,321798
1051.61,0.084689,389823,320759
1055.31,0.084299,388234,319738
1059,0.083901,387599,319508
1063.92,0.082951,386688,319455
1067.61,0.082680,386598,319580
1071.29,0.081908,387377,320794
1074.96,0.081408,388536,322124
1078.63,0.081150,389855,323410
1082.3,0.080202,391215,325247
1085.96,0.079310,393215,327582
1090.84,0.078441,396270,330788
1094.49,0.077852,398760,333319
1098.14,0.077993,400987,335071
1101.79,0.077436,403477,337585
1105.43,0.076740,406116,340338
1109.06,0.076125,407701,342150
1112.7,0.075208,409859,344688
1117.53,0.075841,412494,346399
1121.15,0.075785,414909,348472
1124.77,0.076360,416559,349395
1128.38,0.077036,418532,350504
1131.99,0.078030,419956,350892
1135.6,0.080050,421946,350919
1139.2,0.081047,423881,351720
1143.99,0.082976,426786,352561
1147.58,0.083859,428617,353354
1151.17,0.084686,431169,354782
1154.75,0.085622,433579,355997
1158.33,0.086626,436264,357374
1161.91,0.088474,439132,358196
1165.48,0.090935,442389,358814
1169.04,0.092847,446101,360235
1173.79,0.096483,451929,361899
1177.34,0.098619,456026,363388
1180.9,0.100559,461306,365957
1184.44,0.102100,467657,369681
1187.99,0.103011,473969,373886
1191.52,0.103548,479856,378062
1195.06,0.103007,487372,384462
1199.76,0.102607,497347,392692
1203.29,0.101887,504311,398852
1206.81,0.101729,511507,404690
1210.33,0.100853,519078,411509
1213.84,0.099934,527163,418804
1217.35,0.099760,534208,424571
1220.85,0.098894,540472,430407
1225.51,0.097931,549929,438910
1229.01,0.097731,556888,444669
1232.5,0.096874,562180,449781
1235.98,0.096455,567975,454856
1239.46,0.095635,574815,461204
1242.94,0.094485,582782,468836
1246.41,0.094196,591476,476147
1251.03,0.093658,604016,486845
1254.5,0.093923,612289,493212
1257.96,0.094683,619125,497846
1261.41,0.095348,624551,501441
1264.86,0.095844,629900,505158
1268.31,0.096222,634345,508281
1271.75,0.097134,638574,510596
1276.33,0.096322,642499,514696
1279.76,0.096451,645905,517270
1283.19,0.096388,648307,519269
1286.61,0.095960,650446,521496
1290.03,0.095971,652132,522835
1293.44,0.094662,653907,525840
1296.85,0.094969,655963,527121
1301.39,0.094632,657349,528645
1304.8,0.094413,657558,529080
1308.19,0.094681,658515,529523
1311.58,0.094663,658804,529777
1314.97,0.095044,659011,529479
1318.36,0.095664,658272,528131
1321.73,0.096144,658022,527347
1326.23,0.097293,657870,525832
1329.6,0.097732,656482,524192
1332.97,0.099096,654926,521310
1336.33,0.099789,653727,519526
1339.69,0.101411,652497,516616
1343.04,0.103277,649913,512364
1346.39,0.105142,647671,508408
1349.73,0.107150,645338,504240
1354.18,0.110021,641175,497686
1357.52,0.112140,638376,493102
1360.85,0.114031,635805,488982
1364.17,0.115797,633413,485166
1367.49,0.118591,631026,480238
1370.81,0.120270,628050,476129
1374.12,0.122732,625034,471164
1378.54,0.125398,620272,464712
1381.84,0.128725,616892,458653
1385.14,0.131949,613613,452841
1388.43,0.135319,611526,447812
1391.72,0.140508,610663,441869
1395.01,0.144674,610634,437630
1398.29,0.149524,611700,433525
1402.66,0.156725,614051,428035
1405.93,0.161847,616268,424544
1409.2,0.166761,617795,420807
1412.46,0.171611,618872,416860
1415.72,0.175566,619795,413697
1418.98,0.179139,620495,410771
1422.23,0.182980,621087,407542
1426.56,0.186786,621375,404173
1429.8,0.188857,621616,402407
1433.04,0.191877,622129,399948
1436.27,0.194403,621526,397243
1439.5,0.196581,621113,394993
1442.72,0.198841,620921,392822
1445.94,0.201174,620270,390307
1450.23,0.204267,618860,386657
1453.44,0.206762,617697,383719
1456.64,0.209427,616264,380487
1459.85,0.212378,614413,376775
1463.04,0.214910,612307,373301
1466.24,0.218410,610032,368929
1469.43,0.221893,607345,364370
1473.67,0.227310,603789,357746
1476.85,0.232753,601175,351761
1480.02,0.238224,597737,345371
1483.19,0.243682,594479,339199
1486.36,0.249387,591232,332944
1489.52,0.254024,587853,327525
1492.68,0.257684,583875,322579
1496.89,0.259872,578062,317762
1500.03,0.260636,574159,315062
1503.18,0.260116,570285,313311
1506.32,0.259858,565444,310836
1509.45,0.257748,560571,309658
1512.58,0.256023,555821,308256
1515.71,0.253601,550344,306926
1519.87,0.250921,543983,305256
1522.99,0.248571,538764,303968
1526.1,0.245818,533692,303021
1529.21,0.243806,527902,301125
1532.32,0.240806,521886,299757
1535.42,0.237808,515888,298365
1538.51,0.234991,509987,296871
1541.6,0.231712,503936,295572
1545.72,0.227794,494694,292781
1548.8,0.224787,488378,291051
1551.88,0.222784,481832,288477
1554.95,0.220351,474989,285978
1558.02,0.219111,467818,282466
1561.08,0.217922,460730,278949
1564.15,0.217793,454170,275059
1568.22,0.216563,444181,269772
1571.27,0.215596,436947,265970
1574.32,0.214937,429598,261894
1577.36,0.213666,422039,258040
1580.4,0.211892,414375,254391
1583.43,0.211044,406354,249954
1586.46,0.208893,398475,246325
1590.49,0.209961,388982,239866
1593.51,0.205183,380708,237361
1596.53,0.202885,372727,233618
1599.54,0.201103,365060,229753
1602.55,0.200051,357543,225568
1605.55,0.198395,349495,221333
1608.55,0.195947,341154,217272
1612.54,0.194453,330877,211453
1615.53,0.192357,322904,207356
1618.51,0.191261,315116,202866
1621.49,0.190464,307217,198144
1624.47,0.188615,299481,193979
1627.44,0.187102,292112,189866
1630.41,0.187202,284245,184710
1634.36,0.185297,274079,178887
1637.32,0.184218,266916,174645
1640.27,0.185035,259612,169547
1643.22,0.184045,251804,164823
1646.16,0.183097,244348,160292
1649.1,0.182261,236703,155576
1652.04,0.179528,228171,150915
1655.95,0.176713,215408,143400
1658.88,0.173501,204937,137442
1661.8,0.169018,193395,131047
1664.72,0.162977,179728,123492
1667.63,0.147781,163642,116443
1670.54,0.134733,146312,107287
1673.44,0.117365,128451,98033
1677.31,0.099756,105080,83515
1680.21,0.088407,88906,72531
1683.1,0.084651,75033,61745
1685.99,0.082206,63520,52566
1688.87,0.084646,53714,44202
1691.75,0.091831,45653,36952
1694.62,0.099688,39137,31110
1697.49,0.101723,33776,26723
1701.31,0.115350,28175,21603

File: Column 1_050592_20150331_121950.csv
Method:,Column 1,,
Host Date-Time:,31/3/15 @ 12:19:50,,
Header Version:,1,,
System Temp (C):,33.93,,
Detector Temp (C):,34.59,,
Humidity (%):,1.81,,
Lamp PD:,3819,,
Shift Vector Coefficients:,-10.5391,0.0761263,-0.000134223,,
Pixel to Wavelength Coefficients:,1775.68,-0.916766,-0.000235065,,
Serial Number:,5510004,,
Scan Config Name:,Column 1,,
Scan Config Type:,Slew,,
Section 1,,
Start wavelength (nm):,900,,
End wavelength (nm):,1700,,
Pattern Pixel Width (nm):,   7.03,,,,
Exposure (ms):,  0.635,,,,
Digital Resolution:,228,,
Num Repeats:,6,,
PGA Gain:,64,,
Total Measurement Time in sec:,  2.673,,
Wavelength (nm),Absorbance (AU),Reference Signal (unitless),Sample Signal (unitless)
901.51,0.069623,108485,92416
905.376,0.076715,121306,101664
909.237,0.077022,131909,110472
913.095,0.078806,143299,119519
916.948,0.079289,156982,130786
922.079,0.080918,179937,149349
925.923,0.082559,200504,165792
929.762,0.083590,222660,183676
933.597,0.082848,244426,201976
937.427,0.082329,263972,218388
941.254,0.081474,281845,233634
945.076,0.079804,297271,247371
950.165,0.079509,315605,262806
953.978,0.079368,328029,273240
957.786,0.078866,340470,283931
961.59,0.078942,352317,293759
965.389,0.079554,363056,302287
969.185,0.079872,373162,310474
972.976,0.079052,382632,318955
976.763,0.079962,391202,325416
981.806,0.080441,400190,332526
985.583,0.080770,406088,337171
989.355,0.081197,410162,340219
993.124,0.081770,412868,342012
996.888,0.082395,414263,342674
1000.65,0.083047,415476,343162
1004.4,0.084313,415479,342165
1009.41,0.085209,414358,340539
1013.15,0.085710,412923,338968
1016.89,0.086793,411526,336980
1020.63,0.086316,409066,335334
1024.36,0.086498,406777,333318
1028.09,0.086304,404427,331540
1031.82,0.086302,401911,329479
1036.78,0.085405,398410,327284
1040.49,0.085731,396204,325228
1044.2,0.085406,394236,323855
1047.91,0.085106,392042,322275
1051.61,0.084997,389823,320531
1055.31,0.084131,388234,319862
1059,0.083795,387599,319586
1063.92,0.082456,386688,319819
1067.61,0.082777,386598,319509
1071.29,0.082405,387377,320427
1074.96,0.081647,388536,321947
1078.63,0.080891,389855,323603
1082.3,0.080003,391215,325396
1085.96,0.079516,393215,327427
1090.84,0.078691,396270,330598
1094.49,0.078369,398760,332922
1098.14,0.077705,400987,335294
1101.79,0.076029,403477,338680
1105.43,0.076358,406116,340637
1109.06,0.075698,407701,342487
1112.7,0.075414,409859,344525
1117.53,0.075478,412494,346689
1121.15,0.075685,414909,348552
1124.77,0.076156,416559,349559
1128.38,0.076815,418532,350682
1131.99,0.078287,419956,350685
1135.6,0.079278,421946,351543
1139.2,0.080626,423881,352061
1143.99,0.082930,426786,352598
1147.58,0.083425,428617,353708
1151.17,0.084579,431169,354869
1154.75,0.085422,433579,356161
1158.33,0.087127,436264,356962
1161.91,0.088529,439132,358151
1165.48,0.090648,442389,359051
1169.04,0.092770,446101,360299
1173.79,0.096166,451929,362163
1177.34,0.098504,456026,363484
1180.9,0.100005,461306,366424
1184.44,0.102052,467657,369722
1187.99,0.103542,473969,373429
1191.52,0.103509,479856,378096
1195.06,0.103190,487372,384300
1199.76,0.102802,497347,392516
1203.29,0.101795,504311,398936
1206.81,0.101549,511507,404858
1210.33,0.100814,519078,411546
1213.84,0.099938,527163,418800
1217.35,0.099698,534208,424632
1220.85,0.099235,540472,430069
1225.51,0.097983,549929,438858
1229.01,0.097691,556888,444710
1232.5,0.096922,562180,449732
1235.98,0.096514,567975,454794
1239.46,0.095388,574815,461466
1242.94,0.094205,582782,469139
1246.41,0.093928,591476,476441
1251.03,0.093996,604016,486466
1254.5,0.094015,612289,493107
1257.96,0.094297,619125,498289
1261.41,0.095278,624551,501522
1264.86,0.095286,629900,505808
1268.31,0.096083,634345,508443
1271.75,0.096683,638574,511126
1276.33,0.096843,642499,514078
1279.76,0.096583,645905,517113
1283.19,0.096289,648307,519388
1286.61,0.095929,650446,521533
1290.03,0.095385,652132,523541
1293.44,0.095449,653907,524888
1296.85,0.095361,655963,526645
1301.39,0.094683,657349,528583
1304.8,0.094542,657558,528923
1308.19,0.094690,658515,529512
1311.58,0.094985,658804,529385
1314.97,0.095114,659011,529393
1318.36,0.096311,658272,527344
1321.73,0.096278,658022,527184
1326.23,0.097092,657870,526076
1329.6,0.097930,656482,523954
1332.97,0.099106,654926,521298
1336.33,0.099977,653727,519301
1339.69,0.101688,652497,516286
1343.04,0.103466,649913,512141
1346.39,0.104730,647671,508891
1349.73,0.107328,645338,504033
1354.18,0.109862,641175,497868
1357.52,0.112038,638376,493218
1360.85,0.114223,635805,488766
1364.17,0.115815,633413,485145
1367.49,0.118122,631026,480757
1370.81,0.120634,628050,475730
1374.12,0.122281,625034,471653
1378.54,0.125541,620272,464559
1381.84,0.128275,616892,459128
1385.14,0.131423,613613,453390
1388.43,0.136373,611526,446727
1391.72,0.140092,610663,442293
1395.01,0.145098,610634,437203
1398.29,0.149122,611700,433927
1402.66,0.156080,614051,428671
1405.93,0.161655,616268,424732
1409.2,0.166750,617795,420818
1412.46,0.171208,618872,417247
1415.72,0.175788,619795,413485
1418.98,0.179320,620495,410599
1422.23,0.183029,621087,407496
1426.56,0.186891,621375,404076
1429.8,0.189060,621616,402219
1433.04,0.191914,622129,399914
1436.27,0.194190,621526,397438
1439.5,0.195358,621113,396107
1442.72,0.198499,620921,393131
1445.94,0.200956,620270,390503
1450.23,0.204309,618860,386619
1453.44,0.206561,617697,383897
1456.64,0.209577,616264,380356
1459.85,0.212140,614413,376982
1463.04,0.214681,612307,373498
1466.24,0.217945,610032,369324
1469.43,0.220895,607345,365208
1473.67,0.227097,603789,357922
1476.85,0.232154,601175,352247
1480.02,0.237899,597737,345630
1483.19,0.244864,594479,338277
1486.36,0.249943,591232,332518
1489.52,0.253872,587853,327640
1492.68,0.256968,583875,323111
1496.89,0.259734,578062,317863
1500.03,0.260170,574159,315400
1503.18,0.259965,570285,313420
1506.32,0.259494,565444,311097
1509.45,0.257631,560571,309742
1512.58,0.256489,555821,307926
1515.71,0.253694,550344,306860
1519.87,0.250300,543983,305693
1522.99,0.248326,538764,304139
1526.1,0.246198,533692,302756
1529.21,0.243054,527902,301647
1532.32,0.240376,521886,300054
1535.42,0.237866,515888,298325
1538.51,0.234315,509987,297334
1541.6,0.230933,503936,296103
1545.72,0.227846,494694,292746
1548.8,0.225498,488378,290575
1551.88,0.222641,481832,288572
1554.95,0.220141,474989,286116
1558.02,0.219257,467818,282371
1561.08,0.218528,460730,278560
1564.15,0.216980,454170,275574
1568.22,0.215500,444181,270433
1571.27,0.215415,436947,266081
1574.32,0.215242,429598,261710
1577.36,0.212971,422039,258453
1580.4,0.211435,414375,254659
1583.43,0.210537,406354,250246
1586.46,0.209249,398475,246123
1590.49,0.206541,388982,241762
1593.51,0.205203,380708,237350
1596.53,0.203160,372727,233470
1599.54,0.201370,365060,229612
1602.55,0.199462,357543,225874
1605.55,0.197399,349495,221841
1608.55,0.195917,341154,217287
1612.54,0.193870,330877,211737
1615.53,0.191829,322904,207608
1618.51,0.190256,315116,203336
1621.49,0.190447,307217,198152
1624.47,0.188319,299481,194111
1627.44,0.187116,292112,189860
1630.41,0.186392,284245,185055
1634.36,0.185360,274079,178861
1637.32,0.184579,266916,174500
1640.27,0.184942,259612,169583
1643.22,0.183197,251804,165145
1646.16,0.181960,244348,160712
1649.1,0.181444,236703,155869
1652.04,0.180591,228171,150546
1655.95,0.176913,215408,143334
1658.88,0.172028,204937,137909
1661.8,0.168300,193395,131264
1664.72,0.161092,179728,124029
1667.63,0.147442,163642,116534
1670.54,0.132838,146312,107756
1673.44,0.119190,128451,97622
1677.31,0.096895,105080,84067
1680.21,0.086430,88906,72862
1683.1,0.080075,75033,62399
1685.99,0.083903,63520,52361
1688.87,0.085354,53714,44130
1691.75,0.094023,45653,36766
1694.62,0.094774,39137,31464
1697.49,0.098420,33776,26927
1701.31,0.106042,28175,22071

File: Column 1_050592_20150331_121953.csv
Method:,Column 1,,
Host Date-Time:,31/3/15 @ 12:19:53,,
Header Version:,1,,
System Temp (C):,33.92,,
Detector Temp (C):,34.59,,
Humidity (%):,1.76,,
Lamp PD:,3818,,
Shift Vector Coefficients:,-10.5391,0.0761263,-0.000134223,,
Pixel to Wavelength Coefficients:,1775.68,-0.916766,-0.000235065,,
Serial Number:,5510004,,
Scan Config Name:,Column 1,,
Scan Config Type:,Slew,,
Section 1,,
Start wavelength (nm):,900,,
End wavelength (nm):,1700,,
Pattern Pixel Width (nm):,   7.03,,,,
Exposure (ms):,  0.635,,,,
Digital Resolution:,228,,
Num Repeats:,6,,
PGA Gain:,64,,
Total Measurement Time in sec:,  2.678,,
Wavelength (nm),Absorbance (AU),Reference Signal (unitless),Sample Signal (unitless)
901.51,0.069341,108485,92476
905.376,0.074844,121306,102103
909.237,0.077762,131909,110284
913.095,0.078432,143299,119622
916.948,0.079654,156982,130676
922.079,0.081331,179937,149207
925.923,0.081848,200504,166064
929.762,0.083060,222660,183900
933.597,0.082940,244426,201933
937.427,0.082542,263972,218281
941.254,0.081002,281845,233888
945.076,0.081165,297271,246597
950.165,0.079699,315605,262691
953.978,0.078445,328029,273821
957.786,0.078958,340470,283871
961.59,0.079083,352317,293664
965.389,0.078953,363056,302706
969.185,0.079644,373162,310637
972.976,0.079319,382632,318759
976.763,0.079674,391202,325632
981.806,0.080529,400190,332458
985.583,0.081376,406088,336701
989.355,0.081626,410162,339883
993.124,0.082295,412868,341599
996.888,0.082171,414263,342851
1000.65,0.082862,415476,343308
1004.4,0.084006,415479,342407
1009.41,0.085676,414358,340173
1013.15,0.085905,412923,338816
1016.89,0.086774,411526,336995
1020.63,0.086010,409066,335570
1024.36,0.086116,406777,333611
1028.09,0.086473,404427,331411
1031.82,0.085666,401911,329962
1036.78,0.085332,398410,327339
1040.49,0.085751,396204,325213
1044.2,0.085340,394236,323904
1047.91,0.084938,392042,322400
1051.61,0.084789,389823,320685
1055.31,0.084355,388234,319697
1059,0.083792,387599,319588
1063.92,0.082439,386688,319832
1067.61,0.082277,386598,319877
1071.29,0.082379,387377,320446
1074.96,0.081664,388536,321934
1078.63,0.080931,389855,323573
1082.3,0.080338,391215,325145
1085.96,0.079429,393215,327492
1090.84,0.078821,396270,330499
1094.49,0.077896,398760,333285
1098.14,0.077557,400987,335408
1101.79,0.076613,403477,338225
1105.43,0.076431,406116,340580
1109.06,0.075584,407701,342577
1112.7,0.075666,409859,344325
1117.53,0.075599,412494,346592
1121.15,0.075680,414909,348556
1124.77,0.076315,416559,349431
1128.38,0.077486,418532,350141
1131.99,0.077605,419956,351236
1135.6,0.079439,421946,351413
1139.2,0.080809,423881,351913
1143.99,0.083166,426786,352407
1147.58,0.083390,428617,353736
1151.17,0.084977,431169,354544
1154.75,0.085962,433579,355718
1158.33,0.087073,436264,357007
1161.91,0.088934,439132,357817
1165.48,0.091044,442389,358724
1169.04,0.092899,446101,360192
1173.79,0.096420,451929,361951
1177.34,0.098113,456026,363812
1180.9,0.100633,461306,365895
1184.44,0.102458,467657,369377
1187.99,0.102737,473969,374122
1191.52,0.103521,479856,378085
1195.06,0.102807,487372,384639
1199.76,0.102320,497347,392952
1203.29,0.101535,504311,399175
1206.81,0.101090,511507,405286
1210.33,0.100709,519078,411646
1213.84,0.100246,527163,418503
1217.35,0.099026,534208,425289
1220.85,0.098696,540472,430603
1225.51,0.097940,549929,438901
1229.01,0.097764,556888,444635
1232.5,0.097006,562180,449645
1235.98,0.096485,567975,454825
1239.46,0.095225,574815,461640
1242.94,0.094632,582782,468677
1246.41,0.094123,591476,476227
1251.03,0.093939,604016,486530
1254.5,0.094008,612289,493115
1257.96,0.094614,619125,497925
1261.41,0.095234,624551,501573
1264.86,0.095575,629900,505471
1268.31,0.095787,634345,508790
1271.75,0.096527,638574,511310
1276.33,0.096654,642499,514302
1279.76,0.096532,645905,517174
1283.19,0.095955,648307,519787
1286.61,0.096067,650446,521368
1290.03,0.095420,652132,523499
1293.44,0.095225,653907,525159
1296.85,0.094798,655963,527329
1301.39,0.094561,657349,528731
1304.8,0.094704,657558,528725
1308.19,0.094908,658515,529246
1311.58,0.094455,658804,530031
1314.97,0.095325,659011,529137
1318.36,0.095693,658272,528096
1321.73,0.096181,658022,527302
1326.23,0.097195,657870,525951
1329.6,0.097960,656482,523918
1332.97,0.098768,654926,521704
1336.33,0.099970,653727,519310
1339.69,0.101694,652497,516279
1343.04,0.103054,649913,512627
1346.39,0.104869,647671,508728
1349.73,0.107398,645338,503952
1354.18,0.109778,641175,497965
1357.52,0.111890,638376,493386
1360.85,0.113672,635805,489387
1364.17,0.115937,633413,485009
1367.49,0.118025,631026,480864
1370.81,0.120112,628050,476302
1374.12,0.122359,625034,471568
1378.54,0.125556,620272,464543
1381.84,0.128163,616892,459247
1385.14,0.131820,613613,452975
1388.43,0.136141,611526,446965
1391.72,0.140184,610663,442199
1395.01,0.144997,610634,437305
1398.29,0.149180,611700,433869
1402.66,0.156260,614051,428494
1405.93,0.161746,616268,424643
1409.2,0.166697,617795,420869
1412.46,0.171145,618872,417307
1415.72,0.175212,619795,414034
1418.98,0.179554,620495,410378
1422.23,0.182867,621087,407648
1426.56,0.186413,621375,404521
1429.8,0.189289,621616,402007
1433.04,0.191909,622129,399918
1436.27,0.194070,621526,397548
1439.5,0.196041,621113,395485
1442.72,0.198415,620921,393207
1445.94,0.200996,620270,390467
1450.23,0.204071,618860,386831
1453.44,0.206701,617697,383773
1456.64,0.209551,616264,380378
1459.85,0.211691,614413,377372
1463.04,0.214675,612307,373503
1466.24,0.218260,610032,369056
1469.43,0.221306,607345,364863
1473.67,0.227765,603789,357372
1476.85,0.231950,601175,352412
1480.02,0.238193,597737,345396
1483.19,0.243682,594479,339199
1486.36,0.249080,591232,333179
1489.52,0.254864,587853,326892
1492.68,0.257304,583875,322861
1496.89,0.259509,578062,318028
1500.03,0.259584,574159,315826
1503.18,0.259913,570285,313458
1506.32,0.259305,565444,311232
1509.45,0.257699,560571,309693
1512.58,0.255877,555821,308360
1515.71,0.253916,550344,306703
1519.87,0.251426,543983,304901
1522.99,0.248641,538764,303919
1526.1,0.245990,533692,302901
1529.21,0.243067,527902,301638
1532.32,0.240566,521886,299923
1535.42,0.237310,515888,298707
1538.51,0.234621,509987,297124
1541.6,0.232040,503936,295349
1545.72,0.228450,494694,292339
1548.8,0.224603,488378,291174
1551.88,0.222586,481832,288609
1554.95,0.220372,474989,285964
1558.02,0.218831,467818,282648
1561.08,0.218208,460730,278765
1564.15,0.217084,454170,275508
1568.22,0.216495,444181,269814
1571.27,0.215884,436947,265794
1574.32,0.214769,429598,261995
1577.36,0.213889,422039,257907
1580.4,0.211673,414375,254519
1583.43,0.210095,406354,250501
1586.46,0.209717,398475,245858
1590.49,0.207759,388982,241085
1593.51,0.205358,380708,237265
1596.53,0.202972,372727,233571
1599.54,0.201262,365060,229669
1602.55,0.199716,357543,225742
1605.55,0.197031,349495,222029
1608.55,0.195953,341154,217269
1612.54,0.194463,330877,211448
1615.53,0.191351,322904,207837
1618.51,0.190517,315116,203214
1621.49,0.189534,307217,198569
1624.47,0.188055,299481,194229
1627.44,0.187761,292112,189578
1630.41,0.186944,284245,184820
1634.36,0.183976,274079,179432
1637.32,0.184174,266916,174663
1640.27,0.183871,259612,170002
1643.22,0.182574,251804,165382
1646.16,0.182012,244348,160693
1649.1,0.182535,236703,155478
1652.04,0.179928,228171,150776
1655.95,0.177458,215408,143154
1658.88,0.172251,204937,137838
1661.8,0.167678,193395,131452
1664.72,0.160774,179728,124120
1667.63,0.147233,163642,116590
1670.54,0.132593,146312,107817
1673.44,0.118887,128451,97690
1677.31,0.100948,105080,83286
1680.21,0.088695,88906,72483
1683.1,0.086455,75033,61489
1685.99,0.083670,63520,52389
1688.87,0.086467,53714,44017
1691.75,0.094236,45653,36748
1694.62,0.097571,39137,31262
1697.49,0.098953,33776,26894
1701.31,0.101325,28175,22312