Folder: textile_sorting_NIRSCAN_/samples/wool/wool-000811 (part 149)

File: Column 1_050613_20150331_122957.csv
Method:,Column 1,,
Host Date-Time:,31/3/15 @ 12:29:57,,
Header Version:,1,,
System Temp (C):,34.08,,
Detector Temp (C):,34.95,,
Humidity (%):,1.66,,
Lamp PD:,3818,,
Shift Vector Coefficients:,-10.5391,0.0761263,-0.000134223,,
Pixel to Wavelength Coefficients:,1775.68,-0.916766,-0.000235065,,
Serial Number:,5510004,,
Scan Config Name:,Column 1,,
Scan Config Type:,Slew,,
Section 1,,
Start wavelength (nm):,900,,
End wavelength (nm):,1700,,
Pattern Pixel Width (nm):,   7.03,,,,
Exposure (ms):,  0.635,,,,
Digital Resolution:,228,,
Num Repeats:,6,,
PGA Gain:,64,,
Total Measurement Time in sec:,  2.667,,
Wavelength (nm),Absorbance (AU),Reference Signal (unitless),Sample Signal (unitless)
901.51,0.069190,108485,92508
905.376,0.075469,121306,101956
909.237,0.076535,131909,110596
913.095,0.078040,143299,119730
916.948,0.078091,156982,131147
922.079,0.080843,179937,149375
925.923,0.080928,200504,166416
929.762,0.082270,222660,184235
933.597,0.082652,244426,202067
937.427,0.080828,263972,219144
941.254,0.080474,281845,234173
945.076,0.078895,297271,247889
950.165,0.077826,315605,263826
953.978,0.077228,328029,274590
957.786,0.077697,340470,284696
961.59,0.077548,352317,294704
965.389,0.077386,363056,303800
969.185,0.077593,373162,312108
972.976,0.077520,382632,320082
976.763,0.078796,391202,326291
981.806,0.078446,400190,334057
985.583,0.079327,406088,338293
989.355,0.079589,410162,341481
993.124,0.080731,412868,342831
996.888,0.080868,414263,343881
1000.65,0.081411,415476,344457
1004.4,0.082443,415479,343642
1009.41,0.083545,414358,341846
1013.15,0.084229,412923,340126
1016.89,0.084671,411526,338631
1020.63,0.084728,409066,336562
1024.36,0.085106,406777,334388
1028.09,0.084135,404427,333200
1031.82,0.084122,401911,331137
1036.78,0.084123,398410,328252
1040.49,0.083550,396204,326865
1044.2,0.083236,394236,325477
1047.91,0.083010,392042,323834
1051.61,0.083369,389823,321735
1055.31,0.082976,388234,320714
1059,0.081982,387599,320923
1063.92,0.080976,386688,320911
1067.61,0.080772,386598,320987
1071.29,0.080298,387377,321985
1074.96,0.079189,388536,323774
1078.63,0.079073,389855,324960
1082.3,0.078094,391215,326830
1085.96,0.078003,393215,328569
1090.84,0.076487,396270,332280
1094.49,0.076417,398760,334422
1098.14,0.075771,400987,336790
1101.79,0.075080,403477,339421
1105.43,0.074550,406116,342058
1109.06,0.073219,407701,344447
1112.7,0.073841,409859,345775
1117.53,0.073278,412494,348449
1121.15,0.073959,414909,349940
1124.77,0.073945,416559,351343
1128.38,0.074921,418532,352215
1131.99,0.075440,419956,352991
1135.6,0.076977,421946,353411
1139.2,0.078254,423881,353989
1143.99,0.081050,426786,354128
1147.58,0.082065,428617,354817
1151.17,0.082542,431169,356538
1154.75,0.082860,433579,358268
1158.33,0.084714,436264,358951
1161.91,0.086495,439132,359832
1165.48,0.088499,442389,360832
1169.04,0.090538,446101,362156
1173.79,0.093863,451929,364089
1177.34,0.095531,456026,365981
1180.9,0.098231,461306,367924
1184.44,0.100274,467657,371239
1187.99,0.101096,473969,375538
1191.52,0.101348,479856,379982
1195.06,0.100853,487372,386374
1199.76,0.100232,497347,394846
1203.29,0.099393,504311,401149
1206.81,0.099616,511507,406664
1210.33,0.098399,519078,413841
1213.84,0.097680,527163,420983
1217.35,0.097615,534208,426673
1220.85,0.096754,540472,432533
1225.51,0.095708,549929,441163
1229.01,0.095188,556888,447280
1232.5,0.096130,562180,450553
1235.98,0.094254,567975,457167
1239.46,0.093020,574815,463989
1242.94,0.092044,582782,471479
1246.41,0.092034,591476,478523
1251.03,0.091574,604016,489186
1254.5,0.091425,612289,496057
1257.96,0.092510,619125,500344
1261.41,0.092594,624551,504631
1264.86,0.092995,629900,508483
1268.31,0.093924,634345,510977
1271.75,0.094638,638574,513539
1276.33,0.094902,642499,516381
1279.76,0.094535,645905,519558
1283.19,0.093771,648307,522408
1286.61,0.093549,650446,524400
1290.03,0.093047,652132,526367
1293.44,0.092633,653907,528303
1296.85,0.092413,655963,530233
1301.39,0.092151,657349,531673
1304.8,0.091956,657558,532081
1308.19,0.091766,658515,533089
1311.58,0.091917,658804,533137
1314.97,0.092748,659011,532286
1318.36,0.093259,658272,531063
1321.73,0.093318,658022,530789
1326.23,0.094320,657870,529444
1329.6,0.094738,656482,527819
1332.97,0.095577,654926,525551
1336.33,0.096345,653727,523663
1339.69,0.098366,652497,520251
1343.04,0.099400,649913,516958
1346.39,0.101621,647671,512547
1349.73,0.103288,645338,508744
1354.18,0.106319,641175,501947
1357.52,0.108244,638376,497545
1360.85,0.110351,635805,493143
1364.17,0.111972,633413,489458
1367.49,0.114529,631026,484751
1370.81,0.116627,628050,480139
1374.12,0.118778,625034,475473
1378.54,0.121484,620272,468919
1381.84,0.124346,616892,463301
1385.14,0.127658,613613,457337
1388.43,0.131322,611526,451953
1391.72,0.135127,610663,447378
1395.01,0.139251,610634,443129
1398.29,0.143581,611700,439499
1402.66,0.149739,614051,434976
1405.93,0.153922,616268,432362
1409.2,0.158839,617795,428554
1412.46,0.163358,618872,424857
1415.72,0.166768,619795,422163
1418.98,0.170364,620495,419155
1422.23,0.173772,621087,416275
1426.56,0.177470,621375,412937
1429.8,0.180150,621616,410556
1433.04,0.182731,622129,408460
1436.27,0.184799,621526,406126
1439.5,0.186981,621113,403822
1442.72,0.189189,620921,401650
1445.94,0.191157,620270,399414
1450.23,0.194759,618860,395215
1453.44,0.198563,617697,391032
1456.64,0.200801,616264,388120
1459.85,0.203626,614413,384445
1463.04,0.206577,612307,380533
1466.24,0.209674,610032,376425
1469.43,0.213659,607345,371344
1473.67,0.220025,603789,363798
1476.85,0.225620,601175,357586
1480.02,0.232090,597737,350284
1483.19,0.238202,594479,343506
1486.36,0.244484,591232,336724
1489.52,0.248817,587853,331476
1492.68,0.252116,583875,326741
1496.89,0.254521,578062,321702
1500.03,0.255717,574159,318651
1503.18,0.255539,570285,316631
1506.32,0.255141,565444,314231
1509.45,0.253104,560571,312987
1512.58,0.252135,555821,311028
1515.71,0.248882,550344,310279
1519.87,0.245790,543983,308884
1522.99,0.243525,538764,307520
1526.1,0.241029,533692,306381
1529.21,0.238493,527902,304832
1532.32,0.235786,521886,303242
1535.42,0.232274,515888,302191
1538.51,0.229476,509987,300665
1541.6,0.226558,503936,299101
1545.72,0.221939,494694,296755
1548.8,0.219954,488378,294308
1551.88,0.217827,481832,291789
1554.95,0.215355,474989,289287
1558.02,0.214338,467818,285587
1561.08,0.212914,460730,282184
1564.15,0.211782,454170,278892
1568.22,0.211202,444181,273123
1571.27,0.210927,436947,268845
1574.32,0.210077,429598,264841
1577.36,0.208740,422039,260983
1580.4,0.207579,414375,256930
1583.43,0.205556,406354,253133
1586.46,0.204027,398475,249100
1590.49,0.202243,388982,244167
1593.51,0.201089,380708,239609
1596.53,0.198945,372727,235747
1599.54,0.197286,365060,231781
1602.55,0.195289,357543,228055
1605.55,0.192916,349495,224143
1608.55,0.191205,341154,219657
1612.54,0.189458,330877,213899
1615.53,0.187469,322904,209703
1618.51,0.186482,315116,205111
1621.49,0.185855,307217,200258
1624.47,0.183389,299481,196327
1627.44,0.184105,292112,191181
1630.41,0.183538,284245,186275
1634.36,0.181427,274079,180488
1637.32,0.181242,266916,175846
1640.27,0.179757,259612,171620
1643.22,0.179268,251804,166646
1646.16,0.178084,244348,162153
1649.1,0.177047,236703,157455
1652.04,0.176143,228171,152096
1655.95,0.172418,215408,144825
1658.88,0.169253,204937,138793
1661.8,0.163640,193395,132680
1664.72,0.155422,179728,125659
1667.63,0.143809,163642,117513
1670.54,0.129966,146312,108471
1673.44,0.112528,128451,99131
1677.31,0.093508,105080,84725
1680.21,0.081487,88906,73696
1683.1,0.073417,75033,63363
1685.99,0.073859,63520,53586
1688.87,0.079100,53714,44770
1691.75,0.079743,45653,37995
1694.62,0.089192,39137,31871
1697.49,0.094630,33776,27163
1701.31,0.100703,28175,22344

File: Column 1_050614_20150331_123003.csv
Method:,Column 1,,
Host Date-Time:,31/3/15 @ 12:30:3,,
Header Version:,1,,
System Temp (C):,34.07,,
Detector Temp (C):,34.95,,
Humidity (%):,1.66,,
Lamp PD:,3818,,
Shift Vector Coefficients:,-10.5391,0.0761263,-0.000134223,,
Pixel to Wavelength Coefficients:,1775.68,-0.916766,-0.000235065,,
Serial Number:,5510004,,
Scan Config Name:,Column 1,,
Scan Config Type:,Slew,,
Section 1,,
Start wavelength (nm):,900,,
End wavelength (nm):,1700,,
Pattern Pixel Width (nm):,   7.03,,,,
Exposure (ms):,  0.635,,,,
Digital Resolution:,228,,
Num Repeats:,6,,
PGA Gain:,64,,
Total Measurement Time in sec:,  2.666,,
Wavelength (nm),Absorbance (AU),Reference Signal (unitless),Sample Signal (unitless)
901.51,0.070342,108485,92263
905.376,0.074457,121306,102194
909.237,0.077419,131909,110371
913.095,0.077917,143299,119764
916.948,0.079239,156982,130801
922.079,0.080505,179937,149491
925.923,0.081981,200504,166013
929.762,0.082430,222660,184167
933.597,0.082431,244426,202170
937.427,0.081247,263972,218933
941.254,0.080975,281845,233903
945.076,0.079418,297271,247591
950.165,0.078306,315605,263535
953.978,0.076894,328029,274801
957.786,0.077335,340470,284934
961.59,0.078077,352317,294345
965.389,0.078416,363056,303080
969.185,0.077910,373162,311880
972.976,0.078486,382632,319371
976.763,0.078648,391202,326402
981.806,0.079202,400190,333476
985.583,0.079479,406088,338175
989.355,0.080036,410162,341130
993.124,0.080656,412868,342890
996.888,0.080639,414263,344062
1000.65,0.081709,415476,344221
1004.4,0.083447,415479,342848
1009.41,0.083975,414358,341508
1013.15,0.084633,412923,339810
1016.89,0.085479,411526,338001
1020.63,0.085378,409066,336059
1024.36,0.085145,406777,334358
1028.09,0.084697,404427,332769
1031.82,0.084352,401911,330962
1036.78,0.083735,398410,328545
1040.49,0.083885,396204,326613
1044.2,0.083916,394236,324968
1047.91,0.083497,392042,323471
1051.61,0.083372,389823,321733
1055.31,0.082996,388234,320699
1059,0.082712,387599,320384
1063.92,0.081984,386688,320167
1067.61,0.080595,386598,321118
1071.29,0.080703,387377,321685
1074.96,0.080312,388536,322938
1078.63,0.079526,389855,324621
1082.3,0.078013,391215,326891
1085.96,0.077540,393215,328920
1090.84,0.076951,396270,331925
1094.49,0.076491,398760,334365
1098.14,0.075749,400987,336807
1101.79,0.074776,403477,339659
1105.43,0.074953,406116,341741
1109.06,0.074145,407701,343714
1112.7,0.073750,409859,345847
1117.53,0.073971,412494,347894
1121.15,0.074299,414909,349666
1124.77,0.074764,416559,350681
1128.38,0.074794,418532,352318
1131.99,0.076321,419956,352276
1135.6,0.077331,421946,353123
1139.2,0.078691,423881,353633
1143.99,0.081217,426786,353992
1147.58,0.081493,428617,355285
1151.17,0.082785,431169,356338
1154.75,0.083806,433579,357489
1158.33,0.084318,436264,359279
1161.91,0.086149,439132,360119
1165.48,0.088645,442389,360711
1169.04,0.090962,446101,361802
1173.79,0.093885,451929,364070
1177.34,0.096203,456026,365415
1180.9,0.098393,461306,367787
1184.44,0.100397,467657,371134
1187.99,0.101164,473969,375479
1191.52,0.101270,479856,380050
1195.06,0.101388,487372,385898
1199.76,0.101353,497347,393828
1203.29,0.099961,504311,400624
1206.81,0.099382,511507,406883
1210.33,0.098466,519078,413777
1213.84,0.098140,527163,420538
1217.35,0.097707,534208,426583
1220.85,0.097008,540472,432280
1225.51,0.095823,549929,441046
1229.01,0.095345,556888,447119
1232.5,0.095245,562180,451472
1235.98,0.094666,567975,456734
1239.46,0.093179,574815,463820
1242.94,0.092444,582782,471045
1246.41,0.091918,591476,478651
1251.03,0.091500,604016,489270
1254.5,0.091856,612289,495565
1257.96,0.092009,619125,500921
1261.41,0.092758,624551,504440
1264.86,0.093112,629900,508346
1268.31,0.094965,634345,509754
1271.75,0.094710,638574,513454
1276.33,0.094284,642499,517116
1279.76,0.094383,645905,519739
1283.19,0.093929,648307,522218
1286.61,0.093739,650446,524170
1290.03,0.093169,652132,526219
1293.44,0.092703,653907,528218
1296.85,0.092549,655963,530066
1301.39,0.092103,657349,531732
1304.8,0.092571,657558,531328
1308.19,0.092244,658515,532503
1311.58,0.092756,658804,532109
1314.97,0.093227,659011,531699
1318.36,0.093426,658272,530859
1321.73,0.093372,658022,530724
1326.23,0.094393,657870,529355
1329.6,0.095101,656482,527378
1332.97,0.095789,654926,525295
1336.33,0.096716,653727,523215
1339.69,0.098365,652497,520252
1343.04,0.099709,649913,516590
1346.39,0.101830,647671,512300
1349.73,0.103484,645338,508514
1354.18,0.106654,641175,501560
1357.52,0.108669,638376,497059
1360.85,0.110432,635805,493051
1364.17,0.112253,633413,489141
1367.49,0.115002,631026,484223
1370.81,0.116398,628050,480392
1374.12,0.118706,625034,475552
1378.54,0.122249,620272,468094
1381.84,0.124568,616892,463064
1385.14,0.127790,613613,457198
1388.43,0.131344,611526,451930
1391.72,0.135011,610663,447498
1395.01,0.139423,610634,442953
1398.29,0.143693,611700,439385
1402.66,0.149543,614051,435172
1405.93,0.154160,616268,432125
1409.2,0.159381,617795,428019
1412.46,0.163047,618872,425161
1415.72,0.167692,619795,421266
1418.98,0.170726,620495,418805
1422.23,0.174072,621087,415988
1426.56,0.177798,621375,412625
1429.8,0.179918,621616,410775
1433.04,0.182671,622129,408516
1436.27,0.184649,621526,406266
1439.5,0.186734,621113,404051
1442.72,0.189602,620921,401268
1445.94,0.191796,620270,398827
1450.23,0.195939,618860,394143
1453.44,0.197972,617697,391565
1456.64,0.200856,616264,388071
1459.85,0.202948,614413,385046
1463.04,0.206523,612307,380580
1466.24,0.210523,610032,375690
1469.43,0.214394,607345,370716
1473.67,0.220340,603789,363534
1476.85,0.226188,601175,357119
1480.02,0.232121,597737,350259
1483.19,0.238994,594479,342880
1486.36,0.244033,591232,337074
1489.52,0.249129,587853,331238
1492.68,0.253108,583875,325996
1496.89,0.254344,578062,321833
1500.03,0.254688,574159,319407
1503.18,0.254556,570285,317348
1506.32,0.254380,565444,314782
1509.45,0.253562,560571,312657
1512.58,0.251700,555821,311340
1515.71,0.248981,550344,310208
1519.87,0.245843,543983,308846
1522.99,0.243098,538764,307823
1526.1,0.241274,533692,306208
1529.21,0.238340,527902,304939
1532.32,0.235302,521886,303580
1535.42,0.232856,515888,301786
1538.51,0.229375,509987,300735
1541.6,0.227117,503936,298716
1545.72,0.222765,494694,296191
1548.8,0.220167,488378,294164
1551.88,0.217665,481832,291898
1554.95,0.215919,474989,288911
1558.02,0.214544,467818,285452
1561.08,0.214021,460730,281466
1564.15,0.212019,454170,278740
1568.22,0.211178,444181,273138
1571.27,0.211117,436947,268727
1574.32,0.210661,429598,264485
1577.36,0.209012,422039,260820
1580.4,0.207831,414375,256781
1583.43,0.206834,406354,252389
1586.46,0.205047,398475,248516
1590.49,0.203149,388982,243658
1593.51,0.200991,380708,239663
1596.53,0.198486,372727,235996
1599.54,0.196655,365060,232118
1602.55,0.194168,357543,228644
1605.55,0.193373,349495,223907
1608.55,0.191103,341154,219709
1612.54,0.189373,330877,213941
1615.53,0.187282,322904,209793
1618.51,0.186378,315116,205160
1621.49,0.185853,307217,200259
1624.47,0.184297,299481,195917
1627.44,0.184832,292112,190861
1630.41,0.183482,284245,186299
1634.36,0.181557,274079,180434
1637.32,0.181050,266916,175924
1640.27,0.180086,259612,171490
1643.22,0.179080,251804,166718
1646.16,0.177450,244348,162390
1649.1,0.177958,236703,157125
1652.04,0.176574,228171,151945
1655.95,0.172463,215408,144810
1658.88,0.170334,204937,138448
1661.8,0.165033,193395,132255
1664.72,0.156155,179728,125447
1667.63,0.144079,163642,117440
1670.54,0.127778,146312,109019
1673.44,0.114412,128451,98702
1677.31,0.094674,105080,84498
1680.21,0.082224,88906,73571
1683.1,0.076029,75033,62983
1685.99,0.074167,63520,53548
1688.87,0.078286,53714,44854
1691.75,0.084651,45653,37568
1694.62,0.090981,39137,31740
1697.49,0.096457,33776,27049
1701.31,0.104275,28175,22161

File: Column 1_050614_20150331_123006.csv
Method:,Column 1,,
Host Date-Time:,31/3/15 @ 12:30:6,,
Header Version:,1,,
System Temp (C):,34.09,,
Detector Temp (C):,34.98,,
Humidity (%):,1.66,,
Lamp PD:,3818,,
Shift Vector Coefficients:,-10.5391,0.0761263,-0.000134223,,
Pixel to Wavelength Coefficients:,1775.68,-0.916766,-0.000235065,,
Serial Number:,5510004,,
Scan Config Name:,Column 1,,
Scan Config Type:,Slew,,
Section 1,,
Start wavelength (nm):,900,,
End wavelength (nm):,1700,,
Pattern Pixel Width (nm):,   7.03,,,,
Exposure (ms):,  0.635,,,,
Digital Resolution:,228,,
Num Repeats:,6,,
PGA Gain:,64,,
Total Measurement Time in sec:,  2.666,,
Wavelength (nm),Absorbance (AU),Reference Signal (unitless),Sample Signal (unitless)
901.51,0.069195,108485,92507
905.376,0.073727,121306,102366
909.237,0.077022,131909,110472
913.095,0.079606,143299,119299
916.948,0.078221,156982,131108
922.079,0.080285,179937,149567
925.923,0.082570,200504,165788
929.762,0.083134,222660,183869
933.597,0.082467,244426,202153
937.427,0.081098,263972,219008
941.254,0.080412,281845,234206
945.076,0.079932,297271,247298
950.165,0.078683,315605,263306
953.978,0.077248,328029,274577
957.786,0.077377,340470,284906
961.59,0.077592,352317,294674
965.389,0.077546,363056,303688
969.185,0.077904,373162,311884
972.976,0.078183,382632,319594
976.763,0.078821,391202,326272
981.806,0.079247,400190,333441
985.583,0.079499,406088,338159
989.355,0.080013,410162,341148
993.124,0.080807,412868,342771
996.888,0.080655,414263,344050
1000.65,0.081936,415476,344041
1004.4,0.082909,415479,343273
1009.41,0.083751,414358,341684
1013.15,0.084370,412923,340016
1016.89,0.084898,411526,338454
1020.63,0.084745,409066,336549
1024.36,0.084908,406777,334540
1028.09,0.084552,404427,332880
1031.82,0.084180,401911,331093
1036.78,0.084139,398410,328240
1040.49,0.083755,396204,326711
1044.2,0.084194,394236,324760
1047.91,0.083250,392042,323655
1051.61,0.083142,389823,321903
1055.31,0.083079,388234,320638
1059,0.081863,387599,321011
1063.92,0.081859,386688,320259
1067.61,0.080851,386598,320929
1071.29,0.080119,387377,322118
1074.96,0.079991,388536,323177
1078.63,0.078802,389855,325163
1082.3,0.078256,391215,326708
1085.96,0.077517,393215,328937
1090.84,0.076603,396270,332191
1094.49,0.076078,398760,334683
1098.14,0.075705,400987,336841
1101.79,0.074420,403477,339937
1105.43,0.075015,406116,341692
1109.06,0.074109,407701,343742
1112.7,0.074056,409859,345604
1117.53,0.073029,412494,348649
1121.15,0.073766,414909,350096
1124.77,0.074428,416559,350953
1128.38,0.074890,418532,352240
1131.99,0.075982,419956,352551
1135.6,0.077737,421946,352793
1139.2,0.078535,423881,353760
1143.99,0.080811,426786,354323
1147.58,0.082121,428617,354771
1151.17,0.083204,431169,355995
1154.75,0.083196,433579,357991
1158.33,0.084504,436264,359125
1161.91,0.086452,439132,359868
1165.48,0.088593,442389,360754
1169.04,0.089969,446101,362630
1173.79,0.093915,451929,364045
1177.34,0.096132,456026,365475
1180.9,0.098335,461306,367836
1184.44,0.100033,467657,371445
1187.99,0.101273,473969,375385
1191.52,0.100951,479856,380329
1195.06,0.100991,487372,386251
1199.76,0.100357,497347,394732
1203.29,0.099561,504311,400994
1206.81,0.099105,511507,407143
1210.33,0.098345,519078,413893
1213.84,0.098303,527163,420380
1217.35,0.097710,534208,426580
1220.85,0.096280,540472,433005
1225.51,0.096139,549929,440725
1229.01,0.095320,556888,447144
1232.5,0.094508,562180,452238
1235.98,0.093783,567975,457663
1239.46,0.093331,574815,463657
1242.94,0.092499,582782,470985
1246.41,0.091920,591476,478649
1251.03,0.091889,604016,488832
1254.5,0.091858,612289,495563
1257.96,0.092377,619125,500497
1261.41,0.092756,624551,504443
1264.86,0.093264,629900,508168
1268.31,0.093411,634345,511581
1271.75,0.094453,638574,513758
1276.33,0.094304,642499,517093
1279.76,0.094301,645905,519838
1283.19,0.094231,648307,521855
1286.61,0.093977,650446,523883
1290.03,0.093219,652132,526158
1293.44,0.092567,653907,528383
1296.85,0.092346,655963,530314
1301.39,0.092222,657349,531586
1304.8,0.091978,657558,532055
1308.19,0.092189,658515,532570
1311.58,0.092584,658804,532319
1314.97,0.092979,659011,532003
1318.36,0.093225,658272,531105
1321.73,0.093631,658022,530407
1326.23,0.094317,657870,529448
1329.6,0.095091,656482,527390
1332.97,0.095534,654926,525604
1336.33,0.096703,653727,523231
1339.69,0.098114,652497,520553
1343.04,0.099565,649913,516762
1346.39,0.101388,647671,512822
1349.73,0.103876,645338,508056
1354.18,0.106514,641175,501721
1357.52,0.108146,638376,497657
1360.85,0.110585,635805,492878
1364.17,0.112468,633413,488899
1367.49,0.114407,631026,484887
1370.81,0.116877,628050,479863
1374.12,0.118635,625034,475629
1378.54,0.121679,620272,468709
1381.84,0.124734,616892,462887
1385.14,0.127785,613613,457204
1388.43,0.131316,611526,451959
1391.72,0.134728,610663,447789
1395.01,0.138753,610634,443637
1398.29,0.143703,611700,439375
1402.66,0.149739,614051,434976
1405.93,0.154823,616268,431466
1409.2,0.158864,617795,428529
1412.46,0.162927,618872,425279
1415.72,0.166865,619795,422069
1418.98,0.170489,620495,419034
1422.23,0.173584,621087,416455
1426.56,0.177439,621375,412966
1429.8,0.179994,621616,410703
1433.04,0.182524,622129,408655
1436.27,0.184524,621526,406383
1439.5,0.187169,621113,403647
1442.72,0.189605,620921,401265
1445.94,0.191716,620270,398901
1450.23,0.194926,618860,395063
1453.44,0.197984,617697,391554
1456.64,0.200546,616264,388348
1459.85,0.203394,614413,384651
1463.04,0.205820,612307,381197
1466.24,0.209478,610032,376595
1469.43,0.214090,607345,370976
1473.67,0.220154,603789,363690
1476.85,0.225899,601175,357357
1480.02,0.231804,597737,350515
1483.19,0.238678,594479,343130
1486.36,0.244704,591232,336553
1489.52,0.249743,587853,330770
1492.68,0.252869,583875,326175
1496.89,0.254702,578062,321568
1500.03,0.255202,574159,319029
1503.18,0.255299,570285,316806
1506.32,0.254216,565444,314901
1509.45,0.252784,560571,313218
1512.58,0.251611,555821,311404
1515.71,0.249273,550344,310000
1519.87,0.246022,543983,308719
1522.99,0.243544,538764,307507
1526.1,0.241260,533692,306218
1529.21,0.238484,527902,304838
1532.32,0.235383,521886,303524
1535.42,0.232625,515888,301947
1538.51,0.229999,509987,300303
1541.6,0.227674,503936,298333
1545.72,0.221820,494694,296836
1548.8,0.219733,488378,294458
1551.88,0.217349,481832,292110
1554.95,0.215373,474989,289275
1558.02,0.214862,467818,285243
1561.08,0.212733,460730,282302
1564.15,0.212286,454170,278569
1568.22,0.211299,444181,273062
1571.27,0.210431,436947,269152
1574.32,0.210248,429598,264737
1577.36,0.209005,422039,260824
1580.4,0.208618,414375,256316
1583.43,0.206237,406354,252736
1586.46,0.204427,398475,248871
1590.49,0.202889,388982,243804
1593.51,0.201203,380708,239546
1596.53,0.199120,372727,235652
1599.54,0.196663,365060,232114
1602.55,0.194701,357543,228364
1605.55,0.193129,349495,224033
1608.55,0.191225,341154,219647
1612.54,0.190641,330877,213317
1615.53,0.187802,322904,209542
1618.51,0.186564,315116,205072
1621.49,0.185370,307217,200482
1624.47,0.184326,299481,195904
1627.44,0.183353,292112,191512
1630.41,0.181884,284245,186986
1634.36,0.181825,274079,180323
1637.32,0.180029,266916,176338
1640.27,0.180593,259612,171290
1643.22,0.178874,251804,166797
1646.16,0.178164,244348,162123
1649.1,0.177243,236703,157384
1652.04,0.176300,228171,152041
1655.95,0.173556,215408,144446
1658.88,0.169939,204937,138574
1661.8,0.164958,193395,132278
1664.72,0.156918,179728,125227
1667.63,0.144571,163642,117307
1670.54,0.128200,146312,108913
1673.44,0.112327,128451,99177
1677.31,0.094581,105080,84516
1680.21,0.080057,88906,73939
1683.1,0.079331,75033,62506
1685.99,0.080762,63520,52741
1688.87,0.078306,53714,44852
1691.75,0.082806,45653,37728
1694.62,0.091816,39137,31679
1697.49,0.094151,33776,27193
1701.31,0.103218,28175,22215