Folder: textile_sorting_NIRSCAN_/samples/wool/wool-000811 (part 112)

File: Column 1_050593_20150331_122016.csv
Method:,Column 1,,
Host Date-Time:,31/3/15 @ 12:20:16,,
Header Version:,1,,
System Temp (C):,33.93,,
Detector Temp (C):,34.64,,
Humidity (%):,1.76,,
Lamp PD:,3818,,
Shift Vector Coefficients:,-10.5391,0.0761263,-0.000134223,,
Pixel to Wavelength Coefficients:,1775.68,-0.916766,-0.000235065,,
Serial Number:,5510004,,
Scan Config Name:,Column 1,,
Scan Config Type:,Slew,,
Section 1,,
Start wavelength (nm):,900,,
End wavelength (nm):,1700,,
Pattern Pixel Width (nm):,   7.03,,,,
Exposure (ms):,  0.635,,,,
Digital Resolution:,228,,
Num Repeats:,6,,
PGA Gain:,64,,
Total Measurement Time in sec:,  2.679,,
Wavelength (nm),Absorbance (AU),Reference Signal (unitless),Sample Signal (unitless)
901.51,0.068178,108485,92724
905.376,0.074461,121306,102193
909.237,0.074803,131909,111038
913.095,0.077877,143299,119775
916.948,0.077724,156982,131258
922.079,0.079794,179937,149736
925.923,0.081704,200504,166119
929.762,0.082647,222660,184075
933.597,0.082467,244426,202153
937.427,0.080943,263972,219086
941.254,0.080457,281845,234182
945.076,0.078881,297271,247897
950.165,0.079520,315605,262799
953.978,0.077367,328029,274502
957.786,0.078626,340470,284088
961.59,0.078329,352317,294174
965.389,0.078054,363056,303333
969.185,0.078112,373162,311735
972.976,0.078332,382632,319484
976.763,0.079001,391202,326137
981.806,0.079647,400190,333134
985.583,0.080936,406088,337042
989.355,0.080680,410162,340624
993.124,0.081252,412868,342420
996.888,0.081692,414263,343229
1000.65,0.082392,415476,343680
1004.4,0.083582,415479,342742
1009.41,0.085211,414358,340537
1013.15,0.085924,412923,338801
1016.89,0.085586,411526,337918
1020.63,0.085574,409066,335907
1024.36,0.085715,406777,333919
1028.09,0.085812,404427,331916
1031.82,0.085291,401911,330247
1036.78,0.084621,398410,327876
1040.49,0.085082,396204,325714
1044.2,0.085229,394236,323987
1047.91,0.084347,392042,322839
1051.61,0.083743,389823,321458
1055.31,0.084087,388234,319894
1059,0.083311,387599,319942
1063.92,0.082372,386688,319881
1067.61,0.081472,386598,320470
1071.29,0.081702,387377,320946
1074.96,0.080763,388536,322603
1078.63,0.079909,389855,324335
1082.3,0.078987,391215,326158
1085.96,0.078967,393215,327841
1090.84,0.076975,396270,331907
1094.49,0.077612,398760,333503
1098.14,0.076496,400987,336228
1101.79,0.076186,403477,338558
1105.43,0.075894,406116,341001
1109.06,0.075012,407701,343028
1112.7,0.074813,409859,345002
1117.53,0.073806,412494,348026
1121.15,0.075359,414909,348814
1124.77,0.075313,416559,350238
1128.38,0.076358,418532,351051
1131.99,0.076840,419956,351855
1135.6,0.078915,421946,351837
1139.2,0.080119,423881,352472
1143.99,0.082155,426786,353228
1147.58,0.082734,428617,354271
1151.17,0.083693,431169,355594
1154.75,0.084715,433579,356741
1158.33,0.085939,436264,357940
1161.91,0.087844,439132,358716
1165.48,0.090045,442389,359550
1169.04,0.092587,446101,360451
1173.79,0.095531,451929,362693
1177.34,0.097322,456026,364475
1180.9,0.099857,461306,366549
1184.44,0.101619,467657,370091
1187.99,0.102484,473969,374340
1191.52,0.102243,479856,379200
1195.06,0.102425,487372,384978
1199.76,0.101483,497347,393710
1203.29,0.100998,504311,399669
1206.81,0.100623,511507,405722
1210.33,0.100186,519078,412142
1213.84,0.099562,527163,419163
1217.35,0.098881,534208,425431
1220.85,0.098098,540472,431196
1225.51,0.097748,549929,439095
1229.01,0.096939,556888,445481
1232.5,0.095943,562180,450747
1235.98,0.096307,567975,455011
1239.46,0.094772,574815,462121
1242.94,0.093987,582782,469374
1246.41,0.093617,591476,476782
1251.03,0.093398,604016,487136
1254.5,0.092898,612289,494377
1257.96,0.093968,619125,498667
1261.41,0.094269,624551,502688
1264.86,0.094644,629900,506556
1268.31,0.095244,634345,509427
1271.75,0.095828,638574,512134
1276.33,0.096030,642499,515042
1279.76,0.095862,645905,517972
1283.19,0.095477,648307,520360
1286.61,0.095117,650446,522510
1290.03,0.094993,652132,524013
1293.44,0.094636,653907,525872
1296.85,0.093890,655963,528432
1301.39,0.094170,657349,529208
1304.8,0.094021,657558,529558
1308.19,0.094043,658515,530301
1311.58,0.093874,658804,530741
1314.97,0.095119,659011,529387
1318.36,0.095336,658272,528530
1321.73,0.095787,658022,527780
1326.23,0.096377,657870,526942
1329.6,0.097894,656482,523997
1332.97,0.097886,654926,522765
1336.33,0.099269,653727,520148
1339.69,0.100645,652497,517528
1343.04,0.102171,649913,513670
1346.39,0.104273,647671,509426
1349.73,0.106444,645338,505060
1354.18,0.109254,641175,498566
1357.52,0.111105,638376,494278
1360.85,0.112760,635805,490415
1364.17,0.115016,633413,486039
1367.49,0.117099,631026,481890
1370.81,0.119563,628050,476904
1374.12,0.121939,625034,472025
1378.54,0.124845,620272,465304
1381.84,0.127811,616892,459619
1385.14,0.131075,613613,453753
1388.43,0.134809,611526,448338
1391.72,0.139258,610663,443143
1395.01,0.143857,610634,438454
1398.29,0.148391,611700,434658
1402.66,0.155145,614051,429595
1405.93,0.160336,616268,426024
1409.2,0.165510,617795,422021
1412.46,0.170059,618872,418352
1415.72,0.174689,619795,414533
1418.98,0.178067,620495,411786
1422.23,0.181610,621087,408830
1426.56,0.185404,621375,405462
1429.8,0.188473,621616,402763
1433.04,0.191061,622129,400700
1436.27,0.192931,621526,398592
1439.5,0.195280,621113,396178
1442.72,0.197313,620921,394206
1445.94,0.199877,620270,391475
1450.23,0.203427,618860,387405
1453.44,0.205314,617697,385001
1456.64,0.208257,616264,381513
1459.85,0.211038,614413,377940
1463.04,0.213639,612307,374395
1466.24,0.217503,610032,369700
1469.43,0.220308,607345,365702
1473.67,0.225994,603789,358832
1476.85,0.231589,601175,352705
1480.02,0.236982,597737,346360
1483.19,0.243197,594479,339578
1486.36,0.248993,591232,333246
1489.52,0.253831,587853,327671
1492.68,0.256451,583875,323496
1496.89,0.258327,578062,318895
1500.03,0.259188,574159,316114
1503.18,0.259482,570285,313769
1506.32,0.258270,565444,311975
1509.45,0.257022,560571,310176
1512.58,0.254829,555821,309105
1515.71,0.252926,550344,307403
1519.87,0.250318,543983,305680
1522.99,0.247542,538764,304689
1526.1,0.245640,533692,303145
1529.21,0.242043,527902,302350
1532.32,0.239197,521886,300870
1535.42,0.236899,515888,298990
1538.51,0.233755,509987,297717
1541.6,0.230635,503936,296306
1545.72,0.226973,494694,293335
1548.8,0.224171,488378,291464
1551.88,0.222159,481832,288893
1554.95,0.219858,474989,286303
1558.02,0.218094,467818,283128
1561.08,0.216586,460730,279808
1564.15,0.216541,454170,275853
1568.22,0.215494,444181,270437
1571.27,0.214350,436947,266734
1574.32,0.214178,429598,262352
1577.36,0.212748,422039,258586
1580.4,0.211199,414375,254797
1583.43,0.209485,406354,250853
1586.46,0.207994,398475,246835
1590.49,0.206137,388982,241987
1593.51,0.204223,380708,237886
1596.53,0.201750,372727,234229
1599.54,0.200733,365060,229949
1602.55,0.198235,357543,226513
1605.55,0.196873,349495,222110
1608.55,0.194707,341154,217893
1612.54,0.193275,330877,212027
1615.53,0.190482,322904,208253
1618.51,0.189277,315116,203795
1621.49,0.188516,307217,199035
1624.47,0.186103,299481,195104
1627.44,0.186364,292112,190189
1630.41,0.185515,284245,185429
1634.36,0.184419,274079,179249
1637.32,0.183699,266916,174854
1640.27,0.183286,259612,170231
1643.22,0.182015,251804,165595
1646.16,0.180956,244348,161084
1649.1,0.180907,236703,156062
1652.04,0.178086,228171,151417
1655.95,0.175008,215408,143964
1658.88,0.171373,204937,138117
1661.8,0.166902,193395,131687
1664.72,0.158802,179728,124685
1667.63,0.146534,163642,116778
1670.54,0.133129,146312,107684
1673.44,0.115778,128451,98392
1677.31,0.094540,105080,84524
1680.21,0.084984,88906,73105
1683.1,0.082175,75033,62098
1685.99,0.077971,63520,53081
1688.87,0.080470,53714,44629
1691.75,0.086714,45653,37390
1694.62,0.092598,39137,31622
1697.49,0.093959,33776,27205
1701.31,0.099965,28175,22382

File: Column 1_050594_20150331_122036.csv
Method:,Column 1,,
Host Date-Time:,31/3/15 @ 12:20:36,,
Header Version:,1,,
System Temp (C):,33.93,,
Detector Temp (C):,34.67,,
Humidity (%):,1.76,,
Lamp PD:,3818,,
Shift Vector Coefficients:,-10.5391,0.0761263,-0.000134223,,
Pixel to Wavelength Coefficients:,1775.68,-0.916766,-0.000235065,,
Serial Number:,5510004,,
Scan Config Name:,Column 1,,
Scan Config Type:,Slew,,
Section 1,,
Start wavelength (nm):,900,,
End wavelength (nm):,1700,,
Pattern Pixel Width (nm):,   7.03,,,,
Exposure (ms):,  0.635,,,,
Digital Resolution:,228,,
Num Repeats:,6,,
PGA Gain:,64,,
Total Measurement Time in sec:,  2.679,,
Wavelength (nm),Absorbance (AU),Reference Signal (unitless),Sample Signal (unitless)
901.51,0.069557,108485,92430
905.376,0.075286,121306,101999
909.237,0.079842,131909,109757
913.095,0.076990,143299,120020
916.948,0.079674,156982,130670
922.079,0.081145,179937,149271
925.923,0.082308,200504,165888
929.762,0.083271,222660,183811
933.597,0.083338,244426,201748
937.427,0.081552,263972,218779
941.254,0.081943,281845,233382
945.076,0.080106,297271,247199
950.165,0.079262,315605,262955
953.978,0.078312,328029,273905
957.786,0.078751,340470,284006
961.59,0.079432,352317,293428
965.389,0.078538,363056,302995
969.185,0.079155,373162,310987
972.976,0.079264,382632,318799
976.763,0.080401,391202,325087
981.806,0.079740,400190,333063
985.583,0.080682,406088,337239
989.355,0.081652,410162,339863
993.124,0.081917,412868,341896
996.888,0.082486,414263,342602
1000.65,0.082983,415476,343212
1004.4,0.083918,415479,342477
1009.41,0.085219,414358,340531
1013.15,0.085765,412923,338925
1016.89,0.085954,411526,337632
1020.63,0.086162,409066,335453
1024.36,0.086073,406777,333644
1028.09,0.085966,404427,331798
1031.82,0.085929,401911,329762
1036.78,0.085177,398410,327456
1040.49,0.085161,396204,325655
1044.2,0.085610,394236,323703
1047.91,0.084733,392042,322552
1051.61,0.084881,389823,320617
1055.31,0.084144,388234,319852
1059,0.083917,387599,319496
1063.92,0.083003,386688,319417
1067.61,0.082400,386598,319786
1071.29,0.081535,387377,321069
1074.96,0.081790,388536,321841
1078.63,0.080409,389855,323962
1082.3,0.079975,391215,325417
1085.96,0.078928,393215,327870
1090.84,0.078413,396270,330810
1094.49,0.077612,398760,333503
1098.14,0.077355,400987,335564
1101.79,0.076869,403477,338026
1105.43,0.076745,406116,340334
1109.06,0.075662,407701,342515
1112.7,0.075631,409859,344353
1117.53,0.074743,412494,347276
1121.15,0.076160,414909,348171
1124.77,0.075274,416559,350270
1128.38,0.076663,418532,350805
1131.99,0.077918,419956,350983
1135.6,0.079129,421946,351664
1139.2,0.080145,423881,352451
1143.99,0.083123,426786,352442
1147.58,0.082851,428617,354175
1151.17,0.084435,431169,354987
1154.75,0.085082,433579,356440
1158.33,0.086961,436264,357099
1161.91,0.088394,439132,358262
1165.48,0.090336,442389,359309
1169.04,0.092448,446101,360566
1173.79,0.095804,451929,362465
1177.34,0.098012,456026,363896
1180.9,0.100165,461306,366289
1184.44,0.102138,467657,369649
1187.99,0.103168,473969,373751
1191.52,0.102902,479856,378625
1195.06,0.103131,487372,384352
1199.76,0.102557,497347,392738
1203.29,0.101237,504311,399449
1206.81,0.101123,511507,405255
1210.33,0.100346,519078,411990
1213.84,0.099997,527163,418743
1217.35,0.099318,534208,425003
1220.85,0.098506,540472,430792
1225.51,0.097720,549929,439123
1229.01,0.097451,556888,444956
1232.5,0.096998,562180,449653
1235.98,0.095875,567975,455464
1239.46,0.095043,574815,461833
1242.94,0.094232,582782,469109
1246.41,0.093564,591476,476841
1251.03,0.093602,604016,486907
1254.5,0.093918,612289,493218
1257.96,0.094444,619125,498120
1261.41,0.094234,624551,502729
1264.86,0.095224,629900,505880
1268.31,0.095595,634345,509015
1271.75,0.096304,638574,511573
1276.33,0.096014,642499,515061
1279.76,0.096630,645905,517057
1283.19,0.095775,648307,520003
1286.61,0.095533,650446,522009
1290.03,0.095056,652132,523938
1293.44,0.094738,653907,525749
1296.85,0.094678,655963,527474
1301.39,0.094438,657349,528881
1304.8,0.094039,657558,529535
1308.19,0.094305,658515,529982
1311.58,0.094891,658804,529499
1314.97,0.094914,659011,529637
1318.36,0.095290,658272,528586
1321.73,0.095781,658022,527788
1326.23,0.096648,657870,526614
1329.6,0.097392,656482,524603
1332.97,0.098309,654926,522256
1336.33,0.099460,653727,519920
1339.69,0.100918,652497,517202
1343.04,0.102264,649913,513560
1346.39,0.104957,647671,508625
1349.73,0.106575,645338,504908
1354.18,0.109550,641175,498226
1357.52,0.111772,638376,493520
1360.85,0.113144,635805,489982
1364.17,0.115457,633413,485545
1367.49,0.117209,631026,481768
1370.81,0.119580,628050,476886
1374.12,0.121945,625034,472018
1378.54,0.125101,620272,465030
1381.84,0.128228,616892,459178
1385.14,0.131340,613613,453476
1388.43,0.135070,611526,448069
1391.72,0.139801,610663,442589
1395.01,0.143985,610634,438325
1398.29,0.148082,611700,434967
1402.66,0.155107,614051,429633
1405.93,0.160906,616268,425465
1409.2,0.165594,617795,421940
1412.46,0.170102,618872,418311
1415.72,0.174286,619795,414918
1418.98,0.177819,620495,412021
1422.23,0.181228,621087,409189
1426.56,0.185437,621375,405431
1429.8,0.188298,621616,402925
1433.04,0.190802,622129,400939
1436.27,0.193034,621526,398497
1439.5,0.195218,621113,396235
1442.72,0.197315,620921,394204
1445.94,0.200057,620270,391313
1450.23,0.203147,618860,387655
1453.44,0.205653,617697,384700
1456.64,0.208339,616264,381441
1459.85,0.211248,614413,377757
1463.04,0.214462,612307,373686
1466.24,0.217426,610032,369766
1469.43,0.220818,607345,365273
1473.67,0.226558,603789,358366
1476.85,0.232287,601175,352139
1480.02,0.237434,597737,346000
1483.19,0.243503,594479,339339
1486.36,0.248938,591232,333288
1489.52,0.253943,587853,327586
1492.68,0.256740,583875,323281
1496.89,0.258744,578062,318589
1500.03,0.259113,574159,316169
1503.18,0.259083,570285,314057
1506.32,0.258582,565444,311751
1509.45,0.257147,560571,310087
1512.58,0.256250,555821,308095
1515.71,0.252994,550344,307355
1519.87,0.250115,543983,305823
1522.99,0.248018,538764,304355
1526.1,0.245252,533692,303416
1529.21,0.242423,527902,302086
1532.32,0.240473,521886,299987
1535.42,0.237012,515888,298912
1538.51,0.234290,509987,297351
1541.6,0.231006,503936,296053
1545.72,0.227251,494694,293147
1548.8,0.224186,488378,291454
1551.88,0.222414,481832,288723
1554.95,0.220205,474989,286074
1558.02,0.218794,467818,282672
1561.08,0.216819,460730,279658
1564.15,0.217002,454170,275560
1568.22,0.215937,444181,270161
1571.27,0.214961,436947,266359
1574.32,0.214998,429598,261857
1577.36,0.213395,422039,258201
1580.4,0.211639,414375,254539
1583.43,0.210133,406354,250479
1586.46,0.208630,398475,246474
1590.49,0.206574,388982,241744
1593.51,0.205113,380708,237399
1596.53,0.201967,372727,234112
1599.54,0.200550,365060,230046
1602.55,0.198905,357543,226164
1605.55,0.196863,349495,222115
1608.55,0.194923,341154,217785
1612.54,0.193363,330877,211984
1615.53,0.191557,322904,207738
1618.51,0.190369,315116,203283
1621.49,0.189396,307217,198632
1624.47,0.188924,299481,193841
1627.44,0.186373,292112,190185
1630.41,0.186563,284245,184982
1634.36,0.184766,274079,179106
1637.32,0.184467,266916,174545
1640.27,0.183095,259612,170306
1643.22,0.183008,251804,165217
1646.16,0.182997,244348,160329
1649.1,0.180009,236703,156385
1652.04,0.179882,228171,150792
1655.95,0.174893,215408,144002
1658.88,0.171370,204937,138118
1661.8,0.166965,193395,131668
1664.72,0.158471,179728,124780
1667.63,0.147487,163642,116522
1670.54,0.134437,146312,107360
1673.44,0.118665,128451,97740
1677.31,0.098634,105080,83731
1680.21,0.087576,88906,72670
1683.1,0.080715,75033,62307
1685.99,0.085848,63520,52127
1688.87,0.086418,53714,44022
1691.75,0.093681,45653,36795
1694.62,0.101702,39137,30966
1697.49,0.108256,33776,26324
1701.31,0.106239,28175,22061

File: Column 1_050594_20150331_122041.csv
Method:,Column 1,,
Host Date-Time:,31/3/15 @ 12:20:41,,
Header Version:,1,,
System Temp (C):,33.91,,
Detector Temp (C):,34.7,,
Humidity (%):,1.76,,
Lamp PD:,3818,,
Shift Vector Coefficients:,-10.5391,0.0761263,-0.000134223,,
Pixel to Wavelength Coefficients:,1775.68,-0.916766,-0.000235065,,
Serial Number:,5510004,,
Scan Config Name:,Column 1,,
Scan Config Type:,Slew,,
Section 1,,
Start wavelength (nm):,900,,
End wavelength (nm):,1700,,
Pattern Pixel Width (nm):,   7.03,,,,
Exposure (ms):,  0.635,,,,
Digital Resolution:,228,,
Num Repeats:,6,,
PGA Gain:,64,,
Total Measurement Time in sec:,  2.720,,
Wavelength (nm),Absorbance (AU),Reference Signal (unitless),Sample Signal (unitless)
901.51,0.071058,108485,92111
905.376,0.075755,121306,101889
909.237,0.077923,131909,110243
913.095,0.079122,143299,119432
916.948,0.080969,156982,130281
922.079,0.081186,179937,149257
925.923,0.083887,200504,165286
929.762,0.082562,222660,184111
933.597,0.083693,244426,201583
937.427,0.082417,263972,218344
941.254,0.081446,281845,233649
945.076,0.080626,297271,246903
950.165,0.078931,315605,263156
953.978,0.078758,328029,273624
957.786,0.079077,340470,283793
961.59,0.079058,352317,293681
965.389,0.079118,363056,302591
969.185,0.079057,373162,311057
972.976,0.079294,382632,318777
976.763,0.080241,391202,325207
981.806,0.080241,400190,332679
985.583,0.080372,406088,337480
989.355,0.081659,410162,339857
993.124,0.082109,412868,341745
996.888,0.082365,414263,342698
1000.65,0.082908,415476,343272
1004.4,0.084080,415479,342349
1009.41,0.085353,414358,340426
1013.15,0.085463,412923,339161
1016.89,0.086278,411526,337380
1020.63,0.086535,409066,335165
1024.36,0.086443,406777,333360
1028.09,0.086037,404427,331744
1031.82,0.086483,401911,329342
1036.78,0.085407,398410,327283
1040.49,0.085396,396204,325479
1044.2,0.086032,394236,323388
1047.91,0.084776,392042,322520
1051.61,0.084326,389823,321027
1055.31,0.084159,388234,319841
1059,0.083423,387599,319860
1063.92,0.082928,386688,319472
1067.61,0.082809,386598,319485
1071.29,0.082001,387377,320725
1074.96,0.081655,388536,321941
1078.63,0.081307,389855,323293
1082.3,0.080078,391215,325340
1085.96,0.079050,393215,327778
1090.84,0.078272,396270,330917
1094.49,0.077703,398760,333433
1098.14,0.076997,400987,335841
1101.79,0.076680,403477,338173
1105.43,0.076648,406116,340410
1109.06,0.075675,407701,342505
1112.7,0.074716,409859,345079
1117.53,0.074908,412494,347144
1121.15,0.075338,414909,348831
1124.77,0.075909,416559,349758
1128.38,0.077052,418532,350491
1131.99,0.077851,419956,351037
1135.6,0.079194,421946,351611
1139.2,0.080963,423881,351788
1143.99,0.082531,426786,352922
1147.58,0.083437,428617,353698
1151.17,0.084391,431169,355023
1154.75,0.084875,433579,356610
1158.33,0.086291,436264,357650
1161.91,0.087938,439132,358639
1165.48,0.090047,442389,359548
1169.04,0.092701,446101,360356
1173.79,0.096566,451929,361830
1177.34,0.098101,456026,363822
1180.9,0.100764,461306,365784
1184.44,0.101727,467657,369999
1187.99,0.103114,473969,373797
1191.52,0.102894,479856,378632
1195.06,0.102830,487372,384619
1199.76,0.102344,497347,392930
1203.29,0.101448,504311,399255
1206.81,0.101020,511507,405351
1210.33,0.100735,519078,411621
1213.84,0.099881,527163,418855
1217.35,0.099100,534208,425217
1220.85,0.098521,540472,430777
1225.51,0.097745,549929,439098
1229.01,0.097443,556888,444964
1232.5,0.097066,562180,449582
1235.98,0.096208,567975,455115
1239.46,0.095158,574815,461711
1242.94,0.093777,582782,469601
1246.41,0.093256,591476,477179
1251.03,0.093784,604016,486703
1254.5,0.093551,612289,493634
1257.96,0.094257,619125,498335
1261.41,0.094763,624551,502117
1264.86,0.095521,629900,505534
1268.31,0.095614,634345,508993
1271.75,0.096240,638574,511648
1276.33,0.096419,642499,514581
1279.76,0.096959,645905,516666
1283.19,0.095247,648307,520636
1286.61,0.095305,650446,522284
1290.03,0.095351,652132,523582
1293.44,0.094534,653907,525996
1296.85,0.094488,655963,527705
1301.39,0.094097,657349,529297
1304.8,0.094240,657558,529290
1308.19,0.094406,658515,529858
1311.58,0.094516,658804,529956
1314.97,0.094957,659011,529585
1318.36,0.095354,658272,528508
1321.73,0.095670,658022,527923
1326.23,0.096603,657870,526668
1329.6,0.097802,656482,524108
1332.97,0.098548,654926,521969
1336.33,0.099680,653727,519656
1339.69,0.101301,652497,516746
1343.04,0.102466,649913,513321
1346.39,0.104760,647671,508855
1349.73,0.106621,645338,504854
1354.18,0.109544,641175,498233
1357.52,0.111686,638376,493618
1360.85,0.113511,635805,489568
1364.17,0.115652,633413,485328
1367.49,0.117517,631026,481427
1370.81,0.120239,628050,476162
1374.12,0.121818,625034,472156
1378.54,0.124780,620272,465374
1381.84,0.127454,616892,459997
1385.14,0.131594,613613,453211
1388.43,0.135325,611526,447806
1391.72,0.139610,610663,442784
1395.01,0.143754,610634,438558
1398.29,0.148499,611700,434550
1402.66,0.155015,614051,429724
1405.93,0.161247,616268,425131
1409.2,0.166068,617795,421479
1412.46,0.170063,618872,418348
1415.72,0.174438,619795,414773
1418.98,0.177855,620495,411987
1422.23,0.181549,621087,408887
1426.56,0.185530,621375,405344
1429.8,0.188212,621616,403005
1433.04,0.190614,622129,401113
1436.27,0.193040,621526,398492
1439.5,0.194943,621113,396486
1442.72,0.197583,620921,393961
1445.94,0.199480,620270,391833
1450.23,0.203305,618860,387514
1453.44,0.205950,617697,384437
1456.64,0.208511,616264,381290
1459.85,0.211489,614413,377547
1463.04,0.214042,612307,374048
1466.24,0.216885,610032,370227
1469.43,0.220951,607345,365161
1473.67,0.226738,603789,358218
1476.85,0.231155,601175,353058
1480.02,0.237607,597737,345862
1483.19,0.243568,594479,339288
1486.36,0.249348,591232,332974
1489.52,0.253525,587853,327902
1492.68,0.256918,583875,323148
1496.89,0.258626,578062,318675
1500.03,0.259469,574159,315910
1503.18,0.259319,570285,313887
1506.32,0.258316,565444,311942
1509.45,0.257364,560571,309932
1512.58,0.255518,555821,308615
1515.71,0.253957,550344,306674
1519.87,0.250261,543983,305720
1522.99,0.248321,538764,304143
1526.1,0.245520,533692,303229
1529.21,0.242522,527902,302017
1532.32,0.240449,521886,300004
1535.42,0.236346,515888,299371
1538.51,0.233604,509987,297821
1541.6,0.231467,503936,295739
1545.72,0.227062,494694,293275
1548.8,0.224122,488378,291497
1551.88,0.222068,481832,288953
1554.95,0.219586,474989,286482
1558.02,0.218605,467818,282795
1561.08,0.217436,460730,279261
1564.15,0.217146,454170,275469
1568.22,0.215915,444181,270175
1571.27,0.214230,436947,266808
1574.32,0.213915,429598,262511
1577.36,0.212855,422039,258522
1580.4,0.211832,414375,254426
1583.43,0.210421,406354,250313
1586.46,0.207957,398475,246856
1590.49,0.206700,388982,241674
1593.51,0.204870,380708,237532
1596.53,0.202838,372727,233643
1599.54,0.199831,365060,230427
1602.55,0.198157,357543,226554
1605.55,0.197466,349495,221807
1608.55,0.196413,341154,217039
1612.54,0.193116,330877,212105
1615.53,0.190461,322904,208263
1618.51,0.190090,315116,203414
1621.49,0.189711,307217,198488
1624.47,0.188033,299481,194239
1627.44,0.187897,292112,189519
1630.41,0.186514,284245,185003
1634.36,0.184974,274079,179020
1637.32,0.184223,266916,174643
1640.27,0.183952,259612,169970
1643.22,0.182029,251804,165590
1646.16,0.182466,244348,160525
1649.1,0.182806,236703,155381
1652.04,0.179229,228171,151019
1655.95,0.176837,215408,143359
1658.88,0.173472,204937,137451
1661.8,0.169181,193395,130998
1664.72,0.159774,179728,124406
1667.63,0.147036,163642,116643
1670.54,0.132242,146312,107904
1673.44,0.117919,128451,97908
1677.31,0.098696,105080,83719
1680.21,0.088138,88906,72576
1683.1,0.085009,75033,61694
1685.99,0.085273,63520,52196
1688.87,0.087415,53714,43921
1691.75,0.088075,45653,37273
1694.62,0.099967,39137,31090
1697.49,0.103221,33776,26631
1701.31,0.114607,28175,21640