Folder: textile_sorting_NIRSCAN_/samples/wool/wool-000811 (part 120)

File: Column 1_050598_20150331_122232.csv
Method:,Column 1,,
Host Date-Time:,31/3/15 @ 12:22:32,,
Header Version:,1,,
System Temp (C):,33.93,,
Detector Temp (C):,34.72,,
Humidity (%):,1.76,,
Lamp PD:,3818,,
Shift Vector Coefficients:,-10.5391,0.0761263,-0.000134223,,
Pixel to Wavelength Coefficients:,1775.68,-0.916766,-0.000235065,,
Serial Number:,5510004,,
Scan Config Name:,Column 1,,
Scan Config Type:,Slew,,
Section 1,,
Start wavelength (nm):,900,,
End wavelength (nm):,1700,,
Pattern Pixel Width (nm):,   7.03,,,,
Exposure (ms):,  0.635,,,,
Digital Resolution:,228,,
Num Repeats:,6,,
PGA Gain:,64,,
Total Measurement Time in sec:,  2.669,,
Wavelength (nm),Absorbance (AU),Reference Signal (unitless),Sample Signal (unitless)
901.51,0.069712,108485,92397
905.376,0.076660,121306,101677
909.237,0.078057,131909,110209
913.095,0.079272,143299,119391
916.948,0.079388,156982,130756
922.079,0.081046,179937,149305
925.923,0.081842,200504,166066
929.762,0.083183,222660,183848
933.597,0.083862,244426,201505
937.427,0.082166,263972,218470
941.254,0.081543,281845,233597
945.076,0.080313,297271,247081
950.165,0.079618,315605,262740
953.978,0.079009,328029,273466
957.786,0.078871,340470,283928
961.59,0.078670,352317,293943
965.389,0.078922,363056,302727
969.185,0.078763,373162,311268
972.976,0.078495,382632,319364
976.763,0.079613,391202,325678
981.806,0.080164,400190,332738
985.583,0.081239,406088,336807
989.355,0.081095,410162,340299
993.124,0.081968,412868,341856
996.888,0.082107,414263,342901
1000.65,0.082466,415476,343621
1004.4,0.083773,415479,342591
1009.41,0.085148,414358,340587
1013.15,0.085176,412923,339385
1016.89,0.086013,411526,337586
1020.63,0.085291,409066,336126
1024.36,0.085587,406777,334018
1028.09,0.086459,404427,331422
1031.82,0.086361,401911,329434
1036.78,0.084729,398410,327794
1040.49,0.085447,396204,325441
1044.2,0.084468,394236,324555
1047.91,0.084788,392042,322511
1051.61,0.084337,389823,321019
1055.31,0.084094,388234,319889
1059,0.083425,387599,319858
1063.92,0.083213,386688,319262
1067.61,0.081845,386598,320195
1071.29,0.081701,387377,320947
1074.96,0.081486,388536,322066
1078.63,0.080811,389855,323662
1082.3,0.079843,391215,325516
1085.96,0.079420,393215,327499
1090.84,0.078262,396270,330925
1094.49,0.077739,398760,333405
1098.14,0.076945,400987,335881
1101.79,0.076689,403477,338166
1105.43,0.076112,406116,340830
1109.06,0.075532,407701,342618
1112.7,0.074842,409859,344979
1117.53,0.074828,412494,347208
1121.15,0.075258,414909,348895
1124.77,0.075572,416559,350029
1128.38,0.076506,418532,350932
1131.99,0.076410,419956,352204
1135.6,0.079387,421946,351455
1139.2,0.080355,423881,352281
1143.99,0.082327,426786,353088
1147.58,0.082882,428617,354150
1151.17,0.084605,431169,354848
1154.75,0.084676,433579,356773
1158.33,0.086360,436264,357593
1161.91,0.087580,439132,358934
1165.48,0.090304,442389,359336
1169.04,0.092721,446101,360340
1173.79,0.095532,451929,362692
1177.34,0.097196,456026,364581
1180.9,0.099615,461306,366753
1184.44,0.101531,467657,370166
1187.99,0.102752,473969,374109
1191.52,0.102299,479856,379151
1195.06,0.102425,487372,384978
1199.76,0.101968,497347,393271
1203.29,0.100888,504311,399770
1206.81,0.100870,511507,405491
1210.33,0.100169,519078,412158
1213.84,0.099539,527163,419185
1217.35,0.099247,534208,425073
1220.85,0.098067,540472,431227
1225.51,0.097544,549929,439301
1229.01,0.097367,556888,445042
1232.5,0.096412,562180,450260
1235.98,0.096004,567975,455329
1239.46,0.094792,574815,462100
1242.94,0.093593,582782,469800
1246.41,0.093277,591476,477156
1251.03,0.093453,604016,487074
1254.5,0.093228,612289,494002
1257.96,0.093599,619125,499091
1261.41,0.094466,624551,502460
1264.86,0.094612,629900,506593
1268.31,0.095268,634345,509398
1271.75,0.095720,638574,512261
1276.33,0.095896,642499,515201
1279.76,0.096514,645905,517195
1283.19,0.095162,648307,520737
1286.61,0.094739,650446,522964
1290.03,0.094525,652132,524578
1293.44,0.094212,653907,526386
1296.85,0.094081,655963,528200
1301.39,0.094153,657349,529228
1304.8,0.093916,657558,529685
1308.19,0.093726,658515,530688
1311.58,0.094419,658804,530075
1314.97,0.094320,659011,530362
1318.36,0.094945,658272,529006
1321.73,0.095249,658022,528435
1326.23,0.096417,657870,526894
1329.6,0.096845,656482,525264
1332.97,0.097954,654926,522683
1336.33,0.098865,653727,520633
1339.69,0.100364,652497,517862
1343.04,0.101762,649913,514154
1346.39,0.103838,647671,509937
1349.73,0.106018,645338,505556
1354.18,0.108703,641175,499199
1357.52,0.110803,638376,494622
1360.85,0.113032,635805,490108
1364.17,0.114840,633413,486236
1367.49,0.117075,631026,481917
1370.81,0.119238,628050,477261
1374.12,0.121399,625034,472612
1378.54,0.124434,620272,465745
1381.84,0.126913,616892,460571
1385.14,0.130585,613613,454265
1388.43,0.134349,611526,448814
1391.72,0.138819,610663,443591
1395.01,0.143264,610634,439053
1398.29,0.147279,611700,435772
1402.66,0.154180,614051,430551
1405.93,0.159479,616268,426865
1409.2,0.163918,617795,423571
1412.46,0.168008,618872,420332
1415.72,0.172655,619795,416479
1418.98,0.176158,620495,413600
1422.23,0.179892,621087,410450
1426.56,0.183286,621375,407444
1429.8,0.186389,621616,404700
1433.04,0.188423,622129,403141
1436.27,0.190806,621526,400547
1439.5,0.192545,621113,398681
1442.72,0.195249,620921,396084
1445.94,0.197325,620270,393782
1450.23,0.201046,618860,389535
1453.44,0.204105,617697,386074
1456.64,0.206150,616264,383369
1459.85,0.209377,614413,379388
1463.04,0.212492,612307,375385
1466.24,0.215504,610032,371406
1469.43,0.219462,607345,366415
1473.67,0.224802,603789,359818
1476.85,0.230236,601175,353806
1480.02,0.236118,597737,347050
1483.19,0.242604,594479,340042
1486.36,0.248136,591232,333904
1489.52,0.252842,587853,328418
1492.68,0.256482,583875,323473
1496.89,0.258193,578062,318993
1500.03,0.258346,574159,316728
1503.18,0.258554,570285,314440
1506.32,0.257452,565444,312563
1509.45,0.255891,560571,310985
1512.58,0.254752,555821,309160
1515.71,0.252840,550344,307464
1519.87,0.249356,543983,306358
1522.99,0.246419,538764,305478
1526.1,0.243960,533692,304320
1529.21,0.241631,527902,302637
1532.32,0.239084,521886,300948
1535.42,0.235675,515888,299834
1538.51,0.233502,509987,297891
1541.6,0.230745,503936,296231
1545.72,0.226552,494694,293619
1548.8,0.223360,488378,292009
1551.88,0.220970,481832,289685
1554.95,0.219248,474989,286705
1558.02,0.217395,467818,283584
1561.08,0.216048,460730,280155
1564.15,0.216037,454170,276173
1568.22,0.214544,444181,271029
1571.27,0.214868,436947,266416
1574.32,0.214039,429598,262436
1577.36,0.212655,422039,258641
1580.4,0.210950,414375,254943
1583.43,0.209037,406354,251112
1586.46,0.208156,398475,246743
1590.49,0.206567,388982,241748
1593.51,0.203997,380708,238010
1596.53,0.201784,372727,234211
1599.54,0.199720,365060,230486
1602.55,0.197965,357543,226654
1605.55,0.196203,349495,222453
1608.55,0.194526,341154,217984
1612.54,0.192081,330877,212611
1615.53,0.190516,322904,208237
1618.51,0.189844,315116,203529
1621.49,0.189260,307217,198694
1624.47,0.188409,299481,194071
1627.44,0.186428,292112,190161
1630.41,0.185223,284245,185554
1634.36,0.184509,274079,179212
1637.32,0.184417,266916,174565
1640.27,0.183725,259612,170059
1643.22,0.182955,251804,165237
1646.16,0.180911,244348,161101
1649.1,0.181854,236703,155722
1652.04,0.179229,228171,151019
1655.95,0.176135,215408,143591
1658.88,0.172415,204937,137786
1661.8,0.166296,193395,131871
1664.72,0.159876,179728,124377
1667.63,0.147036,163642,116643
1670.54,0.132766,146312,107774
1673.44,0.116529,128451,98222
1677.31,0.098603,105080,83737
1680.21,0.085995,88906,72935
1683.1,0.083218,75033,61949
1685.99,0.082677,63520,52509
1688.87,0.083752,53714,44293
1691.75,0.090916,45653,37030
1694.62,0.096350,39137,31350
1697.49,0.092509,33776,27296
1701.31,0.103218,28175,22215

File: Column 1_050598_20150331_122238.csv
Method:,Column 1,,
Host Date-Time:,31/3/15 @ 12:22:38,,
Header Version:,1,,
System Temp (C):,33.97,,
Detector Temp (C):,34.69,,
Humidity (%):,1.76,,
Lamp PD:,3818,,
Shift Vector Coefficients:,-10.5391,0.0761263,-0.000134223,,
Pixel to Wavelength Coefficients:,1775.68,-0.916766,-0.000235065,,
Serial Number:,5510004,,
Scan Config Name:,Column 1,,
Scan Config Type:,Slew,,
Section 1,,
Start wavelength (nm):,900,,
End wavelength (nm):,1700,,
Pattern Pixel Width (nm):,   7.03,,,,
Exposure (ms):,  0.635,,,,
Digital Resolution:,228,,
Num Repeats:,6,,
PGA Gain:,64,,
Total Measurement Time in sec:,  2.729,,
Wavelength (nm),Absorbance (AU),Reference Signal (unitless),Sample Signal (unitless)
901.51,0.069125,108485,92522
905.376,0.075482,121306,101953
909.237,0.077203,131909,110426
913.095,0.077004,143299,120016
916.948,0.077770,156982,131244
922.079,0.080930,179937,149345
925.923,0.081291,200504,166277
929.762,0.082756,222660,184029
933.597,0.082557,244426,202111
937.427,0.080466,263972,219327
941.254,0.080616,281845,234096
945.076,0.079576,297271,247501
950.165,0.078437,315605,263455
953.978,0.077591,328029,274360
957.786,0.077861,340470,284589
961.59,0.078382,352317,294138
965.389,0.078650,363056,302917
969.185,0.078403,373162,311526
972.976,0.078656,382632,319246
976.763,0.079438,391202,325809
981.806,0.079784,400190,333029
985.583,0.080376,406088,337477
989.355,0.080118,410162,341065
993.124,0.081569,412868,342170
996.888,0.081504,414263,343378
1000.65,0.082536,415476,343566
1004.4,0.083323,415479,342946
1009.41,0.084765,414358,340887
1013.15,0.085112,412923,339435
1016.89,0.085898,411526,337675
1020.63,0.085428,409066,336020
1024.36,0.085069,406777,334416
1028.09,0.085614,404427,332067
1031.82,0.085636,401911,329985
1036.78,0.085283,398410,327376
1040.49,0.084528,396204,326130
1044.2,0.084663,394236,324409
1047.91,0.084565,392042,322677
1051.61,0.084502,389823,320897
1055.31,0.083313,388234,320465
1059,0.082689,387599,320401
1063.92,0.082116,386688,320070
1067.61,0.081586,386598,320386
1071.29,0.081056,387377,321424
1074.96,0.080858,388536,322532
1078.63,0.080199,389855,324119
1082.3,0.078615,391215,326438
1085.96,0.077721,393215,328783
1090.84,0.077412,396270,331573
1094.49,0.077060,398760,333927
1098.14,0.076552,400987,336185
1101.79,0.076373,403477,338412
1105.43,0.075866,406116,341023
1109.06,0.075051,407701,342997
1112.7,0.075052,409859,344812
1117.53,0.074752,412494,347269
1121.15,0.074614,414909,349413
1124.77,0.075013,416559,350480
1128.38,0.075960,418532,351373
1131.99,0.076767,419956,351914
1135.6,0.078734,421946,351984
1139.2,0.079873,423881,352672
1143.99,0.081747,426786,353560
1147.58,0.082799,428617,354218
1151.17,0.083077,431169,356099
1154.75,0.084714,433579,356742
1158.33,0.085498,436264,358304
1161.91,0.087111,439132,359322
1165.48,0.089457,442389,360037
1169.04,0.091596,446101,361274
1173.79,0.095030,451929,363112
1177.34,0.096961,456026,364778
1180.9,0.099390,461306,366943
1184.44,0.101272,467657,370387
1187.99,0.102466,473969,374355
1191.52,0.101986,479856,379424
1195.06,0.101800,487372,385532
1199.76,0.101655,497347,393554
1203.29,0.100868,504311,399789
1206.81,0.100026,511507,406280
1210.33,0.099724,519078,412580
1213.84,0.099246,527163,419468
1217.35,0.098428,534208,425875
1220.85,0.097777,540472,431515
1225.51,0.097577,549929,439268
1229.01,0.096768,556888,445656
1232.5,0.096365,562180,450309
1235.98,0.095119,567975,456258
1239.46,0.094527,574815,462382
1242.94,0.093315,582782,470101
1246.41,0.093325,591476,477103
1251.03,0.092793,604016,487815
1254.5,0.092743,612289,494554
1257.96,0.093507,619125,499196
1261.41,0.093744,624551,503297
1264.86,0.094526,629900,506694
1268.31,0.095091,634345,509606
1271.75,0.095843,638574,512116
1276.33,0.095931,642499,515159
1279.76,0.095487,645905,518420
1283.19,0.094843,648307,521120
1286.61,0.094960,650446,522699
1290.03,0.094631,652132,524451
1293.44,0.093896,653907,526769
1296.85,0.093886,655963,528437
1301.39,0.093928,657349,529503
1304.8,0.093208,657558,530550
1308.19,0.093675,658515,530751
1311.58,0.093811,658804,530817
1314.97,0.094385,659011,530283
1318.36,0.094518,658272,529526
1321.73,0.095280,658022,528397
1326.23,0.096021,657870,527374
1329.6,0.096927,656482,525165
1332.97,0.097754,654926,522923
1336.33,0.098906,653727,520583
1339.69,0.100312,652497,517924
1343.04,0.101618,649913,514325
1346.39,0.103834,647671,509942
1349.73,0.105593,645338,506051
1354.18,0.108448,641175,499492
1357.52,0.110529,638376,494934
1360.85,0.112660,635805,490528
1364.17,0.114363,633413,486770
1367.49,0.117130,631026,481856
1370.81,0.118741,628050,477808
1374.12,0.120662,625034,473415
1378.54,0.124025,620272,466184
1381.84,0.126978,616892,460502
1385.14,0.129862,613613,455022
1388.43,0.133707,611526,449477
1391.72,0.138257,610663,444165
1395.01,0.142503,610634,439823
1398.29,0.146994,611700,436058
1402.66,0.153417,614051,431308
1405.93,0.159078,616268,427259
1409.2,0.163318,617795,424157
1412.46,0.168168,618872,420178
1415.72,0.172396,619795,416727
1418.98,0.175873,620495,413871
1422.23,0.179361,621087,410952
1426.56,0.183608,621375,407142
1429.8,0.185811,621616,405239
1433.04,0.188325,622129,403232
1436.27,0.190418,621526,400905
1439.5,0.192297,621113,398909
1442.72,0.195100,620921,396220
1445.94,0.197082,620270,394002
1450.23,0.200772,618860,389781
1453.44,0.203115,617697,386955
1456.64,0.206024,616264,383480
1459.85,0.208652,614413,380022
1463.04,0.211225,612307,376482
1466.24,0.214876,610032,371943
1469.43,0.218671,607345,367083
1473.67,0.224050,603789,360442
1476.85,0.229852,601175,354119
1480.02,0.235705,597737,347380
1483.19,0.241854,594479,340630
1486.36,0.247518,591232,334380
1489.52,0.252131,587853,328956
1492.68,0.255522,583875,324189
1496.89,0.257944,578062,319176
1500.03,0.258414,574159,316678
1503.18,0.258066,570285,314794
1506.32,0.257046,565444,312855
1509.45,0.255648,560571,311159
1512.58,0.254163,555821,309579
1515.71,0.251883,550344,308142
1519.87,0.249118,543983,306526
1522.99,0.246585,538764,305361
1526.1,0.243835,533692,304408
1529.21,0.241545,527902,302697
1532.32,0.238878,521886,301091
1535.42,0.235323,515888,300077
1538.51,0.232594,509987,298514
1541.6,0.229603,503936,297011
1545.72,0.225908,494694,294055
1548.8,0.223135,488378,292160
1551.88,0.220472,481832,290017
1554.95,0.218340,474989,287305
1558.02,0.216913,467818,283899
1561.08,0.215901,460730,280250
1564.15,0.215616,454170,276441
1568.22,0.213867,444181,271452
1571.27,0.213890,436947,267017
1574.32,0.212320,429598,263477
1577.36,0.211051,422039,259598
1580.4,0.210445,414375,255240
1583.43,0.208424,406354,251467
1586.46,0.206419,398475,247732
1590.49,0.205316,388982,242445
1593.51,0.203424,380708,238324
1596.53,0.201489,372727,234370
1599.54,0.199554,365060,230574
1602.55,0.197092,357543,227110
1605.55,0.195136,349495,223000
1608.55,0.193585,341154,218457
1612.54,0.191969,330877,212666
1615.53,0.190230,322904,208374
1618.51,0.188459,315116,204179
1621.49,0.187228,307217,199626
1624.47,0.186050,299481,195128
1627.44,0.186204,292112,190259
1630.41,0.184477,284245,185873
1634.36,0.183342,274079,179694
1637.32,0.182935,266916,175162
1640.27,0.182896,259612,170384
1643.22,0.179891,251804,166407
1646.16,0.181428,244348,160909
1649.1,0.180261,236703,156294
1652.04,0.179099,228171,151064
1655.95,0.173836,215408,144353
1658.88,0.170880,204937,138274
1661.8,0.165188,193395,132208
1664.72,0.157925,179728,124937
1667.63,0.146181,163642,116873
1670.54,0.131141,146312,108178
1673.44,0.114953,128451,98579
1677.31,0.094365,105080,84558
1680.21,0.082514,88906,73522
1683.1,0.078935,75033,62563
1685.99,0.079168,63520,52935
1688.87,0.084243,53714,44243
1691.75,0.088343,45653,37250
1694.62,0.088879,39137,31894
1697.49,0.099292,33776,26873
1701.31,0.104235,28175,22163

File: Column 1_050598_20150331_122244.csv
Method:,Column 1,,
Host Date-Time:,31/3/15 @ 12:22:44,,
Header Version:,1,,
System Temp (C):,33.95,,
Detector Temp (C):,34.74,,
Humidity (%):,1.76,,
Lamp PD:,3818,,
Shift Vector Coefficients:,-10.5391,0.0761263,-0.000134223,,
Pixel to Wavelength Coefficients:,1775.68,-0.916766,-0.000235065,,
Serial Number:,5510004,,
Scan Config Name:,Column 1,,
Scan Config Type:,Slew,,
Section 1,,
Start wavelength (nm):,900,,
End wavelength (nm):,1700,,
Pattern Pixel Width (nm):,   7.03,,,,
Exposure (ms):,  0.635,,,,
Digital Resolution:,228,,
Num Repeats:,6,,
PGA Gain:,64,,
Total Measurement Time in sec:,  2.690,,
Wavelength (nm),Absorbance (AU),Reference Signal (unitless),Sample Signal (unitless)
901.51,0.069331,108485,92478
905.376,0.074950,121306,102078
909.237,0.076830,131909,110521
913.095,0.078821,143299,119515
916.948,0.079083,156982,130848
922.079,0.081652,179937,149097
925.923,0.081497,200504,166198
929.762,0.081771,222660,184447
933.597,0.082300,244426,202231
937.427,0.080545,263972,219287
941.254,0.080303,281845,234265
945.076,0.079481,297271,247555
950.165,0.078825,315605,263220
953.978,0.078576,328029,273739
957.786,0.077519,340470,284813
961.59,0.078393,352317,294131
965.389,0.077947,363056,303408
969.185,0.078331,373162,311578
972.976,0.078459,382632,319391
976.763,0.079603,391202,325685
981.806,0.079100,400190,333554
985.583,0.080318,406088,337522
989.355,0.080419,410162,340829
993.124,0.080948,412868,342660
996.888,0.081499,414263,343382
1000.65,0.082226,415476,343811
1004.4,0.083399,415479,342886
1009.41,0.084986,414358,340714
1013.15,0.084985,412923,339535
1016.89,0.085777,411526,337769
1020.63,0.085980,409066,335593
1024.36,0.085445,406777,334127
1028.09,0.085393,404427,332236
1031.82,0.085358,401911,330196
1036.78,0.084301,398410,328117
1040.49,0.084608,396204,326070
1044.2,0.084485,394236,324542
1047.91,0.084092,392042,323028
1051.61,0.083858,389823,321373
1055.31,0.083118,388234,320609
1059,0.083273,387599,319970
1063.92,0.082199,386688,320009
1067.61,0.081498,386598,320451
1071.29,0.081335,387377,321217
1074.96,0.080464,388536,322825
1078.63,0.080258,389855,324075
1082.3,0.079419,391215,325834
1085.96,0.078350,393215,328307
1090.84,0.077565,396270,331456
1094.49,0.076844,398760,334093
1098.14,0.076988,400987,335848
1101.79,0.075608,403477,339009
1105.43,0.075709,406116,341147
1109.06,0.075533,407701,342617
1112.7,0.074500,409859,345251
1117.53,0.074123,412494,347772
1121.15,0.074787,414909,349274
1124.77,0.074905,416559,350567
1128.38,0.076007,418532,351335
1131.99,0.076949,419956,351767
1135.6,0.078670,421946,352036
1139.2,0.079976,423881,352588
1143.99,0.081882,426786,353450
1147.58,0.082478,428617,354480
1151.17,0.083455,431169,355789
1154.75,0.084561,433579,356868
1158.33,0.086050,436264,357849
1161.91,0.087643,439132,358882
1165.48,0.089338,442389,360136
1169.04,0.091766,446101,361133
1173.79,0.095329,451929,362862
1177.34,0.096993,456026,364751
1180.9,0.099556,461306,366803
1184.44,0.101143,467657,370497
1187.99,0.102063,473969,374703
1191.52,0.102402,479856,379061
1195.06,0.102107,487372,385260
1199.76,0.101537,497347,393661
1203.29,0.100725,504311,399920
1206.81,0.100143,511507,406171
1210.33,0.099904,519078,412409
1213.84,0.099407,527163,419313
1217.35,0.098318,534208,425983
1220.85,0.097871,540472,431422
1225.51,0.096953,549929,439900
1229.01,0.096362,556888,446073
1232.5,0.096044,562180,450642
1235.98,0.095586,567975,455767
1239.46,0.094572,574815,462334
1242.94,0.093648,582782,469741
1246.41,0.092450,591476,478065
1251.03,0.092985,604016,487600
1254.5,0.092985,612289,494278
1257.96,0.093400,619125,499319
1261.41,0.093774,624551,503262
1264.86,0.094675,629900,506520
1268.31,0.094789,634345,509961
1271.75,0.095777,638574,512194
1276.33,0.095612,642499,515538
1279.76,0.095873,645905,517959
1283.19,0.095419,648307,520429
1286.61,0.094917,650446,522750
1290.03,0.094173,652132,525004
1293.44,0.094175,653907,526431
1296.85,0.093517,655963,528886
1301.39,0.093374,657349,530178
1304.8,0.093401,657558,530314
1308.19,0.093899,658515,530477
1311.58,0.093768,658804,530870
1314.97,0.094144,659011,530577
1318.36,0.094713,658272,529289
1321.73,0.094999,658022,528739
1326.23,0.095745,657870,527710
1329.6,0.096640,656482,525512
1332.97,0.097429,654926,523315
1336.33,0.098470,653727,521106
1339.69,0.100145,652497,518124
1343.04,0.101400,649913,514583
1346.39,0.103503,647671,510331
1349.73,0.105467,645338,506198
1354.18,0.108786,641175,499104
1357.52,0.110466,638376,495006
1360.85,0.112316,635805,490917
1364.17,0.114232,633413,486917
1367.49,0.116881,631026,482132
1370.81,0.118734,628050,477815
1374.12,0.121081,625034,472958
1378.54,0.123772,620272,466455
1381.84,0.126758,616892,460735
1385.14,0.129849,613613,455036
1388.43,0.134069,611526,449103
1391.72,0.137728,610663,444707
1395.01,0.142445,610634,439882
1398.29,0.146935,611700,436117
1402.66,0.153209,614051,431515
1405.93,0.158614,616268,427716
1409.2,0.163250,617795,424223
1412.46,0.168127,618872,420217
1415.72,0.171852,619795,417250
1418.98,0.175766,620495,413973
1422.23,0.178859,621087,411428
1426.56,0.183062,621375,407654
1429.8,0.185722,621616,405322
1433.04,0.187808,622129,403713
1436.27,0.190468,621526,400859
1439.5,0.192348,621113,398862
1442.72,0.194402,620921,396857
1445.94,0.197081,620270,394003
1450.23,0.200254,618860,390246
1453.44,0.202943,617697,387108
1456.64,0.205658,616264,383803
1459.85,0.208789,614413,379902
1463.04,0.211590,612307,376166
1466.24,0.214682,610032,372109
1469.43,0.218354,607345,367351
1473.67,0.224878,603789,359755
1476.85,0.229896,601175,354083
1480.02,0.235249,597737,347745
1483.19,0.241722,594479,340733
1486.36,0.247324,591232,334529
1489.52,0.251982,587853,329069
1492.68,0.255698,583875,324057
1496.89,0.258230,578062,318966
1500.03,0.258486,574159,316626
1503.18,0.257870,570285,314936
1506.32,0.256639,565444,313149
1509.45,0.255944,560571,310947
1512.58,0.253924,555821,309750
1515.71,0.252168,550344,307940
1519.87,0.249195,543983,306472
1522.99,0.245832,538764,305891
1526.1,0.243444,533692,304682
1529.21,0.240403,527902,303494
1532.32,0.237938,521886,301743
1535.42,0.235915,515888,299668
1538.51,0.232773,509987,298391
1541.6,0.229603,503936,297011
1545.72,0.225325,494694,294450
1548.8,0.222146,488378,292826
1551.88,0.219696,481832,290536
1554.95,0.218366,474989,287288
1558.02,0.217331,467818,283626
1561.08,0.215786,460730,280324
1564.15,0.214952,454170,276864
1568.22,0.214043,444181,271342
1571.27,0.214015,436947,266940
1574.32,0.212221,429598,263537
1577.36,0.211488,422039,259337
1580.4,0.209272,414375,255930
1583.43,0.208161,406354,251619
1586.46,0.206898,398475,247459
1590.49,0.205422,388982,242386
1593.51,0.202710,380708,238716
1596.53,0.201746,372727,234231
1599.54,0.199573,365060,230564
1602.55,0.197117,357543,227097
1605.55,0.195348,349495,222891
1608.55,0.193400,341154,218550
1612.54,0.191997,330877,212652
1615.53,0.190290,322904,208345
1618.51,0.188215,315116,204294
1621.49,0.188896,307217,198861
1624.47,0.187066,299481,194672
1627.44,0.185253,292112,190676
1630.41,0.184418,284245,185898
1634.36,0.183661,274079,179562
1637.32,0.182707,266916,175254
1640.27,0.182654,259612,170479
1643.22,0.181214,251804,165901
1646.16,0.181008,244348,161065
1649.1,0.178680,236703,156864
1652.04,0.178559,228171,151252
1655.95,0.174529,215408,144123
1658.88,0.170337,204937,138447
1661.8,0.164767,193395,132336
1664.72,0.158882,179728,124662
1667.63,0.145097,163642,117165
1670.54,0.132186,146312,107918
1673.44,0.115954,128451,98352
1677.31,0.096105,105080,84220
1680.21,0.085299,88906,73052
1683.1,0.078969,75033,62558
1685.99,0.080096,63520,52822
1688.87,0.083890,53714,44279
1691.75,0.087028,45653,37363
1694.62,0.090707,39137,31760
1697.49,0.097663,33776,26974
1701.31,0.095736,28175,22601